loggingTime(txt),loggingSample(N),locationTimestamp_since1970(s),locationLatitude(WGS84),locationLongitude(WGS84),locationAltitude(m),locationSpeed(m/s),locationCourse(°),locationVerticalAccuracy(m),locationHorizontalAccuracy(m),locationFloor(Z),accelerometerTimestamp_sinceReboot(s),accelerometerAccelerationX(G),accelerometerAccelerationY(G),accelerometerAccelerationZ(G),batteryState,batteryLevel,label
57:18.1,1,1571680638,33.99904894,-81.03091123,91.31862,0.8910047,243.7275004,6.997970488,76.57895304,-9999,406392.9319,-0.052062988,-0.332855225,-0.930282593,1,0.53,5
57:18.2,2,1571680638,33.99904894,-81.03091123,91.31862,0.8910047,243.7275004,6.997970488,76.57895304,-9999,406392.9719,-0.065460205,-0.334259033,-0.925796509,1,0.53,5
57:18.2,3,1571680638,33.99902836,-81.03088757,91.3354,0.8702663,181.0735251,7.068337895,63.77301724,-9999,406393.0119,-0.079071045,-0.322631836,-0.930374146,1,0.53,5
57:18.2,4,1571680638,33.99902836,-81.03088757,91.3354,0.8702663,181.0735251,7.068337895,63.77301724,-9999,406393.0518,-0.074050903,-0.323226929,-0.948577881,1,0.53,5
57:18.3,5,1571680638,33.99902836,-81.03088757,91.3354,0.8702663,181.0735251,7.068337895,63.77301724,-9999,406393.0918,-0.061523438,-0.320098877,-0.9453125,1,0.53,5
57:18.3,6,1571680638,33.99902836,-81.03088757,91.3354,0.8702663,181.0735251,7.068337895,63.77301724,-9999,406393.1318,-0.066101074,-0.318359375,-0.949645996,1,0.53,5
57:18.4,7,1571680638,33.99902836,-81.03088757,91.3354,0.8702663,181.0735251,7.068337895,63.77301724,-9999,406393.1718,-0.046661377,-0.33013916,-0.92300415,1,0.53,5
57:18.4,8,1571680638,33.99902836,-81.03088757,91.3354,0.8702663,181.0735251,7.068337895,63.77301724,-9999,406393.2118,-0.06098938,-0.328552246,-0.919555664,1,0.53,5
57:18.4,9,1571680638,33.99902836,-81.03088757,91.3354,0.8702663,181.0735251,7.068337895,63.77301724,-9999,406393.2518,-0.049301147,-0.336364746,-0.910125732,1,0.53,5
57:18.5,10,1571680638,33.99902836,-81.03088757,91.3354,0.8702663,181.0735251,7.068337895,63.77301724,-9999,406393.2917,-0.026672363,-0.325042725,-0.908325195,1,0.53,5
57:18.5,11,1571680638,33.99902836,-81.03088757,91.3354,0.8702663,181.0735251,7.068337895,63.77301724,-9999,406393.3317,-0.029022217,-0.254852295,-0.897949219,1,0.53,5
57:18.6,12,1571680638,33.99902836,-81.03088757,91.3354,0.8702663,181.0735251,7.068337895,63.77301724,-9999,406393.3717,-0.107269287,-0.150222778,-0.915756226,1,0.53,5
57:18.6,13,1571680638,33.99902836,-81.03088757,91.3354,0.8702663,181.0735251,7.068337895,63.77301724,-9999,406393.4117,-0.161376953,-0.05166626,-0.884597778,1,0.53,5
57:18.6,14,1571680638,33.99902836,-81.03088757,91.3354,0.8702663,181.0735251,7.068337895,63.77301724,-9999,406393.4517,-0.168380737,0.167160034,-0.960189819,1,0.53,5
57:18.7,15,1571680638,33.99902836,-81.03088757,91.3354,0.8702663,181.0735251,7.068337895,63.77301724,-9999,406393.4917,-0.195861816,0.346740723,-0.946166992,1,0.53,5
57:18.7,16,1571680638,33.99902836,-81.03088757,91.3354,0.8702663,181.0735251,7.068337895,63.77301724,-9999,406393.5316,-0.240646362,0.555099487,-0.895126343,1,0.53,5
57:18.8,17,1571680638,33.99902836,-81.03088757,91.3354,0.8702663,181.0735251,7.068337895,63.77301724,-9999,406393.5716,-0.217727661,0.528518677,-0.826629639,1,0.53,5
57:18.8,18,1571680638,33.99902836,-81.03088757,91.3354,0.8702663,181.0735251,7.068337895,63.77301724,-9999,406393.6116,-0.250289917,0.626449585,-1.026580811,1,0.53,5
57:18.8,19,1571680638,33.99902836,-81.03088757,91.3354,0.8702663,181.0735251,7.068337895,63.77301724,-9999,406393.6516,-0.232208252,0.471435547,-0.974578857,1,0.53,5
57:18.9,20,1571680638,33.99902836,-81.03088757,91.3354,0.8702663,181.0735251,7.068337895,63.77301724,-9999,406393.6916,-0.288421631,0.326766968,-0.904678345,1,0.53,5
57:18.9,21,1571680638,33.99902836,-81.03088757,91.3354,0.8702663,181.0735251,7.068337895,63.77301724,-9999,406393.7316,-0.212051392,0.31690979,-0.902816772,1,0.53,5
57:19.0,22,1571680638,33.99902836,-81.03088757,91.3354,0.8702663,181.0735251,7.068337895,63.77301724,-9999,406393.7716,-0.154510498,0.332595825,-0.967712402,1,0.53,5
57:19.0,23,1571680638,33.99902836,-81.03088757,91.3354,0.8702663,181.0735251,7.068337895,63.77301724,-9999,406393.8115,-0.132751465,0.346466064,-0.950042725,1,0.53,5
57:19.0,24,1571680638,33.99902836,-81.03088757,91.3354,0.8702663,181.0735251,7.068337895,63.77301724,-9999,406393.8515,-0.147598267,0.370559692,-0.910949707,1,0.53,5
57:19.1,25,1571680638,33.99902836,-81.03088757,91.3354,0.8702663,181.0735251,7.068337895,63.77301724,-9999,406393.8915,-0.203826904,0.327133179,-0.910919189,1,0.53,5
57:19.1,26,1571680638,33.99902836,-81.03088757,91.3354,0.8702663,181.0735251,7.068337895,63.77301724,-9999,406393.9315,-0.166061401,0.383804321,-0.916183472,1,0.53,5
57:19.2,27,1571680639,33.99902836,-81.03088757,91.3354,0,181.0735251,7.11523049,55.48507517,-9999,406393.9715,-0.068618774,0.353530884,-0.90246582,1,0.53,5
57:19.2,28,1571680639,33.99902836,-81.03088757,91.3354,0,181.0735251,7.11523049,55.48507517,-9999,406394.0115,-0.067047119,0.350967407,-0.926269531,1,0.53,5
57:19.2,29,1571680639,33.99902836,-81.03088757,91.3354,0,181.0735251,7.11523049,55.48507517,-9999,406394.0514,-0.057235718,0.376571655,-0.917236328,1,0.53,5
57:19.3,30,1571680639,33.99902836,-81.03088757,91.3354,0,181.0735251,7.11523049,55.48507517,-9999,406394.0914,-0.123977661,0.387588501,-0.926544189,1,0.53,5
57:19.3,31,1571680639,33.99902836,-81.03088757,91.3354,0,181.0735251,7.11523049,55.48507517,-9999,406394.1314,-0.104537964,0.351959229,-0.944641113,1,0.53,5
57:19.4,32,1571680639,33.99902836,-81.03088757,91.3354,0,181.0735251,7.11523049,55.48507517,-9999,406394.1714,-0.094482422,0.375473022,-0.910140991,1,0.53,5
57:19.4,33,1571680639,33.99902836,-81.03088757,91.3354,0,181.0735251,7.11523049,55.48507517,-9999,406394.2114,-0.078094482,0.369659424,-0.928985596,1,0.53,5
57:19.4,34,1571680639,33.99902836,-81.03088757,91.3354,0,181.0735251,7.11523049,55.48507517,-9999,406394.2514,-0.073196411,0.416992188,-0.917709351,1,0.53,5
57:19.5,35,1571680639,33.99902836,-81.03088757,91.3354,0,181.0735251,7.11523049,55.48507517,-9999,406394.2913,-0.053161621,0.377609253,-0.91947937,1,0.53,5
57:19.5,36,1571680639,33.99902836,-81.03088757,91.3354,0,181.0735251,7.11523049,55.48507517,-9999,406394.3313,-0.062774658,0.337417603,-0.923416138,1,0.53,5
57:19.6,37,1571680639,33.99902836,-81.03088757,91.3354,0,181.0735251,7.11523049,55.48507517,-9999,406394.3713,-0.033813477,0.372894287,-0.914611816,1,0.53,5
57:19.6,38,1571680639,33.99902836,-81.03088757,91.3354,0,181.0735251,7.11523049,55.48507517,-9999,406394.4113,-0.054473877,0.319229126,-0.924285889,1,0.53,5
57:19.6,39,1571680639,33.99902836,-81.03088757,91.3354,0,181.0735251,7.11523049,55.48507517,-9999,406394.4513,-0.055038452,0.342041016,-0.90826416,1,0.53,5
57:19.7,40,1571680639,33.99902836,-81.03088757,91.3354,0,181.0735251,7.11523049,55.48507517,-9999,406394.4913,-0.044494629,0.355178833,-0.929885864,1,0.53,5
57:19.7,41,1571680639,33.99902836,-81.03088757,91.3354,0,181.0735251,7.11523049,55.48507517,-9999,406394.5312,-0.001052856,0.367858887,-0.924667358,1,0.53,5
57:19.8,42,1571680639,33.99902836,-81.03088757,91.3354,0,181.0735251,7.11523049,55.48507517,-9999,406394.5712,-0.039733887,0.30480957,-0.944839478,1,0.53,5
57:19.8,43,1571680639,33.99902836,-81.03088757,91.3354,0,181.0735251,7.11523049,55.48507517,-9999,406394.6112,-0.056671143,0.329986572,-0.941162109,1,0.53,5
57:19.8,44,1571680639,33.99902836,-81.03088757,91.3354,0,181.0735251,7.11523049,55.48507517,-9999,406394.6512,-0.066574097,0.38319397,-0.938156128,1,0.53,5
57:19.9,45,1571680639,33.99902836,-81.03088757,91.3354,0,181.0735251,7.11523049,55.48507517,-9999,406394.6912,-0.089416504,0.317703247,-0.943466187,1,0.53,5
57:19.9,46,1571680639,33.99902836,-81.03088757,91.3354,0,181.0735251,7.11523049,55.48507517,-9999,406394.7312,-0.09487915,0.297103882,-0.932006836,1,0.53,5
57:20.0,47,1571680639,33.99902836,-81.03088757,91.3354,0,181.0735251,7.11523049,55.48507517,-9999,406394.7711,-0.083007813,0.279388428,-0.93447876,1,0.53,5
57:20.0,48,1571680639,33.99902836,-81.03088757,91.3354,0,181.0735251,7.11523049,55.48507517,-9999,406394.8111,-0.066268921,0.316848755,-0.909545898,1,0.53,5
57:20.0,49,1571680639,33.99902836,-81.03088757,91.3354,0,181.0735251,7.11523049,55.48507517,-9999,406394.8511,-0.082366943,0.337936401,-0.925765991,1,0.53,5
57:20.1,50,1571680639,33.99902836,-81.03088757,91.3354,0,181.0735251,7.11523049,55.48507517,-9999,406394.8911,-0.109619141,0.40461731,-0.941650391,1,0.53,5
57:20.1,51,1571680639,33.99902836,-81.03088757,91.3354,0,181.0735251,7.11523049,55.48507517,-9999,406394.9311,-0.102966309,0.344970703,-0.926803589,1,0.53,5
57:20.2,52,1571680639,33.99902836,-81.03088757,91.3354,0,181.0735251,7.11523049,55.48507517,-9999,406394.9711,-0.100326538,0.273117065,-0.94190979,1,0.53,5
57:20.2,53,1571680639,33.99902836,-81.03088757,91.3354,0,181.0735251,7.11523049,55.48507517,-9999,406395.011,-0.115783691,0.310974121,-0.949234009,1,0.53,5
57:20.2,54,1571680639,33.99902836,-81.03088757,91.3354,0,181.0735251,7.11523049,55.48507517,-9999,406395.051,-0.131210327,0.388839722,-0.922546387,1,0.53,5
57:20.3,55,1571680640,33.99881051,-81.03098169,91.3259,0,181.0735251,7.199542081,77.11499792,-9999,406395.091,-0.118942261,0.364059448,-0.920150757,1,0.53,5
57:20.3,56,1571680640,33.99881051,-81.03098169,91.3259,0,181.0735251,7.199542081,77.11499792,-9999,406395.131,-0.108612061,0.32383728,-0.928894043,1,0.53,5
57:20.4,57,1571680640,33.99881051,-81.03098169,91.3259,0,181.0735251,7.199542081,77.11499792,-9999,406395.171,-0.112747192,0.331436157,-0.937438965,1,0.53,5
57:20.4,58,1571680640,33.99881051,-81.03098169,91.3259,0,181.0735251,7.199542081,77.11499792,-9999,406395.211,-0.129180908,0.358978271,-0.928955078,1,0.53,5
57:20.4,59,1571680640,33.99881051,-81.03098169,91.3259,0,181.0735251,7.199542081,77.11499792,-9999,406395.251,-0.14541626,0.421676636,-0.917953491,1,0.53,5
57:20.5,60,1571680640,33.99881051,-81.03098169,91.3259,0,181.0735251,7.199542081,77.11499792,-9999,406395.2909,-0.113113403,0.364944458,-0.915237427,1,0.53,5
57:20.5,61,1571680640,33.99881051,-81.03098169,91.3259,0,181.0735251,7.199542081,77.11499792,-9999,406395.3309,-0.088195801,0.339782715,-0.93119812,1,0.53,5
57:20.6,62,1571680640,33.99881051,-81.03098169,91.3259,0,181.0735251,7.199542081,77.11499792,-9999,406395.3709,-0.074996948,0.280197144,-0.933334351,1,0.53,5
57:20.6,63,1571680640,33.99881051,-81.03098169,91.3259,0,181.0735251,7.199542081,77.11499792,-9999,406395.4109,-0.059646606,0.353591919,-0.917922974,1,0.53,5
57:20.6,64,1571680640,33.99881051,-81.03098169,91.3259,0,181.0735251,7.199542081,77.11499792,-9999,406395.4509,-0.122406006,0.377471924,-0.924545288,1,0.53,5
57:20.7,65,1571680640,33.99881051,-81.03098169,91.3259,0,181.0735251,7.199542081,77.11499792,-9999,406395.4909,-0.189025879,0.401428223,-0.93119812,1,0.53,5
57:20.7,66,1571680640,33.99881051,-81.03098169,91.3259,0,181.0735251,7.199542081,77.11499792,-9999,406395.5308,-0.176132202,0.475296021,-0.891662598,1,0.53,5
57:20.8,67,1571680640,33.99881051,-81.03098169,91.3259,0,181.0735251,7.199542081,77.11499792,-9999,406395.5708,-0.134399414,0.399917603,-0.911941528,1,0.53,5
57:20.8,68,1571680640,33.99881051,-81.03098169,91.3259,0,181.0735251,7.199542081,77.11499792,-9999,406395.6108,-0.124969482,0.377609253,-0.918441772,1,0.53,5
57:20.8,69,1571680640,33.99881051,-81.03098169,91.3259,0,181.0735251,7.199542081,77.11499792,-9999,406395.6508,-0.122787476,0.39604187,-0.921218872,1,0.53,5
57:20.9,70,1571680640,33.99881051,-81.03098169,91.3259,0,181.0735251,7.199542081,77.11499792,-9999,406395.6908,-0.11114502,0.426513672,-0.913894653,1,0.53,5
57:20.9,71,1571680640,33.99881051,-81.03098169,91.3259,0,181.0735251,7.199542081,77.11499792,-9999,406395.7308,-0.104644775,0.390670776,-0.943984985,1,0.53,5
57:21.0,72,1571680640,33.99881051,-81.03098169,91.3259,0,181.0735251,7.199542081,77.11499792,-9999,406395.7707,-0.117355347,0.414520264,-0.914733887,1,0.53,5
57:21.0,73,1571680640,33.99881051,-81.03098169,91.3259,0,181.0735251,7.199542081,77.11499792,-9999,406395.8107,-0.123703003,0.411972046,-0.912765503,1,0.53,5
57:21.0,74,1571680640,33.99881051,-81.03098169,91.3259,0,181.0735251,7.199542081,77.11499792,-9999,406395.8507,-0.127975464,0.392440796,-0.92616272,1,0.53,5
57:21.1,75,1571680640,33.99881051,-81.03098169,91.3259,0,181.0735251,7.199542081,77.11499792,-9999,406395.8907,-0.101409912,0.380157471,-0.920150757,1,0.53,5
57:21.1,76,1571680640,33.99881051,-81.03098169,91.3259,0,181.0735251,7.199542081,77.11499792,-9999,406395.9307,-0.101013184,0.429046631,-0.912887573,1,0.53,5
57:21.2,77,1571680640,33.99881051,-81.03098169,91.3259,0,181.0735251,7.199542081,77.11499792,-9999,406395.9707,-0.121963501,0.446868896,-0.91242981,1,0.53,5
57:21.2,78,1571680641,33.99871606,-81.03111147,91.36636,0,181.0735251,6.970063526,41.62619567,-9999,406396.0106,-0.11328125,0.39024353,-0.89112854,1,0.53,5
57:21.2,79,1571680641,33.99871606,-81.03111147,91.36636,0,181.0735251,6.970063526,41.62619567,-9999,406396.0506,-0.081832886,0.366317749,-0.908370972,1,0.53,5
57:21.3,80,1571680641,33.99871606,-81.03111147,91.36636,0,181.0735251,6.970063526,41.62619567,-9999,406396.0906,-0.09677124,0.408676147,-0.908355713,1,0.53,5
57:21.3,81,1571680641,33.99871606,-81.03111147,91.36636,0,181.0735251,6.970063526,41.62619567,-9999,406396.1306,-0.127838135,0.472961426,-0.885910034,1,0.53,5
57:21.4,82,1571680641,33.99871606,-81.03111147,91.36636,0,181.0735251,6.970063526,41.62619567,-9999,406396.1706,-0.104431152,0.457366943,-0.894577026,1,0.53,5
57:21.4,83,1571680641,33.99871606,-81.03111147,91.36636,0,181.0735251,6.970063526,41.62619567,-9999,406396.2106,-0.097335815,0.441818237,-0.887817383,1,0.53,5
57:21.4,84,1571680641,33.99871606,-81.03111147,91.36636,0,181.0735251,6.970063526,41.62619567,-9999,406396.2505,-0.068603516,0.39730835,-0.904159546,1,0.53,5
57:21.5,85,1571680641,33.99871606,-81.03111147,91.36636,0,181.0735251,6.970063526,41.62619567,-9999,406396.2905,-0.073425293,0.453292847,-0.89112854,1,0.53,5
57:21.5,86,1571680641,33.99871606,-81.03111147,91.36636,0,181.0735251,6.970063526,41.62619567,-9999,406396.3305,-0.104171753,0.472106934,-0.885009766,1,0.53,5
57:21.6,87,1571680641,33.99871606,-81.03111147,91.36636,0,181.0735251,6.970063526,41.62619567,-9999,406396.3705,-0.109832764,0.460037231,-0.889419556,1,0.53,5
57:21.6,88,1571680641,33.99871606,-81.03111147,91.36636,0,181.0735251,6.970063526,41.62619567,-9999,406396.4105,-0.095779419,0.438568115,-0.8724823,1,0.53,5
57:21.6,89,1571680641,33.99871606,-81.03111147,91.36636,0,181.0735251,6.970063526,41.62619567,-9999,406396.4505,-0.10005188,0.503631592,-0.86656189,1,0.53,5
57:21.7,90,1571680641,33.99871606,-81.03111147,91.36636,0,181.0735251,6.970063526,41.62619567,-9999,406396.4904,-0.127258301,0.598007202,-0.848861694,1,0.53,5
57:21.7,91,1571680641,33.99871606,-81.03111147,91.36636,0,181.0735251,6.970063526,41.62619567,-9999,406396.5304,-0.131942749,0.412597656,-0.874801636,1,0.53,5
57:21.8,92,1571680641,33.99871606,-81.03111147,91.36636,0,181.0735251,6.970063526,41.62619567,-9999,406396.5704,-0.072387695,0.58644104,-0.82963562,1,0.53,5
57:21.8,93,1571680641,33.99871606,-81.03111147,91.36636,0,181.0735251,6.970063526,41.62619567,-9999,406396.6104,-0.116119385,0.520523071,-0.850280762,1,0.53,5
57:21.8,94,1571680641,33.99871606,-81.03111147,91.36636,0,181.0735251,6.970063526,41.62619567,-9999,406396.6504,-0.120986938,0.564941406,-0.823425293,1,0.53,5
57:21.9,95,1571680641,33.99871606,-81.03111147,91.36636,0,181.0735251,6.970063526,41.62619567,-9999,406396.6904,-0.116439819,0.564819336,-0.812164307,1,0.53,5
57:21.9,96,1571680641,33.99871606,-81.03111147,91.36636,0,181.0735251,6.970063526,41.62619567,-9999,406396.7304,-0.10874939,0.625640869,-0.767745972,1,0.53,5
57:22.0,97,1571680641,33.99871606,-81.03111147,91.36636,0,181.0735251,6.970063526,41.62619567,-9999,406396.7703,-0.130218506,0.660598755,-0.76789856,1,0.53,5
57:22.0,98,1571680641,33.99871606,-81.03111147,91.36636,0,181.0735251,6.970063526,41.62619567,-9999,406396.8103,-0.170257568,0.557800293,-0.792953491,1,0.53,5
57:22.0,99,1571680641,33.99871606,-81.03111147,91.36636,0,181.0735251,6.970063526,41.62619567,-9999,406396.8503,-0.172729492,0.619171143,-0.782928467,1,0.53,5
57:22.1,100,1571680641,33.99871606,-81.03111147,91.36636,0,181.0735251,6.970063526,41.62619567,-9999,406396.8903,-0.117767334,0.685638428,-0.756240845,1,0.53,5
57:22.1,101,1571680642,33.99871606,-81.03111147,91.36636,0,181.0735251,7.000949366,33.97733659,-9999,406396.9303,-0.093170166,0.652175903,-0.750335693,1,0.53,5
57:22.2,102,1571680642,33.99871606,-81.03111147,91.36636,0,181.0735251,7.000949366,33.97733659,-9999,406396.9703,-0.054412842,0.664627075,-0.773605347,1,0.53,5
57:22.2,103,1571680642,33.99871606,-81.03111147,91.36636,0,181.0735251,7.000949366,33.97733659,-9999,406397.0102,-0.050613403,0.590652466,-0.797241211,1,0.53,5
57:22.2,104,1571680642,33.99871606,-81.03111147,91.36636,0,181.0735251,7.000949366,33.97733659,-9999,406397.0502,-0.033081055,0.496551514,-0.840148926,1,0.53,5
57:22.3,105,1571680642,33.99871606,-81.03111147,91.36636,0,181.0735251,7.000949366,33.97733659,-9999,406397.0902,-0.080108643,0.629669189,-0.872268677,1,0.53,5
57:22.3,106,1571680642,33.99871606,-81.03111147,91.36636,0,181.0735251,7.000949366,33.97733659,-9999,406397.1302,-0.13092041,0.626449585,-0.79460144,1,0.53,5
57:22.4,107,1571680642,33.99871606,-81.03111147,91.36636,0,181.0735251,7.000949366,33.97733659,-9999,406397.1702,-0.13999939,0.592636108,-0.767227173,1,0.53,5
57:22.4,108,1571680642,33.99871606,-81.03111147,91.36636,0,181.0735251,7.000949366,33.97733659,-9999,406397.2102,-0.12008667,0.502365112,-0.770080566,1,0.53,5
57:22.4,109,1571680642,33.99871606,-81.03111147,91.36636,0,181.0735251,7.000949366,33.97733659,-9999,406397.2501,-0.036605835,0.735458374,-0.805633545,1,0.53,5
57:22.5,110,1571680642,33.99871606,-81.03111147,91.36636,0,181.0735251,7.000949366,33.97733659,-9999,406397.2901,-0.06930542,0.579544067,-0.811279297,1,0.53,5
57:22.5,111,1571680642,33.99871606,-81.03111147,91.36636,0,181.0735251,7.000949366,33.97733659,-9999,406397.3301,-0.078155518,0.492156982,-0.901412964,1,0.53,5
57:22.6,112,1571680642,33.99871606,-81.03111147,91.36636,0,181.0735251,7.000949366,33.97733659,-9999,406397.3701,-0.062484741,0.248748779,-0.953186035,1,0.53,5
57:22.6,113,1571680642,33.99871606,-81.03111147,91.36636,0,181.0735251,7.000949366,33.97733659,-9999,406397.4101,-0.075805664,0.287582397,-0.95892334,1,0.53,5
57:22.6,114,1571680642,33.99871606,-81.03111147,91.36636,0,181.0735251,7.000949366,33.97733659,-9999,406397.4501,-0.075912476,0.320541382,-0.947250366,1,0.53,5
57:22.7,115,1571680642,33.99871606,-81.03111147,91.36636,0,181.0735251,7.000949366,33.97733659,-9999,406397.49,-0.09286499,0.350616455,-0.915878296,1,0.53,5
57:22.7,116,1571680642,33.99871606,-81.03111147,91.36636,0,181.0735251,7.000949366,33.97733659,-9999,406397.53,-0.093582153,0.350021362,-0.935562134,1,0.53,5
57:22.8,117,1571680642,33.99871606,-81.03111147,91.36636,0,181.0735251,7.000949366,33.97733659,-9999,406397.57,-0.085083008,0.293441772,-0.943115234,1,0.53,5
57:22.8,118,1571680642,33.99871606,-81.03111147,91.36636,0,181.0735251,7.000949366,33.97733659,-9999,406397.61,-0.092071533,0.298461914,-0.960693359,1,0.53,5
57:22.8,119,1571680642,33.99871606,-81.03111147,91.36636,0,181.0735251,7.000949366,33.97733659,-9999,406397.65,-0.098739624,0.300598145,-0.929153442,1,0.53,5
57:22.9,120,1571680642,33.99871606,-81.03111147,91.36636,0,181.0735251,7.000949366,33.97733659,-9999,406397.69,-0.095581055,0.381912231,-0.942184448,1,0.53,5
57:22.9,121,1571680642,33.99871606,-81.03111147,91.36636,0,181.0735251,7.000949366,33.97733659,-9999,406397.7299,-0.083435059,0.347793579,-0.940505981,1,0.53,5
57:23.0,122,1571680642,33.99871606,-81.03111147,91.36636,0,181.0735251,7.000949366,33.97733659,-9999,406397.7699,-0.094390869,0.29914856,-0.944274902,1,0.53,5
57:23.0,123,1571680642,33.99871606,-81.03111147,91.36636,0,181.0735251,7.000949366,33.97733659,-9999,406397.8099,-0.103210449,0.31451416,-0.946182251,1,0.53,5
57:23.0,124,1571680643,33.99862469,-81.03114734,91.37427,0,181.0735251,6.812708683,28.05794935,-9999,406397.8499,-0.097595215,0.348205566,-0.946640015,1,0.53,5
57:23.1,125,1571680643,33.99862469,-81.03114734,91.37427,0,181.0735251,6.812708683,28.05794935,-9999,406397.8899,-0.102096558,0.334106445,-0.94291687,1,0.53,5
57:23.1,126,1571680643,33.99862469,-81.03114734,91.37427,0,181.0735251,6.812708683,28.05794935,-9999,406397.9299,-0.100830078,0.323791504,-0.932891846,1,0.53,5
57:23.2,127,1571680643,33.99862469,-81.03114734,91.37427,0,181.0735251,6.812708683,28.05794935,-9999,406397.9698,-0.097686768,0.341003418,-0.93309021,1,0.53,5
57:23.2,128,1571680643,33.99862469,-81.03114734,91.37427,0,181.0735251,6.812708683,28.05794935,-9999,406398.0098,-0.101303101,0.341506958,-0.935287476,1,0.53,5
57:23.2,129,1571680643,33.99862469,-81.03114734,91.37427,0,181.0735251,6.812708683,28.05794935,-9999,406398.0498,-0.099731445,0.324203491,-0.940261841,1,0.53,5
57:23.3,130,1571680643,33.99862469,-81.03114734,91.37427,0,181.0735251,6.812708683,28.05794935,-9999,406398.0898,-0.098144531,0.336166382,-0.937805176,1,0.53,5
57:23.3,131,1571680643,33.99862469,-81.03114734,91.37427,0,181.0735251,6.812708683,28.05794935,-9999,406398.1298,-0.099029541,0.310516357,-0.940032959,1,0.53,5
57:23.4,132,1571680643,33.99862469,-81.03114734,91.37427,0,181.0735251,6.812708683,28.05794935,-9999,406398.1698,-0.097106934,0.347671509,-0.932723999,1,0.53,5
57:23.4,133,1571680643,33.99862469,-81.03114734,91.37427,0,181.0735251,6.812708683,28.05794935,-9999,406398.2098,-0.100036621,0.335998535,-0.943191528,1,0.53,5
57:23.4,134,1571680643,33.99862469,-81.03114734,91.37427,0,181.0735251,6.812708683,28.05794935,-9999,406398.2497,-0.10534668,0.34487915,-0.932022095,1,0.53,5
57:23.5,135,1571680643,33.99862469,-81.03114734,91.37427,0,181.0735251,6.812708683,28.05794935,-9999,406398.2897,-0.097747803,0.326980591,-0.936981201,1,0.53,5
57:23.5,136,1571680643,33.99862469,-81.03114734,91.37427,0,181.0735251,6.812708683,28.05794935,-9999,406398.3297,-0.096389771,0.323318481,-0.935516357,1,0.53,5
57:23.6,137,1571680643,33.99862469,-81.03114734,91.37427,0,181.0735251,6.812708683,28.05794935,-9999,406398.3697,-0.093521118,0.354660034,-0.930862427,1,0.53,5
57:23.6,138,1571680643,33.99862469,-81.03114734,91.37427,0,181.0735251,6.812708683,28.05794935,-9999,406398.4097,-0.10043335,0.360366821,-0.929626465,1,0.53,5
57:23.6,139,1571680643,33.99862469,-81.03114734,91.37427,0,181.0735251,6.812708683,28.05794935,-9999,406398.4497,-0.097808838,0.356826782,-0.937530518,1,0.53,5
57:23.7,140,1571680643,33.99862469,-81.03114734,91.37427,0,181.0735251,6.812708683,28.05794935,-9999,406398.4896,-0.095230103,0.347671509,-0.935699463,1,0.53,5
57:23.7,141,1571680643,33.99862469,-81.03114734,91.37427,0,181.0735251,6.812708683,28.05794935,-9999,406398.5296,-0.096008301,0.325866699,-0.938293457,1,0.53,5
57:23.8,142,1571680643,33.99862469,-81.03114734,91.37427,0,181.0735251,6.812708683,28.05794935,-9999,406398.5696,-0.096725464,0.372192383,-0.925582886,1,0.53,5
57:23.8,143,1571680643,33.99862469,-81.03114734,91.37427,0,181.0735251,6.812708683,28.05794935,-9999,406398.6096,-0.100509644,0.343063354,-0.932403564,1,0.53,5
57:23.8,144,1571680643,33.99862469,-81.03114734,91.37427,0,181.0735251,6.812708683,28.05794935,-9999,406398.6496,-0.097732544,0.34916687,-0.931671143,1,0.53,5
57:23.9,145,1571680643,33.99862469,-81.03114734,91.37427,0,181.0735251,6.812708683,28.05794935,-9999,406398.6896,-0.097824097,0.352920532,-0.931350708,1,0.53,5
57:23.9,146,1571680643,33.99862469,-81.03114734,91.37427,0,181.0735251,6.812708683,28.05794935,-9999,406398.7295,-0.099365234,0.337600708,-0.933853149,1,0.53,5
57:24.0,147,1571680644,33.99862469,-81.03114734,91.37427,0,181.0735251,6.803673779,24.96905613,-9999,406398.7695,-0.104156494,0.364654541,-0.932342529,1,0.53,5
57:24.0,148,1571680644,33.99862469,-81.03114734,91.37427,0,181.0735251,6.803673779,24.96905613,-9999,406398.8095,-0.098083496,0.360870361,-0.931350708,1,0.53,5
57:24.0,149,1571680644,33.99862469,-81.03114734,91.37427,0,181.0735251,6.803673779,24.96905613,-9999,406398.8495,-0.095123291,0.35824585,-0.927566528,1,0.53,5
57:24.1,150,1571680644,33.99862469,-81.03114734,91.37427,0,181.0735251,6.803673779,24.96905613,-9999,406398.8895,-0.099807739,0.357833862,-0.929916382,1,0.53,5
57:24.1,151,1571680644,33.99862469,-81.03114734,91.37427,0,181.0735251,6.803673779,24.96905613,-9999,406398.9295,-0.107086182,0.365646362,-0.926147461,1,0.53,5
57:24.2,152,1571680644,33.99862469,-81.03114734,91.37427,0,181.0735251,6.803673779,24.96905613,-9999,406398.9694,-0.104660034,0.343353271,-0.932647705,1,0.53,5
57:24.2,153,1571680644,33.99862469,-81.03114734,91.37427,0,181.0735251,6.803673779,24.96905613,-9999,406399.0094,-0.106231689,0.368453979,-0.929275513,1,0.53,5
57:24.2,154,1571680644,33.99862469,-81.03114734,91.37427,0,181.0735251,6.803673779,24.96905613,-9999,406399.0494,-0.099609375,0.356246948,-0.928863525,1,0.53,5
57:24.3,155,1571680644,33.99862469,-81.03114734,91.37427,0,181.0735251,6.803673779,24.96905613,-9999,406399.0894,-0.097686768,0.347198486,-0.935012817,1,0.53,5
57:24.3,156,1571680644,33.99862469,-81.03114734,91.37427,0,181.0735251,6.803673779,24.96905613,-9999,406399.1294,-0.101409912,0.369720459,-0.923034668,1,0.53,5
57:24.4,157,1571680644,33.99862469,-81.03114734,91.37427,0,181.0735251,6.803673779,24.96905613,-9999,406399.1694,-0.102737427,0.351028442,-0.929626465,1,0.53,5
57:24.4,158,1571680644,33.99862469,-81.03114734,91.37427,0,181.0735251,6.803673779,24.96905613,-9999,406399.2093,-0.099868774,0.357437134,-0.929550171,1,0.53,5
57:24.4,159,1571680644,33.99862469,-81.03114734,91.37427,0,181.0735251,6.803673779,24.96905613,-9999,406399.2493,-0.102737427,0.357543945,-0.924484253,1,0.53,5
57:24.5,160,1571680644,33.99862469,-81.03114734,91.37427,0,181.0735251,6.803673779,24.96905613,-9999,406399.2893,-0.10105896,0.351013184,-0.928085327,1,0.53,5
57:24.5,161,1571680644,33.99862469,-81.03114734,91.37427,0,181.0735251,6.803673779,24.96905613,-9999,406399.3293,-0.100952148,0.365188599,-0.92868042,1,0.53,5
57:24.6,162,1571680644,33.99862469,-81.03114734,91.37427,0,181.0735251,6.803673779,24.96905613,-9999,406399.3693,-0.101852417,0.360733032,-0.930419922,1,0.53,5
