loggingTime(txt),accelerometerTimestamp_sinceReboot(s),accelerometerAccelerationX(G),accelerometerAccelerationY(G),accelerometerAccelerationZ(G),batteryState,batteryLevel
2020-05-17 18:50:21.859 -0400,33947.32219475,-0.024566650390625,0.0614013671875,-0.7540740966796875,1,0.51
2020-05-17 18:50:21.877 -0400,33947.36210675,-0.0350189208984375,0.0517730712890625,-0.748809814453125,1,0.51
2020-05-17 18:50:21.917 -0400,33947.40201675,-0.0179443359375,0.0424346923828125,-0.7619171142578125,1,0.51
2020-05-17 18:50:21.957 -0400,33947.44192875,-0.03009033203125,0.0335235595703125,-0.80841064453125,1,0.51
2020-05-17 18:50:21.997 -0400,33947.48183875001,-0.0667724609375,0.05975341796875,-0.8594970703125,1,0.51
2020-05-17 18:50:22.037 -0400,33947.52174775,-0.0839996337890625,0.0865936279296875,-0.91064453125,1,0.51
2020-05-17 18:50:22.077 -0400,33947.56165575,-0.1029510498046875,0.1261138916015625,-1.00433349609375,1,0.51
2020-05-17 18:50:22.117 -0400,33947.60156575,0.09893798828125,0.240234375,-1.108856201171875,1,0.51
2020-05-17 18:50:22.157 -0400,33947.64147475,0.0321044921875,0.27191162109375,-1.323211669921875,1,0.51
2020-05-17 18:50:22.207 -0400,33947.68138275,0.104583740234375,0.2354736328125,-1.212051391601562,1,0.51
2020-05-17 18:50:22.237 -0400,33947.7212925,-0.094573974609375,0.2846527099609375,-1.086196899414062,1,0.51
2020-05-17 18:50:22.277 -0400,33947.7612015,-0.0035858154296875,0.2910919189453125,-1.062728881835938,1,0.51
2020-05-17 18:50:22.317 -0400,33947.8011125,0.1815032958984375,0.2929229736328125,-0.97802734375,1,0.51
2020-05-17 18:50:22.356 -0400,33947.8410225,0.1456146240234375,0.19573974609375,-0.884857177734375,1,0.51
2020-05-17 18:50:22.396 -0400,33947.8809305,0.142303466796875,0.1525726318359375,-0.723419189453125,1,0.51
2020-05-17 18:50:22.436 -0400,33947.9208385,0.2531280517578125,0.3936920166015625,-0.7082672119140625,1,0.51
2020-05-17 18:50:22.476 -0400,33947.9607515,0.264556884765625,0.3607635498046875,-0.6011199951171875,1,0.51
2020-05-17 18:50:22.516 -0400,33948.0006625,0.2400665283203125,0.256683349609375,-0.5716552734375,1,0.51
2020-05-17 18:50:22.556 -0400,33948.0405725,0.282501220703125,0.2572479248046875,-0.568817138671875,1,0.51
2020-05-17 18:50:22.596 -0400,33948.0804825,0.3902130126953125,0.319732666015625,-0.5310516357421875,1,0.51
2020-05-17 18:50:22.636 -0400,33948.1203925,0.470062255859375,0.2545318603515625,-0.566802978515625,1,0.51
2020-05-17 18:50:22.676 -0400,33948.1603045,0.6520843505859375,0.5041046142578125,-0.6788482666015625,1,0.51
2020-05-17 18:50:22.716 -0400,33948.2002145,0.9488067626953125,0.542816162109375,-0.6697998046875,1,0.51
2020-05-17 18:50:22.755 -0400,33948.2401255,0.9818115234375,0.43560791015625,-0.5948486328125,1,0.51
2020-05-17 18:50:22.795 -0400,33948.2800375,1.044464111328125,0.56951904296875,-0.5943756103515625,1,0.51
2020-05-17 18:50:22.837 -0400,33948.3199465,1.121414184570312,0.6861114501953125,-0.5926513671875,1,0.51
2020-05-17 18:50:22.875 -0400,33948.3598575,1.205520629882812,0.6294708251953125,-0.5089263916015625,1,0.51
2020-05-17 18:50:22.915 -0400,33948.3997665,1.15911865234375,0.5171661376953125,-0.3581695556640625,1,0.51
2020-05-17 18:50:22.955 -0400,33948.43967550001,0.974456787109375,0.4343719482421875,-0.3105010986328125,1,0.51
2020-05-17 18:50:22.995 -0400,33948.4795855,0.878692626953125,0.4438934326171875,-0.3480224609375,1,0.51
2020-05-17 18:50:23.035 -0400,33948.5194945,0.7871856689453125,0.482452392578125,-0.250640869140625,1,0.51
2020-05-17 18:50:23.075 -0400,33948.5594045,0.710601806640625,0.5457305908203125,-0.212127685546875,1,0.51
2020-05-17 18:50:23.115 -0400,33948.5993155,0.6966094970703125,0.5281219482421875,-0.2544403076171875,1,0.51
2020-05-17 18:50:23.155 -0400,33948.6392255,0.767913818359375,0.428680419921875,-0.2245025634765625,1,0.51
2020-05-17 18:50:23.208 -0400,33948.6791375,0.907867431640625,0.466064453125,-0.193634033203125,1,0.51
2020-05-17 18:50:23.234 -0400,33948.7190485,0.94244384765625,0.4255828857421875,-0.1558837890625,1,0.51
2020-05-17 18:50:23.274 -0400,33948.75895941667,0.98748779296875,0.4003753662109375,-0.1423187255859375,1,0.51
2020-05-17 18:50:23.314 -0400,33948.79886741667,1.2366943359375,0.5155792236328125,-0.1572418212890625,1,0.51
2020-05-17 18:50:23.354 -0400,33948.83877641667,1.13360595703125,0.5171356201171875,-0.1966552734375,1,0.51
2020-05-17 18:50:23.394 -0400,33948.87868641667,1.148544311523438,0.5629425048828125,-0.0980987548828125,1,0.51
2020-05-17 18:50:23.434 -0400,33948.91859641667,1.277587890625,0.7503814697265625,-0.1126251220703125,1,0.51
2020-05-17 18:50:23.474 -0400,33948.95850841667,1.207794189453125,0.557373046875,-0.019927978515625,1,0.51
2020-05-17 18:50:23.514 -0400,33948.99841641667,1.177658081054688,0.518707275390625,-0.10125732421875,1,0.51
2020-05-17 18:50:23.554 -0400,33949.03832641667,1.077484130859375,0.4577789306640625,-0.0235595703125,1,0.51
2020-05-17 18:50:23.594 -0400,33949.07823641667,1.02294921875,0.382781982421875,0.022552490234375,1,0.51
2020-05-17 18:50:23.633 -0400,33949.11814741667,1.035430908203125,0.36627197265625,0.018524169921875,1,0.51
2020-05-17 18:50:23.673 -0400,33949.15805841667,1.048080444335938,0.320770263671875,0.05926513671875,1,0.51
2020-05-17 18:50:23.713 -0400,33949.19796841667,0.99658203125,0.31475830078125,0.0640716552734375,1,0.51
2020-05-17 18:50:23.753 -0400,33949.23787941667,1.123001098632812,0.3543853759765625,0.040130615234375,1,0.51
2020-05-17 18:50:23.793 -0400,33949.27779241667,1.402786254882812,0.42254638671875,-0.00628662109375,1,0.51
2020-05-17 18:50:23.833 -0400,33949.31770441667,1.417495727539062,0.425079345703125,-0.091094970703125,1,0.51
2020-05-17 18:50:23.873 -0400,33949.35761241667,1.194732666015625,0.312774658203125,-0.1893463134765625,1,0.51
2020-05-17 18:50:23.913 -0400,33949.39751741667,0.8908233642578125,0.3783416748046875,-0.5183258056640625,1,0.51
2020-05-17 18:50:23.953 -0400,33949.43742441667,0.785491943359375,0.0358734130859375,-0.372955322265625,1,0.51
2020-05-17 18:50:23.993 -0400,33949.47733241667,0.843719482421875,0.1114501953125,-0.2599945068359375,1,0.51
2020-05-17 18:50:24.032 -0400,33949.51723941667,0.8427886962890625,0.11553955078125,-0.46246337890625,1,0.51
2020-05-17 18:50:24.072 -0400,33949.55714641667,0.7061767578125,0.0806732177734375,-0.4351043701171875,1,0.51
2020-05-17 18:50:24.112 -0400,33949.59705341667,0.6213531494140625,0.1693878173828125,-0.474365234375,1,0.51
2020-05-17 18:50:24.152 -0400,33949.63696041667,0.52032470703125,0.191986083984375,-0.371978759765625,1,0.51
2020-05-17 18:50:24.192 -0400,33949.67686941667,0.4597625732421875,0.203826904296875,-0.3559112548828125,1,0.51
2020-05-17 18:50:24.233 -0400,33949.71677641667,0.4429168701171875,0.1917266845703125,-0.374481201171875,1,0.51
2020-05-17 18:50:24.272 -0400,33949.756684375,0.52154541015625,0.177490234375,-0.3526458740234375,1,0.51
2020-05-17 18:50:24.312 -0400,33949.796591375,0.8587493896484375,0.23248291015625,-0.35406494140625,1,0.51
2020-05-17 18:50:24.352 -0400,33949.836499375,1.3016357421875,0.248016357421875,-0.37078857421875,1,0.51
2020-05-17 18:50:24.392 -0400,33949.876407375,2.06005859375,0.241424560546875,-0.41217041015625,1,0.51
2020-05-17 18:50:24.432 -0400,33949.91631537501,2.307479858398438,0.247711181640625,-0.3543548583984375,1,0.51
2020-05-17 18:50:24.471 -0400,33949.956225375,2.03399658203125,0.3048858642578125,-0.5901641845703125,1,0.51
2020-05-17 18:50:24.511 -0400,33949.996137375,1.2001953125,0.34320068359375,-0.409515380859375,1,0.51
2020-05-17 18:50:24.551 -0400,33950.036046375,0.4891510009765625,0.3957061767578125,-0.1256103515625,1,0.51
2020-05-17 18:50:24.591 -0400,33950.075954375,0.620391845703125,0.412933349609375,0.0374298095703125,1,0.51
2020-05-17 18:50:24.631 -0400,33950.115864375,0.87200927734375,0.4201812744140625,-0.0088653564453125,1,0.51
2020-05-17 18:50:24.671 -0400,33950.155773375,1.105865478515625,0.44512939453125,0.018463134765625,1,0.51
2020-05-17 18:50:24.711 -0400,33950.195682375,0.9945831298828125,0.3478240966796875,-0.0589447021484375,1,0.51
2020-05-17 18:50:24.751 -0400,33950.235589375,0.8474884033203125,0.3467254638671875,-0.074615478515625,1,0.51
2020-05-17 18:50:24.791 -0400,33950.27549737501,0.7776641845703125,0.4018707275390625,-0.0752716064453125,1,0.51
2020-05-17 18:50:24.831 -0400,33950.315407375,0.732574462890625,0.3668060302734375,-0.0507965087890625,1,0.51
2020-05-17 18:50:24.871 -0400,33950.355315375,0.682708740234375,0.381683349609375,0.0071868896484375,1,0.51
2020-05-17 18:50:24.910 -0400,33950.395223375,0.742950439453125,0.40960693359375,-0.1025848388671875,1,0.51
2020-05-17 18:50:24.950 -0400,33950.435131375,0.9492950439453125,0.4882965087890625,-0.1883392333984375,1,0.51
2020-05-17 18:50:24.990 -0400,33950.475039375,1.283737182617188,0.5794219970703125,-0.24169921875,1,0.51
2020-05-17 18:50:25.030 -0400,33950.514946375,1.491470336914062,0.59454345703125,-0.2835845947265625,1,0.51
2020-05-17 18:50:25.070 -0400,33950.554853375,1.576461791992188,0.62799072265625,-0.32086181640625,1,0.51
2020-05-17 18:50:25.110 -0400,33950.594761375,1.362213134765625,0.560302734375,-0.3653564453125,1,0.51
2020-05-17 18:50:25.150 -0400,33950.634670375,1.138153076171875,0.28826904296875,-0.230560302734375,1,0.51
2020-05-17 18:50:25.190 -0400,33950.674579375,0.9405364990234375,0.1284637451171875,-0.2725067138671875,1,0.51
2020-05-17 18:50:25.230 -0400,33950.714487375,0.9176788330078125,0.04779052734375,-0.1621246337890625,1,0.51
2020-05-17 18:50:25.270 -0400,33950.7543955,0.9534149169921875,0.093109130859375,-0.0906829833984375,1,0.51
2020-05-17 18:50:25.310 -0400,33950.79430150001,0.7569427490234375,0.1561126708984375,-0.071563720703125,1,0.51
2020-05-17 18:50:25.359 -0400,33950.8342105,0.6764068603515625,0.15692138671875,-0.09246826171875,1,0.51
2020-05-17 18:50:25.390 -0400,33950.8741205,0.604339599609375,0.2875823974609375,-0.1880340576171875,1,0.51
2020-05-17 18:50:25.429 -0400,33950.9140325,0.49993896484375,0.3310089111328125,-0.2567596435546875,1,0.51
2020-05-17 18:50:25.469 -0400,33950.9539425,0.4127655029296875,0.282989501953125,-0.176025390625,1,0.51
2020-05-17 18:50:25.509 -0400,33950.9938505,0.425994873046875,0.3110809326171875,-0.16802978515625,1,0.51
2020-05-17 18:50:25.549 -0400,33951.0337575,0.433013916015625,0.3021697998046875,-0.1702880859375,1,0.51
2020-05-17 18:50:25.589 -0400,33951.0736635,0.7540435791015625,0.305999755859375,-0.2728118896484375,1,0.51
2020-05-17 18:50:25.629 -0400,33951.1135725,1.245956420898438,0.2818145751953125,-0.4104461669921875,1,0.51
2020-05-17 18:50:25.669 -0400,33951.1534805,1.946243286132812,0.245452880859375,-0.4520263671875,1,0.51
2020-05-17 18:50:25.709 -0400,33951.1933915,2.264373779296875,0.2503814697265625,-0.533660888671875,1,0.51
2020-05-17 18:50:25.749 -0400,33951.2333035,1.901382446289062,0.3355560302734375,-0.6267547607421875,1,0.51
2020-05-17 18:50:25.788 -0400,33951.2732145,1.307937622070312,0.297271728515625,-0.5756683349609375,1,0.51
2020-05-17 18:50:25.828 -0400,33951.3131255,0.8683013916015625,0.3859405517578125,-0.3157806396484375,1,0.51
2020-05-17 18:50:25.868 -0400,33951.3530335,0.789794921875,0.36077880859375,-0.068634033203125,1,0.51
2020-05-17 18:50:25.908 -0400,33951.3929415,0.86944580078125,0.33282470703125,-0.2403411865234375,1,0.51
2020-05-17 18:50:25.948 -0400,33951.4328495,1.012557983398438,0.3523101806640625,-0.29364013671875,1,0.51
2020-05-17 18:50:25.988 -0400,33951.4727595,1.072311401367188,0.3930816650390625,-0.1361236572265625,1,0.51
2020-05-17 18:50:26.028 -0400,33951.5126695,0.996185302734375,0.33721923828125,0.025634765625,1,0.51
2020-05-17 18:50:26.068 -0400,33951.5525775,0.828460693359375,0.298095703125,-0.0915374755859375,1,0.51
2020-05-17 18:50:26.108 -0400,33951.5924855,0.697540283203125,0.215118408203125,-0.1674957275390625,1,0.51
2020-05-17 18:50:26.148 -0400,33951.6323935,0.637420654296875,0.329376220703125,-0.1239471435546875,1,0.51
2020-05-17 18:50:26.188 -0400,33951.6723035,0.820281982421875,0.4049072265625,-0.160614013671875,1,0.51
2020-05-17 18:50:26.227 -0400,33951.7122125,1.189971923828125,0.42779541015625,-0.2234649658203125,1,0.51
2020-05-17 18:50:26.267 -0400,33951.752122375,1.493698120117188,0.44207763671875,-0.3031005859375,1,0.51
2020-05-17 18:50:26.307 -0400,33951.792034375,1.535232543945312,0.35760498046875,-0.30517578125,1,0.51
2020-05-17 18:50:26.347 -0400,33951.831946375,1.338607788085938,0.38494873046875,-0.288818359375,1,0.51
2020-05-17 18:50:26.387 -0400,33951.871857375,1.114990234375,0.4077911376953125,-0.315765380859375,1,0.51
2020-05-17 18:50:26.427 -0400,33951.911765375,0.9192047119140625,0.1567230224609375,-0.170135498046875,1,0.51
2020-05-17 18:50:26.467 -0400,33951.951675375,0.9110870361328125,0.0706787109375,-0.1295013427734375,1,0.51
2020-05-17 18:50:26.507 -0400,33951.991584375,1.035018920898438,0.1831512451171875,-0.091888427734375,1,0.51
2020-05-17 18:50:26.547 -0400,33952.03149337501,0.968597412109375,0.1627655029296875,-0.1546173095703125,1,0.51
2020-05-17 18:50:26.587 -0400,33952.071400375,0.86871337890625,0.102630615234375,-0.1730499267578125,1,0.51
2020-05-17 18:50:26.627 -0400,33952.111307375,0.826873779296875,0.2415313720703125,-0.2404022216796875,1,0.51
2020-05-17 18:50:26.666 -0400,33952.151213375,0.782073974609375,0.287750244140625,-0.2975311279296875,1,0.51
2020-05-17 18:50:26.706 -0400,33952.19111937501,0.65667724609375,0.290863037109375,-0.2900390625,1,0.51
2020-05-17 18:50:26.746 -0400,33952.231026375,0.58929443359375,0.2977752685546875,-0.2660064697265625,1,0.51
2020-05-17 18:50:26.786 -0400,33952.270933375,0.5836334228515625,0.2903594970703125,-0.271728515625,1,0.51
2020-05-17 18:50:26.826 -0400,33952.310840375,0.6513214111328125,0.3049468994140625,-0.29638671875,1,0.51
2020-05-17 18:50:26.866 -0400,33952.350746375,1.059005737304688,0.3725128173828125,-0.510284423828125,1,0.51
2020-05-17 18:50:26.906 -0400,33952.39065337501,1.857574462890625,0.40374755859375,-0.5429229736328125,1,0.51
2020-05-17 18:50:26.946 -0400,33952.430564375,2.105560302734375,0.3415985107421875,-0.6012420654296875,1,0.51
2020-05-17 18:50:26.986 -0400,33952.470473375,1.758636474609375,0.2498321533203125,-0.5914764404296875,1,0.51
2020-05-17 18:50:27.026 -0400,33952.510383375,1.189743041992188,0.322601318359375,-0.6052093505859375,1,0.51
2020-05-17 18:50:27.066 -0400,33952.550296375,1.198348999023438,0.158050537109375,-0.0352630615234375,1,0.51
2020-05-17 18:50:27.105 -0400,33952.590206375,0.9046783447265625,0.279754638671875,0.0712127685546875,1,0.51
2020-05-17 18:50:27.145 -0400,33952.630118375,1.003143310546875,0.2588653564453125,-0.06378173828125,1,0.51
2020-05-17 18:50:27.185 -0400,33952.670029375,0.9864654541015625,0.39404296875,-0.2537994384765625,1,0.51
2020-05-17 18:50:27.225 -0400,33952.709939375,0.900787353515625,0.4665679931640625,-0.0729217529296875,1,0.51
2020-05-17 18:50:27.265 -0400,33952.749848375,0.83111572265625,0.4064178466796875,0.0814361572265625,1,0.51
2020-05-17 18:50:27.308 -0400,33952.789757375,0.7489471435546875,0.3831024169921875,0.010955810546875,1,0.51
2020-05-17 18:50:27.345 -0400,33952.829668375,0.69976806640625,0.3000030517578125,-0.041778564453125,1,0.51
2020-05-17 18:50:27.385 -0400,33952.869577375,0.6567840576171875,0.296112060546875,-0.050567626953125,1,0.51
2020-05-17 18:50:27.425 -0400,33952.90948237501,0.695556640625,0.367523193359375,-0.039306640625,1,0.51
2020-05-17 18:50:27.465 -0400,33952.949390375,0.9286651611328125,0.4468994140625,-0.125701904296875,1,0.51
2020-05-17 18:50:27.505 -0400,33952.989297375,1.233108520507812,0.488677978515625,-0.25592041015625,1,0.51
2020-05-17 18:50:27.544 -0400,33953.029207375,1.51971435546875,0.4573211669921875,-0.3310089111328125,1,0.51
2020-05-17 18:50:27.584 -0400,33953.069115375,1.635757446289062,0.4018402099609375,-0.3096923828125,1,0.51
2020-05-17 18:50:27.624 -0400,33953.109025375,1.509185791015625,0.40814208984375,-0.340362548828125,1,0.51
2020-05-17 18:50:27.664 -0400,33953.148932375,1.27862548828125,0.200439453125,-0.3364410400390625,1,0.51
2020-05-17 18:50:27.704 -0400,33953.188842375,1.142990112304688,0.1022796630859375,-0.183135986328125,1,0.51
2020-05-17 18:50:27.744 -0400,33953.228748375,1.026138305664062,0.2070770263671875,-0.1345977783203125,1,0.51
2020-05-17 18:50:27.784 -0400,33953.268657375,1.024383544921875,0.184814453125,-0.208770751953125,1,0.51
2020-05-17 18:50:27.824 -0400,33953.308565375,0.8103790283203125,0.141326904296875,-0.240478515625,1,0.51
2020-05-17 18:50:27.864 -0400,33953.348474375,0.5963897705078125,0.1388702392578125,-0.1561126708984375,1,0.51
2020-05-17 18:50:27.904 -0400,33953.388383375,0.548675537109375,0.261474609375,-0.2216644287109375,1,0.51
2020-05-17 18:50:27.944 -0400,33953.428293375,0.5689849853515625,0.3147125244140625,-0.1843414306640625,1,0.51
2020-05-17 18:50:27.985 -0400,33953.468202375,0.5930023193359375,0.352386474609375,-0.14312744140625,1,0.51
2020-05-17 18:50:28.023 -0400,33953.508114375,0.699066162109375,0.380950927734375,-0.1775054931640625,1,0.51
2020-05-17 18:50:28.063 -0400,33953.548025375,0.947906494140625,0.3981781005859375,-0.2668914794921875,1,0.51
2020-05-17 18:50:28.103 -0400,33953.58793337501,1.262374877929688,0.5503387451171875,-0.4386749267578125,1,0.51
2020-05-17 18:50:28.143 -0400,33953.62784437501,1.611541748046875,0.577484130859375,-0.4805450439453125,1,0.51
2020-05-17 18:50:28.183 -0400,33953.667753375,1.76641845703125,0.5750274658203125,-0.6080474853515625,1,0.51
2020-05-17 18:50:28.223 -0400,33953.707664375,1.294387817382812,0.3875885009765625,-0.4807586669921875,1,0.51
2020-05-17 18:50:28.263 -0400,33953.74757375,1.021377563476562,0.4274444580078125,-0.658203125,1,0.51
2020-05-17 18:50:28.303 -0400,33953.78748375,1.175979614257812,0.263336181640625,-0.1886749267578125,1,0.51
2020-05-17 18:50:28.343 -0400,33953.82739675,1.407608032226562,0.387725830078125,-0.2224578857421875,1,0.51
2020-05-17 18:50:28.383 -0400,33953.86730975,1.759521484375,0.337799072265625,-0.1726531982421875,1,0.51
2020-05-17 18:50:28.423 -0400,33953.90722275,1.680648803710938,0.48663330078125,-0.093994140625,1,0.51
2020-05-17 18:50:28.462 -0400,33953.94713375,1.50579833984375,0.477569580078125,-0.006988525390625,1,0.51
2020-05-17 18:50:28.502 -0400,33953.98704475,1.239883422851562,0.1936798095703125,-0.173553466796875,1,0.51
2020-05-17 18:50:28.542 -0400,33954.02695475,0.8739166259765625,0.163665771484375,-0.2518768310546875,1,0.51
2020-05-17 18:50:28.582 -0400,33954.06686675,0.6209259033203125,0.08660888671875,-0.1681365966796875,1,0.51
2020-05-17 18:50:28.622 -0400,33954.10677675,0.446258544921875,0.08203125,-0.1637420654296875,1,0.51
2020-05-17 18:50:28.662 -0400,33954.14668575001,0.3197174072265625,0.0402984619140625,-0.1971893310546875,1,0.51
2020-05-17 18:50:28.702 -0400,33954.18659375,0.25189208984375,-0.0898590087890625,-0.243927001953125,1,0.51
2020-05-17 18:50:28.742 -0400,33954.22650275,0.1792144775390625,-0.1495361328125,-0.25775146484375,1,0.51
2020-05-17 18:50:28.782 -0400,33954.26640975,0.1436767578125,-0.0946502685546875,-0.4429931640625,1,0.51
2020-05-17 18:50:28.822 -0400,33954.30631875,0.165924072265625,-0.1147613525390625,-0.7042388916015625,1,0.51
2020-05-17 18:50:28.864 -0400,33954.34622575,0.2133331298828125,-0.1592254638671875,-0.918182373046875,1,0.51
2020-05-17 18:50:28.901 -0400,33954.38613275001,0.115631103515625,-0.137481689453125,-0.9533233642578125,1,0.51
2020-05-17 18:50:28.941 -0400,33954.42603975,0.0800628662109375,-0.1468048095703125,-1.154327392578125,1,0.51
2020-05-17 18:50:28.981 -0400,33954.46594775,0.0614471435546875,-0.103546142578125,-1.216934204101562,1,0.51
2020-05-17 18:50:29.021 -0400,33954.50585875,0.280548095703125,-0.049224853515625,-1.299453735351562,1,0.51
2020-05-17 18:50:29.061 -0400,33954.54576575,0.3286285400390625,0.0001068115234375,-1.158798217773438,1,0.51
2020-05-17 18:50:29.101 -0400,33954.58567275,0.3034820556640625,-0.0019683837890625,-1.051406860351562,1,0.51
2020-05-17 18:50:29.141 -0400,33954.62558075001,0.1978759765625,0.0203399658203125,-1.0089111328125,1,0.51
2020-05-17 18:50:29.181 -0400,33954.66548875,0.1538848876953125,0.01116943359375,-0.923675537109375,1,0.51
2020-05-17 18:50:29.221 -0400,33954.70539775,0.1142730712890625,-0.007568359375,-0.8334197998046875,1,0.51
2020-05-17 18:50:29.261 -0400,33954.7453065,0.06451416015625,-0.049468994140625,-0.8226776123046875,1,0.51
2020-05-17 18:50:29.300 -0400,33954.7852165,-0.0388946533203125,-0.068756103515625,-0.76580810546875,1,0.51
2020-05-17 18:50:29.340 -0400,33954.8251245,-0.019500732421875,-0.1008758544921875,-0.9100341796875,1,0.51
