loggingTime(txt),accelerometerTimestamp_sinceReboot(s),accelerometerAccelerationX(G),accelerometerAccelerationY(G),accelerometerAccelerationZ(G),batteryState,batteryLevel
2020-05-16 12:07:46.707 -0400,9316.61076175,0.090667724609375,0.08428955078125,-1.316619873046875,1,0.99
2020-05-16 12:07:46.827 -0400,9316.73048475,0.1224212646484375,0.0887451171875,-0.8463287353515625,1,0.99
2020-05-16 12:07:46.947 -0400,9316.85020375,0.217376708984375,0.044708251953125,-0.4423065185546875,1,0.99
2020-05-16 12:07:47.067 -0400,9316.969918750001,0.5681610107421875,0.2988433837890625,-0.4766998291015625,1,0.99
2020-05-16 12:07:47.186 -0400,9317.089635750001,1.675552368164062,0.5333709716796875,-0.332733154296875,1,0.99
2020-05-16 12:07:47.306 -0400,9317.209349750001,1.145431518554688,0.9160919189453125,-0.4426422119140625,1,0.99
2020-05-16 12:07:47.426 -0400,9317.329061750001,0.729095458984375,0.3525390625,-0.131927490234375,1,0.99
2020-05-16 12:07:47.566 -0400,9317.468725750001,0.3277740478515625,0.4940032958984375,-0.1192626953125,1,0.99
2020-05-16 12:07:47.639 -0400,9317.53855675,0.6403045654296875,0.4481353759765625,-0.2998504638671875,1,0.99
2020-05-16 12:07:47.705 -0400,9317.608389750001,1.310226440429688,0.4611358642578125,-0.3938751220703125,1,0.99
2020-05-16 12:07:47.775 -0400,9317.67822575,1.597793579101562,0.5384063720703125,-0.6443328857421875,1,0.99
2020-05-16 12:07:47.845 -0400,9317.74805975,1.225051879882812,0.2698822021484375,-0.41937255859375,1,0.99
2020-05-16 12:07:47.914 -0400,9317.817892750001,1.190948486328125,0.2259674072265625,-0.1624603271484375,1,0.99
2020-05-16 12:07:47.984 -0400,9317.88772875,0.74603271484375,0.2870941162109375,-0.2481231689453125,1,0.99
2020-05-16 12:07:48.054 -0400,9317.95756275,0.4758148193359375,0.380645751953125,-0.234619140625,1,0.99
2020-05-16 12:07:48.124 -0400,9318.02739775,0.4344482421875,0.323699951171875,-0.095062255859375,1,0.99
2020-05-16 12:07:48.194 -0400,9318.097234750001,0.72900390625,0.2672882080078125,-0.0888671875,1,0.99
2020-05-16 12:07:48.264 -0400,9318.16707075,1.048812866210938,0.337646484375,-0.1807708740234375,1,0.99
2020-05-16 12:07:48.334 -0400,9318.236903750001,1.369369506835938,0.4063568115234375,-0.2041168212890625,1,0.99
2020-05-16 12:07:48.403 -0400,9318.30673475,1.305191040039062,0.532135009765625,-0.56201171875,1,0.99
2020-05-16 12:07:48.473 -0400,9318.376571750001,1.090316772460938,0.32275390625,-0.1757049560546875,1,0.99
2020-05-16 12:07:48.543 -0400,9318.446405750001,0.5685577392578125,0.25506591796875,-0.27789306640625,1,0.99
2020-05-16 12:07:48.613 -0400,9318.516241750001,0.439666748046875,0.4241180419921875,-0.1541748046875,1,0.99
2020-05-16 12:07:48.683 -0400,9318.58607675,0.7378082275390625,0.569305419921875,-0.22552490234375,1,0.99
2020-05-16 12:07:48.752 -0400,9318.655913375,1.158843994140625,0.641998291015625,-0.4910430908203125,1,0.99
2020-05-16 12:07:48.822 -0400,9318.725746375001,1.731948852539062,0.56024169921875,-0.480133056640625,1,0.99
2020-05-16 12:07:48.892 -0400,9318.795579375001,1.216049194335938,0.4312896728515625,-0.33203125,1,0.99
2020-05-16 12:07:48.962 -0400,9318.865407375,1.132766723632812,0.4228515625,-0.2249908447265625,1,0.99
2020-05-16 12:07:49.032 -0400,9318.935236375,0.839111328125,0.3751678466796875,-0.18731689453125,1,0.99
2020-05-16 12:07:49.102 -0400,9319.005069375,0.535400390625,0.31707763671875,-0.11749267578125,1,0.99
2020-05-16 12:07:49.172 -0400,9319.074896375001,0.6181793212890625,0.35986328125,-0.065338134765625,1,0.99
2020-05-16 12:07:49.241 -0400,9319.144723375,1.201492309570312,0.3146209716796875,-0.04437255859375,1,0.99
2020-05-16 12:07:49.312 -0400,9319.214553375001,1.197479248046875,0.2202606201171875,-0.0069580078125,1,0.99
2020-05-16 12:07:49.381 -0400,9319.284384375,1.12762451171875,0.4241790771484375,-0.1907196044921875,1,0.99
2020-05-16 12:07:49.451 -0400,9319.354218375001,0.917510986328125,0.4933319091796875,-0.36090087890625,1,0.99
2020-05-16 12:07:49.521 -0400,9319.424054375,1.081985473632812,0.3443450927734375,-0.274139404296875,1,0.99
2020-05-16 12:07:49.590 -0400,9319.493889375,0.700592041015625,0.2640380859375,-0.3737335205078125,1,0.99
2020-05-16 12:07:49.660 -0400,9319.563721375,0.482147216796875,0.3595123291015625,-0.2872467041015625,1,0.99
2020-05-16 12:07:49.730 -0400,9319.6335535,0.6498565673828125,0.41754150390625,-0.3005218505859375,1,0.99
2020-05-16 12:07:49.800 -0400,9319.7033875,1.062942504882812,0.477935791015625,-0.4156494140625,1,0.99
2020-05-16 12:07:49.870 -0400,9319.7732225,1.254623413085938,0.504913330078125,-0.4622039794921875,1,0.99
2020-05-16 12:07:49.939 -0400,9319.8430575,1.3846435546875,0.598388671875,-0.4785614013671875,1,0.99
2020-05-16 12:07:50.009 -0400,9319.9128905,1.069503784179688,0.4834747314453125,-0.39678955078125,1,0.99
2020-05-16 12:07:50.079 -0400,9319.9827265,1.349365234375,0.303802490234375,-0.13275146484375,1,0.99
2020-05-16 12:07:50.149 -0400,9320.0525645,0.7268524169921875,0.322906494140625,-0.2063751220703125,1,0.99
2020-05-16 12:07:50.219 -0400,9320.122403500001,0.41015625,0.352752685546875,-0.0982208251953125,1,0.99
2020-05-16 12:07:50.289 -0400,9320.1922395,0.4801177978515625,0.3409423828125,-0.040313720703125,1,0.99
2020-05-16 12:07:50.359 -0400,9320.262077500001,1.16046142578125,0.311798095703125,-0.053375244140625,1,0.99
2020-05-16 12:07:50.428 -0400,9320.3319135,1.051712036132812,0.283477783203125,-0.106048583984375,1,0.99
2020-05-16 12:07:50.498 -0400,9320.4017475,1.024932861328125,0.38775634765625,-0.1283416748046875,1,0.99
2020-05-16 12:07:50.568 -0400,9320.4715815,1.290664672851562,0.5358123779296875,-0.456390380859375,1,0.99
2020-05-16 12:07:50.638 -0400,9320.5414155,0.9936981201171875,0.3385772705078125,-0.29571533203125,1,0.99
2020-05-16 12:07:50.708 -0400,9320.611250791668,0.4560394287109375,0.2570953369140625,-0.28790283203125,1,0.99
2020-05-16 12:07:50.778 -0400,9320.681086791667,0.506195068359375,0.472320556640625,-0.2578887939453125,1,0.99
2020-05-16 12:07:50.847 -0400,9320.750921791667,0.8317108154296875,0.53204345703125,-0.3632354736328125,1,0.99
2020-05-16 12:07:50.917 -0400,9320.820759791668,1.093734741210938,0.525299072265625,-0.4555816650390625,1,0.99
2020-05-16 12:07:50.987 -0400,9320.890600791667,1.623321533203125,0.6077880859375,-0.4802703857421875,1,0.99
2020-05-16 12:07:51.057 -0400,9320.960441791667,1.356903076171875,0.591552734375,-0.440765380859375,1,0.99
2020-05-16 12:07:51.127 -0400,9321.030277791668,1.31573486328125,0.402008056640625,-0.2045440673828125,1,0.99
2020-05-16 12:07:51.197 -0400,9321.100112791668,0.7825164794921875,0.2916412353515625,-0.2010955810546875,1,0.99
2020-05-16 12:07:51.267 -0400,9321.169950791667,0.521881103515625,0.3668060302734375,-0.106597900390625,1,0.99
2020-05-16 12:07:51.337 -0400,9321.239784791667,0.628753662109375,0.298248291015625,-0.029388427734375,1,0.99
2020-05-16 12:07:51.406 -0400,9321.309620791668,0.9790496826171875,0.2324676513671875,-0.032073974609375,1,0.99
2020-05-16 12:07:51.476 -0400,9321.379456791667,0.93780517578125,0.2932586669921875,-0.0439605712890625,1,0.99
2020-05-16 12:07:51.546 -0400,9321.449293791668,1.071456909179688,0.47186279296875,-0.16632080078125,1,0.99
2020-05-16 12:07:51.616 -0400,9321.519129791668,1.506256103515625,0.545623779296875,-0.441986083984375,1,0.99
2020-05-16 12:07:51.685 -0400,9321.588967791668,0.9714202880859375,0.3064117431640625,-0.3522796630859375,1,0.99
2020-05-16 12:07:51.755 -0400,9321.658810541667,0.4476318359375,0.21136474609375,-0.3099212646484375,1,0.99
2020-05-16 12:07:51.825 -0400,9321.728650541667,0.43243408203125,0.39306640625,-0.1970977783203125,1,0.99
2020-05-16 12:07:51.895 -0400,9321.798491541667,1.022232055664062,0.62615966796875,-0.37359619140625,1,0.99
2020-05-16 12:07:51.965 -0400,9321.868329541667,1.1605224609375,0.623565673828125,-0.5673065185546875,1,0.99
2020-05-16 12:07:52.035 -0400,9321.938165541667,1.517471313476562,0.683563232421875,-0.5123291015625,1,0.99
2020-05-16 12:07:52.105 -0400,9322.008000541668,1.339401245117188,0.5581207275390625,-0.31396484375,1,0.99
2020-05-16 12:07:52.174 -0400,9322.077835541668,1.281295776367188,0.35784912109375,-0.1558380126953125,1,0.99
2020-05-16 12:07:52.244 -0400,9322.147674541668,0.79351806640625,0.3607177734375,-0.2377777099609375,1,0.99
2020-05-16 12:07:52.314 -0400,9322.217515541668,0.545745849609375,0.3764801025390625,-0.1072998046875,1,0.99
2020-05-16 12:07:52.384 -0400,9322.287354541668,0.7619781494140625,0.2938690185546875,-0.054443359375,1,0.99
2020-05-16 12:07:52.454 -0400,9322.357191541667,1.088714599609375,0.173553466796875,0.0055389404296875,1,0.99
2020-05-16 12:07:52.524 -0400,9322.427027541667,0.96343994140625,0.31072998046875,-0.05340576171875,1,0.99
2020-05-16 12:07:52.593 -0400,9322.496864541667,0.874176025390625,0.579559326171875,-0.3340911865234375,1,0.99
2020-05-16 12:07:52.663 -0400,9322.566702541668,1.352569580078125,0.5967254638671875,-0.4662628173828125,1,0.99
2020-05-16 12:07:52.733 -0400,9322.636539166668,1.030685424804688,0.04779052734375,-0.186279296875,1,0.99
2020-05-16 12:07:52.803 -0400,9322.706380166666,0.5190277099609375,0.2272491455078125,-0.3529205322265625,1,0.99
2020-05-16 12:07:52.873 -0400,9322.776222166667,0.5097503662109375,0.4949188232421875,-0.2392578125,1,0.99
2020-05-16 12:07:52.943 -0400,9322.846064166668,0.6963348388671875,0.65380859375,-0.40460205078125,1,0.99
2020-05-16 12:07:53.012 -0400,9322.915906166667,1.1068115234375,0.59893798828125,-0.4539031982421875,1,0.99
2020-05-16 12:07:53.082 -0400,9322.985749166668,1.659378051757812,0.670806884765625,-0.4782257080078125,1,0.99
2020-05-16 12:07:53.152 -0400,9323.055592166667,1.214096069335938,0.5064697265625,-0.414154052734375,1,0.99
2020-05-16 12:07:53.222 -0400,9323.125427166668,1.3028564453125,0.386962890625,-0.1443328857421875,1,0.99
2020-05-16 12:07:53.292 -0400,9323.195265166667,0.8292999267578125,0.3811798095703125,-0.2398529052734375,1,0.99
2020-05-16 12:07:53.362 -0400,9323.265102166668,0.440704345703125,0.3404998779296875,-0.09869384765625,1,0.99
2020-05-16 12:07:53.432 -0400,9323.334939166667,0.529693603515625,0.304107666015625,-0.0526275634765625,1,0.99
2020-05-16 12:07:53.501 -0400,9323.404775166668,1.072601318359375,0.2496185302734375,-0.0595855712890625,1,0.99
2020-05-16 12:07:53.571 -0400,9323.474610166668,1.053054809570312,0.2557220458984375,-0.003326416015625,1,0.99
2020-05-16 12:07:53.641 -0400,9323.544444166668,1.184188842773438,0.53076171875,-0.3263702392578125,1,0.99
2020-05-16 12:07:53.711 -0400,9323.614274916667,1.255569458007812,0.565185546875,-0.478240966796875,1,0.99
2020-05-16 12:07:53.781 -0400,9323.684108916666,0.984130859375,0.1284332275390625,-0.1764984130859375,1,0.99
2020-05-16 12:07:53.851 -0400,9323.753940916667,0.4865264892578125,0.2630157470703125,-0.3035736083984375,1,0.99
2020-05-16 12:07:53.920 -0400,9323.823773916667,0.4234619140625,0.4288482666015625,-0.2181854248046875,1,0.99
2020-05-16 12:07:53.990 -0400,9323.893606916667,0.8301544189453125,0.4552764892578125,-0.2811431884765625,1,0.99
2020-05-16 12:07:54.060 -0400,9323.963439916668,1.214004516601562,0.4962310791015625,-0.359527587890625,1,0.99
2020-05-16 12:07:54.130 -0400,9324.033273916668,1.568710327148438,0.6540679931640625,-0.5137939453125,1,0.99
2020-05-16 12:07:54.200 -0400,9324.103114916667,1.122817993164062,0.586578369140625,-0.3630523681640625,1,0.99
2020-05-16 12:07:54.270 -0400,9324.172956916667,1.33148193359375,0.3391265869140625,-0.018341064453125,1,0.99
2020-05-16 12:07:54.339 -0400,9324.242797916668,0.953338623046875,0.1547698974609375,-0.0851287841796875,1,0.99
2020-05-16 12:07:54.409 -0400,9324.312639916667,0.520263671875,0.329986572265625,-0.054168701171875,1,0.99
2020-05-16 12:07:54.479 -0400,9324.382480916667,0.46173095703125,0.3287353515625,0.1716461181640625,1,0.99
2020-05-16 12:07:54.549 -0400,9324.452320916667,0.86083984375,0.2733306884765625,0.1335906982421875,1,0.99
2020-05-16 12:07:54.619 -0400,9324.522162916668,1.094436645507812,0.257049560546875,0.096954345703125,1,0.99
2020-05-16 12:07:54.689 -0400,9324.592003916667,1.275924682617188,0.3757781982421875,-0.181488037109375,1,0.99
2020-05-16 12:07:54.758 -0400,9324.661846666668,1.202621459960938,0.520416259765625,-0.373626708984375,1,0.99
2020-05-16 12:07:54.828 -0400,9324.731682666667,1.40234375,0.36749267578125,-0.263641357421875,1,0.99
2020-05-16 12:07:54.898 -0400,9324.801519666667,0.6523895263671875,0.227996826171875,-0.356353759765625,1,0.99
2020-05-16 12:07:54.968 -0400,9324.871356666667,0.332977294921875,0.32684326171875,-0.2108154296875,1,0.99
2020-05-16 12:07:55.038 -0400,9324.941193666667,0.47052001953125,0.407012939453125,-0.2212371826171875,1,0.99
2020-05-16 12:07:55.108 -0400,9325.011029666668,0.836639404296875,0.48046875,-0.346527099609375,1,0.99
2020-05-16 12:07:55.177 -0400,9325.080868666668,1.052276611328125,0.48272705078125,-0.3267822265625,1,0.99
2020-05-16 12:07:55.247 -0400,9325.150705666667,1.646072387695312,0.8074188232421875,-0.60150146484375,1,0.99
2020-05-16 12:07:55.317 -0400,9325.220539666667,1.437728881835938,0.3876800537109375,-0.2565155029296875,1,0.99
2020-05-16 12:07:55.387 -0400,9325.290376666668,1.00616455078125,0.2776031494140625,-0.1941375732421875,1,0.99
2020-05-16 12:07:55.462 -0400,9325.360210666668,0.5050506591796875,0.39080810546875,-0.2088470458984375,1,0.99
2020-05-16 12:07:55.527 -0400,9325.430041666667,0.4249114990234375,0.3564453125,-0.103851318359375,1,0.99
2020-05-16 12:07:55.597 -0400,9325.499877666667,0.6986083984375,0.2307281494140625,-0.10205078125,1,0.99
2020-05-16 12:07:55.667 -0400,9325.569712666667,0.9315948486328125,0.1442108154296875,0.066741943359375,1,0.99
2020-05-16 12:07:55.736 -0400,9325.639544875001,1.209320068359375,0.396636962890625,-0.09417724609375,1,0.99
2020-05-16 12:07:55.806 -0400,9325.709377875,1.53814697265625,0.799072265625,-0.453155517578125,1,0.99
2020-05-16 12:07:55.876 -0400,9325.779213875001,1.315383911132812,0.5090484619140625,-0.2790679931640625,1,0.99
2020-05-16 12:07:55.946 -0400,9325.849046875001,0.6123199462890625,0.1444091796875,-0.262939453125,1,0.99
2020-05-16 12:07:56.015 -0400,9325.918877875001,0.4381103515625,0.4152679443359375,-0.208343505859375,1,0.99
2020-05-16 12:07:56.085 -0400,9325.988711875001,0.56378173828125,0.6158294677734375,-0.26495361328125,1,0.99
2020-05-16 12:07:56.155 -0400,9326.058545875001,0.980804443359375,0.7056884765625,-0.4303436279296875,1,0.99
2020-05-16 12:07:56.225 -0400,9326.128380875001,1.605758666992188,0.796783447265625,-0.41131591796875,1,0.99
2020-05-16 12:07:56.295 -0400,9326.198215875,1.587158203125,0.3793182373046875,-0.41546630859375,1,0.99
2020-05-16 12:07:56.365 -0400,9326.268045875,1.580230712890625,0.41754150390625,-0.122406005859375,1,0.99
2020-05-16 12:07:56.434 -0400,9326.337875875,1.067840576171875,0.4238433837890625,-0.21063232421875,1,0.99
2020-05-16 12:07:56.504 -0400,9326.407708875,0.5389862060546875,0.3105926513671875,-0.0425872802734375,1,0.99
2020-05-16 12:07:56.574 -0400,9326.477544875001,0.5374298095703125,0.3229827880859375,-0.017974853515625,1,0.99
2020-05-16 12:07:56.644 -0400,9326.547376875,0.7053680419921875,0.1603546142578125,0.03485107421875,1,0.99
2020-05-16 12:07:56.714 -0400,9326.6172135,0.88360595703125,0.1456146240234375,0.086151123046875,1,0.99
2020-05-16 12:07:56.783 -0400,9326.687046500001,1.157470703125,0.65966796875,-0.0858612060546875,1,0.99
2020-05-16 12:07:56.853 -0400,9326.756881500001,1.2908935546875,0.7239532470703125,-0.58856201171875,1,0.99
2020-05-16 12:07:56.923 -0400,9326.826714500001,1.289199829101562,0.439666748046875,-0.2815399169921875,1,0.99
2020-05-16 12:07:56.993 -0400,9326.896549500001,0.6470794677734375,0.3019866943359375,-0.4346923828125,1,0.99
2020-05-16 12:07:57.063 -0400,9326.9663805,0.4527435302734375,0.4503173828125,-0.21868896484375,1,0.99
2020-05-16 12:07:57.133 -0400,9327.036213500001,0.6314697265625,0.564056396484375,-0.3070831298828125,1,0.99
2020-05-16 12:07:57.203 -0400,9327.1060485,1.042572021484375,0.682464599609375,-0.378997802734375,1,0.99
2020-05-16 12:07:57.278 -0400,9327.175879500001,1.35986328125,0.7557525634765625,-0.4330902099609375,1,0.99
2020-05-16 12:07:57.342 -0400,9327.245709500001,1.356216430664062,0.5685272216796875,-0.422607421875,1,0.99
2020-05-16 12:07:57.412 -0400,9327.3155475,1.438507080078125,0.4434967041015625,-0.2196197509765625,1,0.99
2020-05-16 12:07:57.482 -0400,9327.3853875,1.010665893554688,0.290374755859375,-0.1813201904296875,1,0.99
2020-05-16 12:07:57.552 -0400,9327.4552265,0.611907958984375,0.338409423828125,-0.154144287109375,1,0.99
2020-05-16 12:07:57.622 -0400,9327.5250665,0.555023193359375,0.29486083984375,-0.0194549560546875,1,0.99
2020-05-16 12:07:57.691 -0400,9327.5949005,0.7079620361328125,0.1947479248046875,0.0089263916015625,1,0.99
2020-05-16 12:07:57.761 -0400,9327.664735166667,0.8503875732421875,0.254364013671875,-0.0294189453125,1,0.99
2020-05-16 12:07:57.831 -0400,9327.734570166667,1.260330200195312,0.428619384765625,-0.1337432861328125,1,0.99
2020-05-16 12:07:57.901 -0400,9327.804400166668,1.359344482421875,0.69561767578125,-0.5247344970703125,1,0.99
2020-05-16 12:07:57.971 -0400,9327.874240166668,1.445587158203125,0.4349822998046875,-0.274749755859375,1,0.99
2020-05-16 12:07:58.041 -0400,9327.944076166666,0.689453125,0.207244873046875,-0.304351806640625,1,0.99
2020-05-16 12:07:58.110 -0400,9328.013911166667,0.438720703125,0.46820068359375,-0.142120361328125,1,0.99
2020-05-16 12:07:58.180 -0400,9328.083749166668,0.5472259521484375,0.6766815185546875,-0.1839752197265625,1,0.99
2020-05-16 12:07:58.250 -0400,9328.153584166666,0.841522216796875,0.687469482421875,-0.3928375244140625,1,0.99
2020-05-16 12:07:58.320 -0400,9328.223421166667,1.3271484375,0.58837890625,-0.387298583984375,1,0.99
2020-05-16 12:07:58.390 -0400,9328.293257166668,1.56414794921875,0.5671539306640625,-0.393341064453125,1,0.99
2020-05-16 12:07:58.460 -0400,9328.363094166667,1.415740966796875,0.398468017578125,-0.207183837890625,1,0.99
2020-05-16 12:07:58.529 -0400,9328.432935166667,1.008392333984375,0.41900634765625,-0.28485107421875,1,0.99
2020-05-16 12:07:58.599 -0400,9328.502774166667,0.5418548583984375,0.350982666015625,-0.1997222900390625,1,0.99
2020-05-16 12:07:58.669 -0400,9328.572613166667,0.546966552734375,0.23663330078125,-0.0324859619140625,1,0.99
2020-05-16 12:07:58.739 -0400,9328.64245175,0.878082275390625,0.1260223388671875,-0.017791748046875,1,0.99
2020-05-16 12:07:58.809 -0400,9328.712289750001,0.953857421875,0.2604827880859375,-0.01171875,1,0.99
2020-05-16 12:07:58.879 -0400,9328.782128750001,1.239242553710938,0.35980224609375,-0.0576629638671875,1,0.99
2020-05-16 12:07:58.948 -0400,9328.85196475,1.294296264648438,0.5524139404296875,-0.4020233154296875,1,0.99
2020-05-16 12:07:59.018 -0400,9328.921803750001,1.345611572265625,0.37109375,-0.23712158203125,1,0.99
2020-05-16 12:07:59.088 -0400,9328.991643750001,0.79541015625,0.2521514892578125,-0.408294677734375,1,0.99
2020-05-16 12:07:59.158 -0400,9329.061480750001,0.506683349609375,0.3297882080078125,-0.255035400390625,1,0.99
2020-05-16 12:07:59.228 -0400,9329.13131875,0.5822601318359375,0.473602294921875,-0.2523345947265625,1,0.99
2020-05-16 12:07:59.298 -0400,9329.20116475,0.9209747314453125,0.7043914794921875,-0.3453521728515625,1,0.99
2020-05-16 12:07:59.368 -0400,9329.271006750001,1.547744750976562,0.9662933349609375,-0.4731903076171875,1,0.99
2020-05-16 12:07:59.437 -0400,9329.340846750001,1.369400024414062,0.41314697265625,-0.422210693359375,1,0.99
2020-05-16 12:07:59.507 -0400,9329.41068775,1.522720336914062,0.5968780517578125,-0.304534912109375,1,0.99
2020-05-16 12:07:59.577 -0400,9329.48053375,1.096328735351562,0.2763519287109375,-0.3087615966796875,1,0.99
2020-05-16 12:07:59.647 -0400,9329.55037775,0.5529632568359375,0.2415008544921875,-0.1837005615234375,1,0.99
2020-05-16 12:07:59.717 -0400,9329.6202225,0.389923095703125,0.2547454833984375,-0.0397491455078125,1,0.99
2020-05-16 12:07:59.787 -0400,9329.6900675,0.6087799072265625,0.2521209716796875,-0.0457763671875,1,0.99
2020-05-16 12:07:59.857 -0400,9329.759915500001,1.107925415039062,0.2330322265625,0.1233062744140625,1,0.99
2020-05-16 12:07:59.926 -0400,9329.829756500001,1.424362182617188,0.37017822265625,-0.0026702880859375,1,0.99
2020-05-16 12:07:59.996 -0400,9329.899601500001,1.34576416015625,0.7406463623046875,-0.5027313232421875,1,0.99
2020-05-16 12:08:00.066 -0400,9329.969446500001,1.289093017578125,0.2424163818359375,-0.264892578125,1,0.99
2020-05-16 12:08:00.136 -0400,9330.039292500001,0.654052734375,0.0360870361328125,-0.4532623291015625,1,0.99
2020-05-16 12:08:00.206 -0400,9330.109135500001,0.36810302734375,0.2039794921875,-0.3853912353515625,1,0.99
2020-05-16 12:08:00.276 -0400,9330.178982500001,0.4267578125,0.6411895751953125,-0.2413330078125,1,0.99
2020-05-16 12:08:00.345 -0400,9330.248826500001,0.744354248046875,0.5983123779296875,-0.28753662109375,1,0.99
2020-05-16 12:08:00.415 -0400,9330.3186735,1.894195556640625,1.096298217773438,-0.450927734375,1,0.99
2020-05-16 12:08:00.485 -0400,9330.388520500001,1.487228393554688,0.2530670166015625,-0.14898681640625,1,0.99
2020-05-16 12:08:00.555 -0400,9330.458362500001,1.354339599609375,0.380859375,0.0831298828125,1,0.99
2020-05-16 12:08:00.625 -0400,9330.528207500001,0.954803466796875,0.50970458984375,0.02777099609375,1,0.99
2020-05-16 12:08:00.695 -0400,9330.598050500001,0.43402099609375,0.2559051513671875,0.102142333984375,1,0.99
2020-05-16 12:08:00.764 -0400,9330.667891375,0.5370941162109375,0.339141845703125,0.047637939453125,1,0.99
2020-05-16 12:08:00.834 -0400,9330.737732375001,0.8829345703125,0.2966766357421875,0.0101318359375,1,0.99
2020-05-16 12:08:00.904 -0400,9330.807578375001,1.156402587890625,0.2216339111328125,-0.0195770263671875,1,0.99
2020-05-16 12:08:00.974 -0400,9330.877427375,1.260635375976562,0.3583526611328125,0.023529052734375,1,0.99
2020-05-16 12:08:01.044 -0400,9330.947275375,0.9940032958984375,0.620391845703125,-0.4584808349609375,1,0.99
2020-05-16 12:08:01.114 -0400,9331.017122375,1.327957153320312,0.4522705078125,-0.2066497802734375,1,0.99
2020-05-16 12:08:01.184 -0400,9331.086967375,0.79400634765625,0.31500244140625,-0.437744140625,1,0.99
2020-05-16 12:08:01.254 -0400,9331.156809375001,0.45648193359375,0.3462982177734375,-0.2785797119140625,1,0.99
2020-05-16 12:08:01.323 -0400,9331.226652375,0.4694366455078125,0.4300384521484375,-0.2219390869140625,1,0.99
2020-05-16 12:08:01.393 -0400,9331.296499375001,0.863250732421875,0.5259552001953125,-0.3555908203125,1,0.99
2020-05-16 12:08:01.463 -0400,9331.366344375001,1.24237060546875,0.53387451171875,-0.4237213134765625,1,0.99
2020-05-16 12:08:01.533 -0400,9331.436187375,1.633636474609375,0.542938232421875,-0.391265869140625,1,0.99
2020-05-16 12:08:01.602 -0400,9331.506021375,1.31787109375,0.5689849853515625,-0.3506622314453125,1,0.99
2020-05-16 12:08:01.672 -0400,9331.575857375001,1.510818481445312,0.3723907470703125,-0.1373443603515625,1,0.99
2020-05-16 12:08:01.742 -0400,9331.645697666667,0.856689453125,0.32415771484375,-0.1658782958984375,1,0.99
2020-05-16 12:08:01.812 -0400,9331.715534666668,0.4292755126953125,0.327606201171875,-0.0450286865234375,1,0.99
2020-05-16 12:08:01.882 -0400,9331.785373666668,0.3545684814453125,0.288116455078125,0.013702392578125,1,0.99
2020-05-16 12:08:01.952 -0400,9331.855211666667,0.8970489501953125,0.2700042724609375,-0.0109100341796875,1,0.99
2020-05-16 12:08:02.022 -0400,9331.925048666668,0.993408203125,0.19970703125,0.0003509521484375,1,0.99
2020-05-16 12:08:02.091 -0400,9331.994884666667,1.154998779296875,0.330169677734375,-0.148193359375,1,0.99
2020-05-16 12:08:02.161 -0400,9332.064716666668,0.9363861083984375,0.499786376953125,-0.4199676513671875,1,0.99
2020-05-16 12:08:02.231 -0400,9332.134550666668,1.542648315429688,0.4110107421875,-0.4249114990234375,1,0.99
2020-05-16 12:08:02.301 -0400,9332.204385666668,0.992767333984375,0.1075897216796875,-0.31781005859375,1,0.99
2020-05-16 12:08:02.371 -0400,9332.274222666667,0.45208740234375,0.36053466796875,-0.3401641845703125,1,0.99
2020-05-16 12:08:02.441 -0400,9332.344058666667,0.5242462158203125,0.5899200439453125,-0.2667694091796875,1,0.99
2020-05-16 12:08:02.510 -0400,9332.413894666668,0.84747314453125,0.5828094482421875,-0.423828125,1,0.99
2020-05-16 12:08:02.580 -0400,9332.483728666668,1.214218139648438,0.56634521484375,-0.3897857666015625,1,0.99
2020-05-16 12:08:02.650 -0400,9332.553562666668,1.356201171875,0.60552978515625,-0.43060302734375,1,0.99
2020-05-16 12:08:02.720 -0400,9332.623395666667,1.563552856445312,0.470794677734375,-0.327056884765625,1,0.99
2020-05-16 12:08:02.790 -0400,9332.693228666667,1.325836181640625,0.287567138671875,-0.1674652099609375,1,0.99
2020-05-16 12:08:02.860 -0400,9332.763059666668,0.6304779052734375,0.28546142578125,-0.1469573974609375,1,0.99
2020-05-16 12:08:02.929 -0400,9332.832888666668,0.468414306640625,0.3348388671875,-0.021514892578125,1,0.99
2020-05-16 12:08:02.999 -0400,9332.902714666667,0.682220458984375,0.237548828125,-0.010833740234375,1,0.99
2020-05-16 12:08:03.069 -0400,9332.972538666667,0.89990234375,0.17333984375,0.0842742919921875,1,0.99
2020-05-16 12:08:03.139 -0400,9333.042366666667,0.740234375,0.298187255859375,-0.0351409912109375,1,0.99
2020-05-16 12:08:03.209 -0400,9333.112197666667,1.011581420898438,0.482452392578125,-0.08355712890625,1,0.99
2020-05-16 12:08:03.279 -0400,9333.182030666667,1.657470703125,0.6410675048828125,-0.508453369140625,1,0.99
2020-05-16 12:08:03.349 -0400,9333.251862666668,1.082626342773438,0.3599853515625,-0.4173431396484375,1,0.99
2020-05-16 12:08:03.418 -0400,9333.321693666667,0.637664794921875,0.276947021484375,-0.43017578125,1,0.99
2020-05-16 12:08:03.488 -0400,9333.391525666668,0.6297454833984375,0.489593505859375,-0.397613525390625,1,0.99
2020-05-16 12:08:03.558 -0400,9333.461363666667,0.67059326171875,0.644866943359375,-0.5008544921875,1,0.99
2020-05-16 12:08:03.628 -0400,9333.531204666668,1.109054565429688,0.8228302001953125,-0.63262939453125,1,0.99
2020-05-16 12:08:03.698 -0400,9333.601039666668,1.675323486328125,0.474853515625,-0.59716796875,1,0.99
2020-05-16 12:08:03.767 -0400,9333.670872166667,1.980987548828125,0.322021484375,-0.316680908203125,1,0.99
2020-05-16 12:08:03.838 -0400,9333.740707166668,1.594573974609375,0.4733734130859375,-0.2703399658203125,1,0.99
2020-05-16 12:08:03.907 -0400,9333.810539166667,0.8139190673828125,0.3769073486328125,-0.1994476318359375,1,0.99
2020-05-16 12:08:03.977 -0400,9333.880373166667,0.5419158935546875,0.2314453125,0.015167236328125,1,0.99
2020-05-16 12:08:04.047 -0400,9333.950210166668,0.4381256103515625,0.08612060546875,0.04107666015625,1,0.99
2020-05-16 12:08:04.117 -0400,9334.020049166667,0.4933624267578125,0.0673370361328125,0.0430450439453125,1,0.99
2020-05-16 12:08:04.186 -0400,9334.089887166667,0.5741119384765625,0.3318023681640625,-0.0175628662109375,1,0.99
2020-05-16 12:08:04.256 -0400,9334.159727166667,1.0821533203125,0.8489990234375,-0.192596435546875,1,0.99
2020-05-16 12:08:04.326 -0400,9334.229566166667,1.583847045898438,0.7727508544921875,-0.62091064453125,1,0.99
2020-05-16 12:08:04.396 -0400,9334.299404166668,1.175689697265625,0.722503662109375,-0.51397705078125,1,0.99
2020-05-16 12:08:04.466 -0400,9334.369241166667,0.5836181640625,0.3761138916015625,-0.34747314453125,1,0.99
2020-05-16 12:08:04.536 -0400,9334.439078166668,0.518218994140625,0.5107574462890625,-0.3617401123046875,1,0.99
2020-05-16 12:08:04.605 -0400,9334.508917166668,0.810333251953125,0.85784912109375,-0.5532073974609375,1,0.99
2020-05-16 12:08:04.675 -0400,9334.578758166666,1.069961547851562,0.7712249755859375,-0.5446319580078125,1,0.99
2020-05-16 12:08:04.745 -0400,9334.648598375001,1.8638916015625,0.5895538330078125,-0.64892578125,1,0.99
2020-05-16 12:08:04.815 -0400,9334.718435375,1.847976684570312,0.4316253662109375,-0.3320159912109375,1,0.99
2020-05-16 12:08:04.885 -0400,9334.788273375001,1.575439453125,0.4497222900390625,-0.322723388671875,1,0.99
2020-05-16 12:08:04.955 -0400,9334.858112375001,0.778900146484375,0.310333251953125,-0.2220306396484375,1,0.99
2020-05-16 12:08:05.024 -0400,9334.927952375001,0.411468505859375,0.1667327880859375,-0.0089111328125,1,0.99
2020-05-16 12:08:05.094 -0400,9334.997790375,0.205352783203125,0.0326385498046875,0.0444488525390625,1,0.99
2020-05-16 12:08:05.164 -0400,9335.067623375,0.3940277099609375,0.174072265625,0.0083465576171875,1,0.99
2020-05-16 12:08:05.234 -0400,9335.137462375,0.9249267578125,0.704986572265625,-0.0473480224609375,1,0.99
2020-05-16 12:08:05.304 -0400,9335.207299375001,1.065536499023438,0.7889251708984375,-0.38751220703125,1,0.99
2020-05-16 12:08:05.374 -0400,9335.277137375,1.694610595703125,0.740020751953125,-0.2376861572265625,1,0.99
2020-05-16 12:08:05.443 -0400,9335.346977375,0.8088226318359375,0.6907196044921875,-0.39056396484375,1,0.99
2020-05-16 12:08:05.513 -0400,9335.416813375001,0.48602294921875,0.360260009765625,-0.293426513671875,1,0.99
2020-05-16 12:08:05.583 -0400,9335.486652375001,0.685211181640625,0.5180511474609375,-0.2977294921875,1,0.99
2020-05-16 12:08:05.653 -0400,9335.556493375001,1.074371337890625,0.8022308349609375,-0.5218353271484375,1,0.99
2020-05-16 12:08:05.723 -0400,9335.626333125001,1.364883422851562,0.6126708984375,-0.48077392578125,1,0.99
2020-05-16 12:08:05.793 -0400,9335.696173125001,1.284576416015625,0.4617462158203125,-0.4265899658203125,1,0.99
2020-05-16 12:08:05.862 -0400,9335.766007125001,1.422576904296875,0.3702392578125,-0.1987762451171875,1,0.99
2020-05-16 12:08:05.933 -0400,9335.835841125001,1.06463623046875,0.3292083740234375,-0.153106689453125,1,0.99
2020-05-16 12:08:06.002 -0400,9335.905675125001,0.5755615234375,0.3108062744140625,-0.1417388916015625,1,0.99
2020-05-16 12:08:06.072 -0400,9335.975509125001,0.524139404296875,0.303497314453125,-0.023712158203125,1,0.99
2020-05-16 12:08:06.142 -0400,9336.045342125,0.6920928955078125,0.183197021484375,-0.0245819091796875,1,0.99
2020-05-16 12:08:06.212 -0400,9336.115174125001,0.7915191650390625,0.24560546875,0.0305328369140625,1,0.99
2020-05-16 12:08:06.282 -0400,9336.184999125,1.22027587890625,0.5628662109375,0.0099334716796875,1,0.99
2020-05-16 12:08:06.352 -0400,9336.254821125001,1.500137329101562,0.8165283203125,-0.5066680908203125,1,0.99
2020-05-16 12:08:06.421 -0400,9336.324650125001,1.181243896484375,0.6669921875,-0.20074462890625,1,0.99
2020-05-16 12:08:06.491 -0400,9336.394476125,0.4519805908203125,0.3272705078125,-0.2352752685546875,1,0.99
2020-05-16 12:08:06.561 -0400,9336.464302125001,0.4058074951171875,0.482025146484375,-0.212890625,1,0.99
2020-05-16 12:08:06.631 -0400,9336.534130125001,0.825439453125,0.7255401611328125,-0.361968994140625,1,0.99
2020-05-16 12:08:06.700 -0400,9336.603960125001,1.115509033203125,0.786041259765625,-0.280242919921875,1,0.99
2020-05-16 12:08:06.770 -0400,9336.673786125,1.535675048828125,0.9346466064453125,-0.29998779296875,1,0.99
2020-05-16 12:08:06.840 -0400,9336.743612125001,1.33233642578125,0.6459503173828125,-0.1833648681640625,1,0.99
2020-05-16 12:08:06.910 -0400,9336.813439125001,1.348342895507812,0.46466064453125,-0.0046234130859375,1,0.99
2020-05-16 12:08:06.980 -0400,9336.883267125,0.7507476806640625,0.2885284423828125,-0.048797607421875,1,0.99
2020-05-16 12:08:07.050 -0400,9336.953099125001,0.49212646484375,0.30230712890625,0.00823974609375,1,0.99
2020-05-16 12:08:07.119 -0400,9337.022929125,0.5757598876953125,0.232696533203125,0.0229949951171875,1,0.99
2020-05-16 12:08:07.189 -0400,9337.092760125,0.9389495849609375,0.226043701171875,0.0487823486328125,1,0.99
2020-05-16 12:08:07.259 -0400,9337.162587125,0.7848358154296875,0.283905029296875,-0.0378875732421875,1,0.99
2020-05-16 12:08:07.329 -0400,9337.232416125,1.1240234375,0.5465087890625,-0.11749267578125,1,0.99
2020-05-16 12:08:07.399 -0400,9337.302246125,1.61712646484375,0.82647705078125,-0.74395751953125,1,0.99
2020-05-16 12:08:07.469 -0400,9337.372077125001,0.845489501953125,0.3940277099609375,-0.3335418701171875,1,0.99
2020-05-16 12:08:07.538 -0400,9337.441903125,0.449249267578125,0.1535491943359375,-0.2983551025390625,1,0.99
2020-05-16 12:08:07.608 -0400,9337.511728125,0.54534912109375,0.5821685791015625,-0.2578887939453125,1,0.99
2020-05-16 12:08:07.678 -0400,9337.581552125001,0.78155517578125,0.72467041015625,-0.44366455078125,1,0.99
2020-05-16 12:08:07.748 -0400,9337.651378666667,1.007354736328125,0.5144500732421875,-0.4080810546875,1,0.99
2020-05-16 12:08:07.818 -0400,9337.721205666667,1.796722412109375,0.8390350341796875,-0.4662322998046875,1,0.99
2020-05-16 12:08:07.888 -0400,9337.791031666668,1.6712646484375,0.544464111328125,-0.3016357421875,1,0.99
2020-05-16 12:08:07.957 -0400,9337.860856666668,1.392715454101562,0.34075927734375,-0.2255859375,1,0.99
2020-05-16 12:08:08.027 -0400,9337.930682666667,0.670013427734375,0.314849853515625,-0.1878662109375,1,0.99
2020-05-16 12:08:08.097 -0400,9338.000515666667,0.524261474609375,0.2579498291015625,-0.0061492919921875,1,0.99
2020-05-16 12:08:08.167 -0400,9338.070342666668,0.52349853515625,0.1826171875,-0.0031280517578125,1,0.99
2020-05-16 12:08:08.237 -0400,9338.140172666666,0.7953948974609375,0.1993865966796875,0.043426513671875,1,0.99
2020-05-16 12:08:08.306 -0400,9338.210002666667,0.91741943359375,0.3123779296875,-0.00250244140625,1,0.99
2020-05-16 12:08:08.376 -0400,9338.279834666668,1.298599243164062,0.758544921875,-0.2460174560546875,1,0.99
2020-05-16 12:08:08.446 -0400,9338.349664666668,1.397476196289062,0.5810546875,-0.5955810546875,1,0.99
2020-05-16 12:08:08.516 -0400,9338.419501666667,0.649444580078125,0.2920379638671875,-0.40447998046875,1,0.99
2020-05-16 12:08:08.586 -0400,9338.489336666667,0.4391937255859375,0.3448486328125,-0.4373931884765625,1,0.99
2020-05-16 12:08:08.655 -0400,9338.559167666666,0.52093505859375,0.5816192626953125,-0.4398956298828125,1,0.99
2020-05-16 12:08:08.725 -0400,9338.628999166667,1.138198852539062,0.75506591796875,-0.5879058837890625,1,0.99
2020-05-16 12:08:08.795 -0400,9338.698829166668,1.029006958007812,0.4140625,-0.337982177734375,1,0.99
2020-05-16 12:08:08.865 -0400,9338.768659166668,1.615814208984375,0.8504180908203125,-0.616851806640625,1,0.99
2020-05-16 12:08:08.935 -0400,9338.838487166668,1.680328369140625,0.5778350830078125,-0.305999755859375,1,0.99
2020-05-16 12:08:09.005 -0400,9338.908314166667,1.098464965820312,0.2160491943359375,-0.22216796875,1,0.99
2020-05-16 12:08:09.075 -0400,9338.978146166668,0.6880035400390625,0.2775726318359375,-0.1342010498046875,1,0.99
2020-05-16 12:08:09.145 -0400,9339.047981166666,0.6074066162109375,0.28680419921875,-0.062652587890625,1,0.99
2020-05-16 12:08:09.214 -0400,9339.117813166667,0.6185455322265625,0.1302337646484375,-0.001312255859375,1,0.99
2020-05-16 12:08:09.284 -0400,9339.187642166668,0.6078033447265625,0.2676544189453125,0.03704833984375,1,0.99
2020-05-16 12:08:09.354 -0400,9339.257473166666,0.8737335205078125,0.6755828857421875,-0.072540283203125,1,0.99
2020-05-16 12:08:09.424 -0400,9339.327306166668,1.523696899414062,0.6643829345703125,-0.6041412353515625,1,0.99
2020-05-16 12:08:09.494 -0400,9339.397142166667,1.116348266601562,0.614501953125,-0.4488983154296875,1,0.99
2020-05-16 12:08:09.563 -0400,9339.466974166668,0.5502166748046875,0.2917327880859375,-0.30657958984375,1,0.99
2020-05-16 12:08:09.633 -0400,9339.536807166667,0.6222381591796875,0.4523162841796875,-0.352691650390625,1,0.99
2020-05-16 12:08:09.703 -0400,9339.606636166667,0.808685302734375,0.830902099609375,-0.4849395751953125,1,0.99
2020-05-16 12:08:09.773 -0400,9339.676469,1.078704833984375,0.9491424560546875,-0.4862213134765625,1,0.99
2020-05-16 12:08:09.843 -0400,9339.746296000001,1.50634765625,0.65203857421875,-0.526458740234375,1,0.99
2020-05-16 12:08:09.913 -0400,9339.816124000001,2.012100219726562,0.631622314453125,-0.224884033203125,1,0.99
2020-05-16 12:08:09.983 -0400,9339.885953000001,1.340789794921875,0.3941192626953125,-0.2898101806640625,1,0.99
2020-05-16 12:08:10.052 -0400,9339.955787000001,0.62005615234375,0.373077392578125,-0.2122344970703125,1,0.99
2020-05-16 12:08:10.122 -0400,9340.025626000001,0.5883636474609375,0.25970458984375,-0.067779541015625,1,0.99
2020-05-16 12:08:10.192 -0400,9340.095462000001,0.6136016845703125,0.0956573486328125,-0.029083251953125,1,0.99
2020-05-16 12:08:10.262 -0400,9340.165294,0.6123809814453125,0.116546630859375,0.06103515625,1,0.99
2020-05-16 12:08:10.332 -0400,9340.235129000001,0.742889404296875,0.5323333740234375,-0.0582122802734375,1,0.99
2020-05-16 12:08:10.401 -0400,9340.304965000001,1.446548461914062,0.8149261474609375,-0.27294921875,1,0.99
2020-05-16 12:08:10.471 -0400,9340.374800000001,1.524459838867188,0.771270751953125,-0.4365692138671875,1,0.99
2020-05-16 12:08:10.541 -0400,9340.444635,0.8154754638671875,0.64691162109375,-0.375701904296875,1,0.99
2020-05-16 12:08:10.611 -0400,9340.514466000001,0.6724853515625,0.6240234375,-0.2705078125,1,0.99
2020-05-16 12:08:10.681 -0400,9340.584298,0.891265869140625,0.7891845703125,-0.4572601318359375,1,0.99
2020-05-16 12:08:10.751 -0400,9340.654130750001,0.97705078125,1.050643920898438,-0.481475830078125,1,0.99
2020-05-16 12:08:10.821 -0400,9340.72396675,1.864410400390625,1.12908935546875,-0.6292724609375,1,0.99
2020-05-16 12:08:10.890 -0400,9340.793798750001,2.058563232421875,0.32000732421875,-0.278228759765625,1,0.99
2020-05-16 12:08:10.960 -0400,9340.86363175,1.579513549804688,0.530426025390625,-0.2194366455078125,1,0.99
2020-05-16 12:08:11.030 -0400,9340.93346475,0.809051513671875,0.4662933349609375,-0.1276397705078125,1,0.99
2020-05-16 12:08:11.100 -0400,9341.003295750001,0.548614501953125,0.297271728515625,0.0535736083984375,1,0.99
2020-05-16 12:08:11.170 -0400,9341.073124750001,0.664337158203125,0.2212677001953125,0.0382080078125,1,0.99
2020-05-16 12:08:11.240 -0400,9341.14295275,0.83734130859375,0.1364288330078125,0.1100311279296875,1,0.99
2020-05-16 12:08:11.317 -0400,9341.21278075,0.5917816162109375,0.2830963134765625,0.0355987548828125,1,0.99
2020-05-16 12:08:11.379 -0400,9341.28260875,1.001693725585938,0.6122283935546875,-0.14129638671875,1,0.99
2020-05-16 12:08:11.449 -0400,9341.352436750001,1.450210571289062,0.712890625,-0.2971954345703125,1,0.99
2020-05-16 12:08:11.519 -0400,9341.422263750001,1.27301025390625,0.9389801025390625,-0.5532989501953125,1,0.99
2020-05-16 12:08:11.589 -0400,9341.49209575,0.730682373046875,0.764801025390625,-0.1812896728515625,1,0.99
2020-05-16 12:08:11.658 -0400,9341.561927750001,0.7430877685546875,0.9085845947265625,-0.285552978515625,1,0.99
2020-05-16 12:08:11.728 -0400,9341.63175875,0.9666595458984375,0.82098388671875,-0.281646728515625,1,0.99
2020-05-16 12:08:11.798 -0400,9341.70158975,1.444259643554688,1.129730224609375,-0.3599090576171875,1,0.99
2020-05-16 12:08:11.868 -0400,9341.77141775,1.456588745117188,0.8636016845703125,-0.3308868408203125,1,0.99
2020-05-16 12:08:11.938 -0400,9341.84124575,1.63482666015625,0.6450958251953125,-0.2184295654296875,1,0.99
2020-05-16 12:08:12.008 -0400,9341.911076750001,0.9499053955078125,0.4128570556640625,-0.2259368896484375,1,0.99
2020-05-16 12:08:12.077 -0400,9341.980906750001,0.4847869873046875,0.2404327392578125,-0.0794525146484375,1,0.99
2020-05-16 12:08:12.147 -0400,9342.05073875,0.5372467041015625,0.237213134765625,-0.056182861328125,1,0.99
2020-05-16 12:08:12.217 -0400,9342.120568750001,1.019027709960938,0.2059783935546875,0.0047760009765625,1,0.99
2020-05-16 12:08:12.287 -0400,9342.19040075,0.9810638427734375,0.2251129150390625,0.18499755859375,1,0.99
2020-05-16 12:08:12.357 -0400,9342.260232750001,1.164016723632812,0.57244873046875,-0.018341064453125,1,0.99
2020-05-16 12:08:12.427 -0400,9342.33006575,1.40386962890625,0.7613525390625,-0.6521453857421875,1,0.99
2020-05-16 12:08:12.497 -0400,9342.399900750001,1.208694458007812,0.4126129150390625,-0.3767852783203125,1,0.99
2020-05-16 12:08:12.566 -0400,9342.46973475,0.608612060546875,0.3302001953125,-0.5008697509765625,1,0.99
2020-05-16 12:08:12.636 -0400,9342.539569750001,0.615570068359375,0.7124481201171875,-0.339324951171875,1,0.99
2020-05-16 12:08:12.706 -0400,9342.609403750001,0.8079376220703125,0.8678131103515625,-0.2485504150390625,1,0.99
2020-05-16 12:08:12.776 -0400,9342.679236375001,1.030532836914062,1.080276489257812,-0.3572998046875,1,0.99
2020-05-16 12:08:12.846 -0400,9342.749068375,1.252456665039062,0.930084228515625,-0.399169921875,1,0.99
2020-05-16 12:08:12.915 -0400,9342.818898375001,1.689956665039062,0.521514892578125,-0.18927001953125,1,0.99
2020-05-16 12:08:12.985 -0400,9342.888732375,1.50225830078125,0.4736175537109375,-0.1958160400390625,1,0.99
2020-05-16 12:08:13.055 -0400,9342.958565375,0.82647705078125,0.4202880859375,-0.33221435546875,1,0.99
2020-05-16 12:08:13.125 -0400,9343.028398375001,0.7045135498046875,0.290069580078125,-0.2435302734375,1,0.99
2020-05-16 12:08:13.195 -0400,9343.098227375001,0.531097412109375,0.2445526123046875,-0.1805572509765625,1,0.99
2020-05-16 12:08:13.264 -0400,9343.168056375001,0.4852447509765625,0.4597320556640625,-0.2507781982421875,1,0.99
2020-05-16 12:08:13.334 -0400,9343.237886375,0.2828826904296875,0.681549072265625,-0.39239501953125,1,0.99
2020-05-16 12:08:13.404 -0400,9343.307718375001,0.573455810546875,1.10040283203125,-0.4018402099609375,1,0.99
2020-05-16 12:08:13.474 -0400,9343.377552375001,0.7306976318359375,0.9124603271484375,-0.4876708984375,1,0.99
2020-05-16 12:08:13.544 -0400,9343.447385375001,0.4666900634765625,0.5417327880859375,-0.3678741455078125,1,0.99
2020-05-16 12:08:13.614 -0400,9343.517217375,0.277496337890625,0.2783966064453125,-0.2550048828125,1,0.99
2020-05-16 12:08:13.683 -0400,9343.587047375,0.2251129150390625,0.2711181640625,-0.2222900390625,1,0.99
2020-05-16 12:08:13.753 -0400,9343.656880041668,0.2301177978515625,0.8125152587890625,-0.4709014892578125,1,0.99
2020-05-16 12:08:13.823 -0400,9343.726713041668,0.3733978271484375,1.351699829101562,-0.505615234375,1,0.99
2020-05-16 12:08:13.893 -0400,9343.796543041668,1.0733642578125,1.570480346679688,-0.4610595703125,1,0.99
2020-05-16 12:08:13.963 -0400,9343.866374041667,0.926788330078125,0.7950286865234375,-0.28485107421875,1,0.99
2020-05-16 12:08:14.033 -0400,9343.936200041668,0.49688720703125,0.7607421875,0.306182861328125,1,0.99
2020-05-16 12:08:14.103 -0400,9344.006029041668,0.1508026123046875,0.802978515625,-0.1151123046875,1,0.99
2020-05-16 12:08:14.172 -0400,9344.075858041668,0.1572113037109375,0.5288238525390625,-0.049102783203125,1,0.99
2020-05-16 12:08:14.242 -0400,9344.145689041667,0.464752197265625,0.3251800537109375,0.0002899169921875,1,0.99
2020-05-16 12:08:14.312 -0400,9344.215518041667,1.056381225585938,0.355194091796875,-0.002105712890625,1,0.99
2020-05-16 12:08:14.382 -0400,9344.285350041668,1.5712890625,0.699859619140625,-0.3164215087890625,1,0.99
2020-05-16 12:08:14.452 -0400,9344.355179041668,1.578704833984375,0.6968231201171875,-0.28948974609375,1,0.99
2020-05-16 12:08:14.522 -0400,9344.425008041668,1.263229370117188,0.3011016845703125,0.052642822265625,1,0.99
2020-05-16 12:08:14.591 -0400,9344.494837041668,0.3213348388671875,0.44256591796875,0.114105224609375,1,0.99
2020-05-16 12:08:14.661 -0400,9344.564666041668,0.1198577880859375,0.5370941162109375,0.128204345703125,1,0.99
2020-05-16 12:08:14.731 -0400,9344.634497500001,0.4774322509765625,0.5115203857421875,-0.092498779296875,1,0.99
2020-05-16 12:08:14.801 -0400,9344.7043295,1.055160522460938,0.6182861328125,-0.22137451171875,1,0.99
2020-05-16 12:08:14.871 -0400,9344.774159500001,1.46258544921875,0.541229248046875,-0.272308349609375,1,0.99
2020-05-16 12:08:14.941 -0400,9344.8439925,1.338134765625,0.751373291015625,-0.3590240478515625,1,0.99
2020-05-16 12:08:15.010 -0400,9344.9138215,1.434783935546875,0.2099761962890625,0.0424346923828125,1,0.99
2020-05-16 12:08:15.080 -0400,9344.983653500001,0.7595977783203125,0.487457275390625,-0.2639923095703125,1,0.99
2020-05-16 12:08:15.150 -0400,9345.0534845,0.3276519775390625,0.305938720703125,-0.1861114501953125,1,0.99
2020-05-16 12:08:15.220 -0400,9345.123316500001,0.3460693359375,0.0768890380859375,0.161712646484375,1,0.99
2020-05-16 12:08:15.290 -0400,9345.193143500001,0.512725830078125,0.2902679443359375,0.058746337890625,1,0.99
2020-05-16 12:08:15.367 -0400,9345.2629715,1.13189697265625,0.6256103515625,-0.41619873046875,1,0.99
2020-05-16 12:08:15.429 -0400,9345.3327995,1.7286376953125,0.520111083984375,0.0774688720703125,1,0.99
2020-05-16 12:08:15.499 -0400,9345.402627500001,1.63848876953125,0.4071502685546875,-0.3018951416015625,1,0.99
2020-05-16 12:08:15.569 -0400,9345.4724575,0.7913818359375,0.5314483642578125,0.07635498046875,1,0.99
2020-05-16 12:08:15.639 -0400,9345.542290500001,0.1053924560546875,0.66998291015625,-0.189910888671875,1,0.99
2020-05-16 12:08:15.709 -0400,9345.6121205,0.3267822265625,0.4893951416015625,-0.32952880859375,1,0.99
2020-05-16 12:08:15.779 -0400,9345.681950125001,0.6582183837890625,0.4918212890625,-0.181396484375,1,0.99
2020-05-16 12:08:15.848 -0400,9345.751783125001,1.322174072265625,0.4335479736328125,-0.141357421875,1,0.99
2020-05-16 12:08:15.918 -0400,9345.821615125,1.522354125976562,0.5902862548828125,-0.039825439453125,1,0.99
2020-05-16 12:08:15.988 -0400,9345.891444125,1.38018798828125,0.454620361328125,-0.0264129638671875,1,0.99
2020-05-16 12:08:16.058 -0400,9345.961277125001,1.058990478515625,0.428314208984375,-0.110595703125,1,0.99
2020-05-16 12:08:16.128 -0400,9346.031108125,0.4105682373046875,0.4779815673828125,-0.2598724365234375,1,0.99
2020-05-16 12:08:16.197 -0400,9346.100939125001,0.261322021484375,0.3274993896484375,-0.082489013671875,1,0.99
2020-05-16 12:08:16.267 -0400,9346.170767125001,0.5433349609375,0.11883544921875,0.0755157470703125,1,0.99
2020-05-16 12:08:16.337 -0400,9346.240601125,0.8566131591796875,0.38165283203125,-0.13531494140625,1,0.99
2020-05-16 12:08:16.407 -0400,9346.310433125,1.312515258789062,0.6680908203125,-0.48931884765625,1,0.99
2020-05-16 12:08:16.477 -0400,9346.380263125,1.333404541015625,0.6661376953125,-0.4604949951171875,1,0.99
2020-05-16 12:08:16.547 -0400,9346.450097125,1.514511108398438,0.2487640380859375,-0.2899169921875,1,0.99
2020-05-16 12:08:16.616 -0400,9346.519933125001,0.3852081298828125,0.15704345703125,-0.1463165283203125,1,0.99
2020-05-16 12:08:16.686 -0400,9346.589764125001,-0.214019775390625,0.5555267333984375,-0.3076934814453125,1,0.99
2020-05-16 12:08:16.756 -0400,9346.659595375,0.42572021484375,0.5648651123046875,-0.6305999755859375,1,0.99
2020-05-16 12:08:16.826 -0400,9346.729427375001,0.868804931640625,0.5765838623046875,-0.5189208984375,1,0.99
2020-05-16 12:08:16.896 -0400,9346.799260375001,0.8960113525390625,0.75921630859375,-0.4470062255859375,1,0.99
2020-05-16 12:08:16.966 -0400,9346.869093375,1.010269165039062,0.72393798828125,-0.1079559326171875,1,0.99
2020-05-16 12:08:17.035 -0400,9346.938928375001,1.076568603515625,0.697967529296875,0.10601806640625,1,0.99
2020-05-16 12:08:17.105 -0400,9347.008766375,0.8887939453125,0.6478271484375,-0.15509033203125,1,0.99
2020-05-16 12:08:17.175 -0400,9347.078600375,0.2341156005859375,0.483673095703125,-0.330902099609375,1,0.99
2020-05-16 12:08:17.245 -0400,9347.148433375001,0.1395111083984375,0.5001373291015625,-0.2740478515625,1,0.99
2020-05-16 12:08:17.315 -0400,9347.218270375,0.4573516845703125,0.4902801513671875,0.10040283203125,1,0.99
2020-05-16 12:08:17.385 -0400,9347.288109375,1.13128662109375,0.954559326171875,-0.0552520751953125,1,0.99
2020-05-16 12:08:17.455 -0400,9347.357947375001,1.300155639648438,0.929962158203125,0.0929107666015625,1,0.99
2020-05-16 12:08:17.524 -0400,9347.427784375001,1.245010375976562,0.968841552734375,-0.0570220947265625,1,0.99
2020-05-16 12:08:17.594 -0400,9347.497621375001,1.23126220703125,0.850738525390625,0.064056396484375,1,0.99
2020-05-16 12:08:17.664 -0400,9347.567455375001,0.82550048828125,0.4214935302734375,-0.135528564453125,1,0.99
2020-05-16 12:08:17.734 -0400,9347.637291291667,0.338958740234375,-0.07080078125,-0.3739471435546875,1,0.99
2020-05-16 12:08:17.804 -0400,9347.707128291668,-0.007049560546875,0.5275726318359375,-0.02069091796875,1,0.99
2020-05-16 12:08:17.874 -0400,9347.776964291666,-0.12744140625,0.792755126953125,-0.144989013671875,1,0.99
2020-05-16 12:08:17.943 -0400,9347.846799291667,0.0722503662109375,1.290420532226562,-0.1714630126953125,1,0.99
2020-05-16 12:08:18.013 -0400,9347.916637291668,0.2075958251953125,1.246566772460938,0.17791748046875,1,0.99
2020-05-16 12:08:18.083 -0400,9347.986472291666,0.752960205078125,1.400680541992188,-0.0802459716796875,1,0.99
2020-05-16 12:08:18.153 -0400,9348.056304291667,0.6114349365234375,0.9539947509765625,-0.0941619873046875,1,0.99
2020-05-16 12:08:18.223 -0400,9348.126134291668,0.3919525146484375,0.6149444580078125,-0.343017578125,1,0.99
2020-05-16 12:08:18.293 -0400,9348.195965291667,0.1584625244140625,0.32635498046875,-0.388885498046875,1,0.99
2020-05-16 12:08:18.362 -0400,9348.265796291667,0.277679443359375,0.2631988525390625,-0.259521484375,1,0.99
2020-05-16 12:08:18.432 -0400,9348.335627291668,0.8730010986328125,0.8890380859375,-0.4602508544921875,1,0.99
2020-05-16 12:08:18.502 -0400,9348.405457291667,0.7695159912109375,0.541107177734375,-0.357086181640625,1,0.99
2020-05-16 12:08:18.572 -0400,9348.475288291667,0.9656524658203125,0.7973480224609375,-0.28070068359375,1,0.99
2020-05-16 12:08:18.642 -0400,9348.545122291667,1.316421508789062,0.813690185546875,-0.492431640625,1,0.99
2020-05-16 12:08:18.712 -0400,9348.614954291666,0.6748199462890625,0.3787841796875,-0.37591552734375,1,0.99
2020-05-16 12:08:18.781 -0400,9348.68478775,0.3377685546875,0.268218994140625,-0.2614593505859375,1,0.99
2020-05-16 12:08:18.851 -0400,9348.754624750001,0.473419189453125,0.569976806640625,-0.237213134765625,1,0.99
2020-05-16 12:08:18.921 -0400,9348.824456750001,0.749359130859375,0.724884033203125,-0.2744140625,1,0.99
2020-05-16 12:08:18.991 -0400,9348.89429075,1.017196655273438,0.712554931640625,-0.2789764404296875,1,0.99
2020-05-16 12:08:19.061 -0400,9348.964125750001,1.260284423828125,0.972137451171875,-0.45330810546875,1,0.99
2020-05-16 12:08:19.130 -0400,9349.033959750001,1.509765625,0.6766815185546875,-0.2799835205078125,1,0.99
2020-05-16 12:08:19.200 -0400,9349.10379375,1.244415283203125,0.2140655517578125,-0.32672119140625,1,0.99
2020-05-16 12:08:19.270 -0400,9349.17362675,0.628570556640625,0.330718994140625,-0.415008544921875,1,0.99
2020-05-16 12:08:19.340 -0400,9349.24346175,0.5122528076171875,0.2853240966796875,-0.1954498291015625,1,0.99
2020-05-16 12:08:19.410 -0400,9349.313293750001,0.472930908203125,0.0950469970703125,-0.063262939453125,1,0.99
2020-05-16 12:08:19.480 -0400,9349.38312475,0.7249298095703125,0.2257843017578125,-0.186248779296875,1,0.99
2020-05-16 12:08:19.549 -0400,9349.45295775,0.87750244140625,0.4636383056640625,-0.16632080078125,1,0.99
2020-05-16 12:08:19.619 -0400,9349.522789750001,1.2772216796875,0.6524658203125,-0.231689453125,1,0.99
2020-05-16 12:08:19.689 -0400,9349.592624750001,1.434494018554688,0.6322021484375,-0.4261322021484375,1,0.99
2020-05-16 12:08:19.759 -0400,9349.662457875,0.734832763671875,0.376129150390625,-0.258026123046875,1,0.99
2020-05-16 12:08:19.829 -0400,9349.732291875001,0.4836273193359375,0.42901611328125,-0.122589111328125,1,0.99
2020-05-16 12:08:19.899 -0400,9349.802126875,0.5081634521484375,0.6027374267578125,-0.170379638671875,1,0.99
2020-05-16 12:08:19.969 -0400,9349.871965875,0.8595428466796875,0.7637176513671875,-0.276947021484375,1,0.99
2020-05-16 12:08:20.038 -0400,9349.941801875,1.410903930664062,0.7676239013671875,-0.2993011474609375,1,0.99
2020-05-16 12:08:20.108 -0400,9350.011634875,1.490386962890625,0.753814697265625,-0.524017333984375,1,0.99
2020-05-16 12:08:20.178 -0400,9350.081469875,1.488815307617188,0.5270538330078125,-0.1662750244140625,1,0.99
2020-05-16 12:08:20.248 -0400,9350.151303875,0.995819091796875,0.254669189453125,-0.2668304443359375,1,0.99
2020-05-16 12:08:20.318 -0400,9350.221139875001,0.6374053955078125,0.3183135986328125,-0.2027435302734375,1,0.99
2020-05-16 12:08:20.388 -0400,9350.290970875001,0.5521087646484375,0.2761688232421875,-0.1171875,1,0.99
2020-05-16 12:08:20.457 -0400,9350.360803875001,0.694854736328125,0.1685028076171875,-0.0909271240234375,1,0.99
2020-05-16 12:08:20.527 -0400,9350.430637875001,0.7100830078125,0.1443634033203125,-0.0096893310546875,1,0.99
2020-05-16 12:08:20.597 -0400,9350.500475875,1.187698364257812,0.5006256103515625,-0.0553131103515625,1,0.99
2020-05-16 12:08:20.667 -0400,9350.570309875,1.5325927734375,0.6759185791015625,-0.468597412109375,1,0.99
2020-05-16 12:08:20.737 -0400,9350.640142875001,1.375564575195312,0.7197723388671875,-0.135345458984375,1,0.99
2020-05-16 12:08:20.807 -0400,9350.709974875001,0.6416015625,0.3370361328125,-0.25262451171875,1,0.99
2020-05-16 12:08:20.876 -0400,9350.779805875001,0.551666259765625,0.4882354736328125,-0.1313629150390625,1,0.99
2020-05-16 12:08:20.946 -0400,9350.849639875001,0.7794342041015625,0.53338623046875,-0.1734466552734375,1,0.99
2020-05-16 12:08:21.016 -0400,9350.919474875001,1.044448852539062,0.6848602294921875,-0.3577880859375,1,0.99
2020-05-16 12:08:21.086 -0400,9350.989307875001,1.767776489257812,1.03094482421875,-0.4221954345703125,1,0.99
2020-05-16 12:08:21.156 -0400,9351.059142875001,1.314849853515625,0.4988555908203125,-0.38653564453125,1,0.99
2020-05-16 12:08:21.226 -0400,9351.128975875001,1.316879272460938,0.4191741943359375,-0.151336669921875,1,0.99
2020-05-16 12:08:21.296 -0400,9351.198809875001,0.78424072265625,0.378875732421875,-0.2654571533203125,1,0.99
2020-05-16 12:08:21.365 -0400,9351.268638875001,0.4954986572265625,0.3175201416015625,-0.0771331787109375,1,0.99
2020-05-16 12:08:21.435 -0400,9351.338465875,0.7178192138671875,0.2683868408203125,-0.063507080078125,1,0.99
2020-05-16 12:08:21.505 -0400,9351.408294875,1.3221435546875,0.183990478515625,0.059417724609375,1,0.99
2020-05-16 12:08:21.575 -0400,9351.478127875,1.112823486328125,0.2994537353515625,-0.0070037841796875,1,0.99
2020-05-16 12:08:21.644 -0400,9351.547960875001,1.134796142578125,0.5383758544921875,-0.1649932861328125,1,0.99
2020-05-16 12:08:21.714 -0400,9351.617790875001,1.425140380859375,0.5709686279296875,-0.5221099853515625,1,0.99
2020-05-16 12:08:21.784 -0400,9351.6876245,0.7802886962890625,0.09869384765625,-0.2403717041015625,1,0.99
2020-05-16 12:08:21.854 -0400,9351.757456500001,0.4855499267578125,0.264190673828125,-0.1750640869140625,1,0.99
2020-05-16 12:08:21.924 -0400,9351.8272915,0.45880126953125,0.527191162109375,-0.200164794921875,1,0.99
2020-05-16 12:08:21.994 -0400,9351.897129500001,0.8252410888671875,0.60125732421875,-0.2442169189453125,1,0.99
2020-05-16 12:08:22.064 -0400,9351.9669675,1.388442993164062,0.81597900390625,-0.3530120849609375,1,0.99
2020-05-16 12:08:22.133 -0400,9352.0368055,1.436416625976562,0.730621337890625,-0.30712890625,1,0.99
2020-05-16 12:08:22.203 -0400,9352.1066405,1.283538818359375,0.4610595703125,-0.4104156494140625,1,0.99
2020-05-16 12:08:22.273 -0400,9352.1764745,1.498992919921875,0.5004425048828125,-0.1798248291015625,1,0.99
2020-05-16 12:08:22.343 -0400,9352.246311500001,0.865142822265625,0.32098388671875,-0.2034454345703125,1,0.99
2020-05-16 12:08:22.413 -0400,9352.3161475,0.661865234375,0.2656097412109375,-0.063385009765625,1,0.99
2020-05-16 12:08:22.482 -0400,9352.385984500001,0.645599365234375,0.2393798828125,-0.04864501953125,1,0.99
2020-05-16 12:08:22.552 -0400,9352.455820500001,0.6897430419921875,0.2561187744140625,0.0359039306640625,1,0.99
2020-05-16 12:08:22.622 -0400,9352.5256565,0.7111968994140625,0.31842041015625,0.099151611328125,1,0.99
2020-05-16 12:08:22.692 -0400,9352.5954905,1.280807495117188,0.731597900390625,-0.0345458984375,1,0.99
2020-05-16 12:08:22.762 -0400,9352.665328750001,1.585128784179688,0.7225799560546875,-0.47589111328125,1,0.99
2020-05-16 12:08:22.832 -0400,9352.73516975,0.9642486572265625,0.38189697265625,-0.33526611328125,1,0.99
2020-05-16 12:08:22.902 -0400,9352.80500975,0.232025146484375,0.2467193603515625,-0.1011962890625,1,0.99
2020-05-16 12:08:22.971 -0400,9352.87484875,0.1385345458984375,0.7430419921875,-0.2678985595703125,1,0.99
2020-05-16 12:08:23.041 -0400,9352.94468375,0.6469573974609375,0.8328399658203125,-0.2907867431640625,1,0.99
2020-05-16 12:08:23.111 -0400,9353.014521750001,1.213455200195312,0.803955078125,-0.399078369140625,1,0.99
2020-05-16 12:08:23.181 -0400,9353.08436375,0.96142578125,0.86322021484375,-0.534942626953125,1,0.99
2020-05-16 12:08:23.251 -0400,9353.15420275,1.398193359375,0.562835693359375,-0.2305755615234375,1,0.99
2020-05-16 12:08:23.321 -0400,9353.224039750001,1.244857788085938,0.3968353271484375,-0.0098876953125,1,0.99
2020-05-16 12:08:23.390 -0400,9353.293867750001,1.227432250976562,0.7312164306640625,-0.1686859130859375,1,0.99
2020-05-16 12:08:23.460 -0400,9353.36370175,0.6064300537109375,0.36767578125,-0.0089874267578125,1,0.99
2020-05-16 12:08:23.530 -0400,9353.43353475,0.466766357421875,0.3073272705078125,-0.02215576171875,1,0.99
2020-05-16 12:08:23.600 -0400,9353.503367750001,1.119491577148438,0.327972412109375,-0.09588623046875,1,0.99
2020-05-16 12:08:23.670 -0400,9353.573199750001,1.332962036132812,0.1460113525390625,0.3185272216796875,1,0.99
2020-05-16 12:08:23.740 -0400,9353.643029500001,1.052337646484375,0.3470611572265625,-0.0455780029296875,1,0.99
2020-05-16 12:08:23.809 -0400,9353.712869500001,0.748016357421875,0.61968994140625,-0.1359100341796875,1,0.99
2020-05-16 12:08:23.879 -0400,9353.7827065,1.206771850585938,0.7955322265625,-0.53863525390625,1,0.99
2020-05-16 12:08:23.949 -0400,9353.852544500001,1.064102172851562,0.014862060546875,0.0573577880859375,1,0.99
2020-05-16 12:08:24.019 -0400,9353.922382500001,0.72808837890625,0.175933837890625,-0.3670806884765625,1,0.99
2020-05-16 12:08:24.089 -0400,9353.9922195,0.42889404296875,0.5233917236328125,-0.27642822265625,1,0.99
2020-05-16 12:08:24.159 -0400,9354.0620555,0.281829833984375,0.4001007080078125,-0.1788482666015625,1,0.99
2020-05-16 12:08:24.228 -0400,9354.131892500001,0.5440521240234375,0.20977783203125,-0.3176727294921875,1,0.99
2020-05-16 12:08:24.307 -0400,9354.201729500001,1.199737548828125,0.662017822265625,-0.1745452880859375,1,0.99
2020-05-16 12:08:24.368 -0400,9354.2715615,1.802490234375,0.5824127197265625,-0.3441162109375,1,0.99
2020-05-16 12:08:24.438 -0400,9354.341398500001,1.5274658203125,0.6282501220703125,-0.2501220703125,1,0.99
2020-05-16 12:08:24.508 -0400,9354.411233500001,1.507492065429688,0.445526123046875,-0.2042999267578125,1,0.99
2020-05-16 12:08:24.578 -0400,9354.481063500001,0.7203369140625,0.26287841796875,-0.181396484375,1,0.99
2020-05-16 12:08:24.647 -0400,9354.5508985,0.27130126953125,0.265228271484375,-0.0975799560546875,1,0.99
2020-05-16 12:08:24.717 -0400,9354.6207335,0.1771697998046875,0.288360595703125,-0.0615692138671875,1,0.99
2020-05-16 12:08:24.787 -0400,9354.6905695,0.575408935546875,0.2540740966796875,-0.0395355224609375,1,0.99
2020-05-16 12:08:24.857 -0400,9354.7604085,1.370697021484375,0.32330322265625,0.15460205078125,1,0.99
2020-05-16 12:08:24.927 -0400,9354.8302415,1.47186279296875,0.3832244873046875,0.10888671875,1,0.99
2020-05-16 12:08:24.997 -0400,9354.900072500001,1.382247924804688,0.8219451904296875,-0.62725830078125,1,0.99
2020-05-16 12:08:25.066 -0400,9354.9699045,1.269683837890625,0.3196563720703125,-0.2946929931640625,1,0.99
2020-05-16 12:08:25.136 -0400,9355.0397355,0.551513671875,-0.0099639892578125,-0.358673095703125,1,0.99
2020-05-16 12:08:25.206 -0400,9355.1095635,0.2169189453125,0.0365447998046875,-0.2813873291015625,1,0.99
2020-05-16 12:08:25.276 -0400,9355.1793925,0.23614501953125,0.624053955078125,-0.1037445068359375,1,0.99
2020-05-16 12:08:25.346 -0400,9355.249223500001,0.7348480224609375,0.53094482421875,-0.2419281005859375,1,0.99
2020-05-16 12:08:25.416 -0400,9355.319052500001,1.261505126953125,0.6782379150390625,-0.3259735107421875,1,0.99
2020-05-16 12:08:25.485 -0400,9355.3888855,1.875152587890625,1.009201049804688,-0.439117431640625,1,0.99
2020-05-16 12:08:25.555 -0400,9355.4587175,1.284103393554688,-0.1347198486328125,-0.20135498046875,1,0.99
2020-05-16 12:08:25.625 -0400,9355.528550500001,0.9258575439453125,-0.005645751953125,-0.19696044921875,1,0.99
2020-05-16 12:08:25.695 -0400,9355.598384500001,0.7242584228515625,0.375274658203125,-0.3082733154296875,1,0.99
2020-05-16 12:08:25.765 -0400,9355.668218125,0.54437255859375,0.4709930419921875,-0.000396728515625,1,0.99
2020-05-16 12:08:25.835 -0400,9355.738056125001,0.626068115234375,0.3363494873046875,-0.022247314453125,1,0.99
2020-05-16 12:08:25.904 -0400,9355.807890125001,0.9062347412109375,0.2569580078125,0.023101806640625,1,0.99
2020-05-16 12:08:25.974 -0400,9355.877726125,1.064834594726562,0.232818603515625,0.0362548828125,1,0.99
2020-05-16 12:08:26.044 -0400,9355.947565125001,1.336868286132812,0.48651123046875,-0.093475341796875,1,0.99
2020-05-16 12:08:26.114 -0400,9356.017406125,0.870697021484375,0.6152496337890625,-0.5545654296875,1,0.99
2020-05-16 12:08:26.184 -0400,9356.087246125,1.302963256835938,0.3451080322265625,-0.2896270751953125,1,0.99
2020-05-16 12:08:26.254 -0400,9356.157087125001,0.6893157958984375,0.088043212890625,-0.3910064697265625,1,0.99
2020-05-16 12:08:26.323 -0400,9356.226928125001,0.47100830078125,0.3743743896484375,-0.2944793701171875,1,0.99
2020-05-16 12:08:26.393 -0400,9356.296769125001,0.549774169921875,0.4047393798828125,-0.3532867431640625,1,0.99
2020-05-16 12:08:26.463 -0400,9356.366609125,0.8345489501953125,0.42138671875,-0.4362640380859375,1,0.99
2020-05-16 12:08:26.533 -0400,9356.436450125,1.291595458984375,0.57464599609375,-0.50238037109375,1,0.99
2020-05-16 12:08:26.603 -0400,9356.506287125001,1.464889526367188,0.5381927490234375,-0.458343505859375,1,0.99
2020-05-16 12:08:26.673 -0400,9356.576127125001,1.236053466796875,0.3505096435546875,-0.3140869140625,1,0.99
2020-05-16 12:08:26.742 -0400,9356.645965875001,1.205703735351562,0.5244293212890625,-0.1875762939453125,1,0.99
2020-05-16 12:08:26.812 -0400,9356.715802875,0.7639617919921875,0.3018035888671875,-0.1535186767578125,1,0.99
2020-05-16 12:08:26.882 -0400,9356.785639875001,0.5399627685546875,0.3458099365234375,-0.01654052734375,1,0.99
2020-05-16 12:08:26.952 -0400,9356.855479875001,0.6027984619140625,0.367919921875,0.0096588134765625,1,0.99
2020-05-16 12:08:27.022 -0400,9356.925316875,0.9158935546875,0.3697052001953125,-0.058319091796875,1,0.99
2020-05-16 12:08:27.092 -0400,9356.995155875,1.007919311523438,0.2241363525390625,-0.0330352783203125,1,0.99
2020-05-16 12:08:27.162 -0400,9357.064997875001,1.101547241210938,0.4000701904296875,-0.2032928466796875,1,0.99
2020-05-16 12:08:27.231 -0400,9357.134840875,1.007553100585938,0.487701416015625,-0.4497528076171875,1,0.99
2020-05-16 12:08:27.301 -0400,9357.204680875,1.26617431640625,0.3800201416015625,-0.4641265869140625,1,0.99
2020-05-16 12:08:27.371 -0400,9357.274521875001,0.554046630859375,0.192352294921875,-0.43536376953125,1,0.99
2020-05-16 12:08:27.441 -0400,9357.344363875001,0.3568878173828125,0.310089111328125,-0.2183837890625,1,0.99
2020-05-16 12:08:27.511 -0400,9357.414204875,0.610443115234375,0.55902099609375,-0.23748779296875,1,0.99
2020-05-16 12:08:27.581 -0400,9357.484044875,1.188323974609375,0.8018951416015625,-0.464935302734375,1,0.99
2020-05-16 12:08:27.650 -0400,9357.553884875,1.339462280273438,0.7029266357421875,-0.445831298828125,1,0.99
2020-05-16 12:08:27.720 -0400,9357.623722875001,1.151229858398438,0.314178466796875,-0.2971343994140625,1,0.99
2020-05-16 12:08:27.790 -0400,9357.693560916667,1.3905029296875,0.8333587646484375,-0.3058624267578125,1,0.99
2020-05-16 12:08:27.860 -0400,9357.763398916668,0.963775634765625,0.4378814697265625,-0.32342529296875,1,0.99
2020-05-16 12:08:27.930 -0400,9357.833235916667,0.553253173828125,0.252716064453125,-0.20574951171875,1,0.99
2020-05-16 12:08:28.000 -0400,9357.903072916668,0.47216796875,0.2437896728515625,-0.06475830078125,1,0.99
2020-05-16 12:08:28.070 -0400,9357.972908916667,0.6556854248046875,0.22760009765625,-0.1136932373046875,1,0.99
2020-05-16 12:08:28.140 -0400,9358.042742916667,0.94989013671875,0.2020263671875,-0.018798828125,1,0.99
2020-05-16 12:08:28.209 -0400,9358.112573916667,1.140090942382812,0.326171875,0.0300750732421875,1,0.99
2020-05-16 12:08:28.279 -0400,9358.182405916667,1.181625366210938,0.68450927734375,-0.4327545166015625,1,0.99
2020-05-16 12:08:28.353 -0400,9358.252238916668,1.52008056640625,0.4815673828125,-0.365020751953125,1,0.99
2020-05-16 12:08:28.419 -0400,9358.322071916667,0.690704345703125,-0.105682373046875,-0.3531341552734375,1,0.99
2020-05-16 12:08:28.488 -0400,9358.391907916668,0.3287200927734375,0.0955352783203125,-0.1418304443359375,1,0.99
2020-05-16 12:08:28.558 -0400,9358.461742916666,0.3778228759765625,0.791168212890625,-0.30633544921875,1,0.99
2020-05-16 12:08:28.628 -0400,9358.531577916667,0.64752197265625,0.52593994140625,-0.37628173828125,1,0.99
2020-05-16 12:08:28.698 -0400,9358.601409916668,1.412017822265625,0.547637939453125,-0.4752044677734375,1,0.99
2020-05-16 12:08:28.768 -0400,9358.671242291668,1.58233642578125,0.569549560546875,-0.4550323486328125,1,0.99
2020-05-16 12:08:28.838 -0400,9358.741073291667,1.305831909179688,0.4416961669921875,-0.3256378173828125,1,0.99
2020-05-16 12:08:28.907 -0400,9358.810905291668,1.328781127929688,0.4908447265625,-0.275909423828125,1,0.99
2020-05-16 12:08:28.977 -0400,9358.880737291667,0.646331787109375,0.2944793701171875,-0.253204345703125,1,0.99
2020-05-16 12:08:29.047 -0400,9358.950569291666,0.3527679443359375,0.463165283203125,-0.11334228515625,1,0.99
2020-05-16 12:08:29.117 -0400,9359.020402291668,0.3722991943359375,0.12884521484375,-0.0828399658203125,1,0.99
2020-05-16 12:08:29.187 -0400,9359.090239291667,0.96612548828125,0.2585601806640625,-0.1511688232421875,1,0.99
2020-05-16 12:08:29.258 -0400,9359.160075291667,0.946533203125,0.3161773681640625,-0.086456298828125,1,0.99
2020-05-16 12:08:29.327 -0400,9359.229909291667,1.430511474609375,0.5461273193359375,-0.2858123779296875,1,0.99
2020-05-16 12:08:29.396 -0400,9359.299745291668,1.386672973632812,0.4775848388671875,-0.5035552978515625,1,0.99
2020-05-16 12:08:29.466 -0400,9359.369582291667,0.9752960205078125,0.2998504638671875,-0.2088623046875,1,0.99
2020-05-16 12:08:29.536 -0400,9359.439418291668,0.45245361328125,0.2628021240234375,-0.185211181640625,1,0.99
2020-05-16 12:08:29.606 -0400,9359.509255291667,0.5170745849609375,0.492401123046875,-0.2907257080078125,1,0.99
2020-05-16 12:08:29.676 -0400,9359.579089291667,0.8119049072265625,0.4366455078125,-0.34405517578125,1,0.99
2020-05-16 12:08:29.746 -0400,9359.648927375001,0.9620819091796875,0.37628173828125,-0.4742889404296875,1,0.99
2020-05-16 12:08:29.815 -0400,9359.718763375,1.8070068359375,0.8564453125,-0.7176513671875,1,0.99
2020-05-16 12:08:29.885 -0400,9359.788600375001,1.253341674804688,0.1876068115234375,-0.2652130126953125,1,0.99
2020-05-16 12:08:29.955 -0400,9359.858439375001,1.068099975585938,0.509552001953125,-0.097991943359375,1,0.99
2020-05-16 12:08:30.025 -0400,9359.928279375001,0.75408935546875,0.5753631591796875,-0.2189788818359375,1,0.99
2020-05-16 12:08:30.095 -0400,9359.998111375,0.54046630859375,0.36663818359375,-0.2119293212890625,1,0.99
2020-05-16 12:08:30.165 -0400,9360.067946375,0.7191925048828125,0.24371337890625,-0.048858642578125,1,0.99
2020-05-16 12:08:30.234 -0400,9360.137784375,1.14007568359375,0.0815582275390625,-0.005340576171875,1,0.99
2020-05-16 12:08:30.304 -0400,9360.207622375001,0.8813323974609375,0.306976318359375,-0.046051025390625,1,0.99
2020-05-16 12:08:30.374 -0400,9360.277464375,1.072769165039062,0.5319366455078125,-0.1986846923828125,1,0.99
2020-05-16 12:08:30.444 -0400,9360.347302375001,1.290115356445312,0.6060028076171875,-0.4286041259765625,1,0.99
2020-05-16 12:08:30.514 -0400,9360.417138375,1.180252075195312,0.4275360107421875,-0.3942413330078125,1,0.99
2020-05-16 12:08:30.584 -0400,9360.486975375001,0.5498504638671875,0.0623779296875,-0.2695770263671875,1,0.99
2020-05-16 12:08:30.653 -0400,9360.556815375001,0.5417938232421875,0.4263763427734375,-0.218994140625,1,0.99
2020-05-16 12:08:30.723 -0400,9360.626650375001,0.7940521240234375,0.750030517578125,-0.45306396484375,1,0.99
2020-05-16 12:08:30.793 -0400,9360.696486500001,1.096099853515625,0.6212921142578125,-0.5566558837890625,1,0.99
2020-05-16 12:08:30.863 -0400,9360.7663235,1.519012451171875,0.5166473388671875,-0.42926025390625,1,0.99
2020-05-16 12:08:30.933 -0400,9360.836161500001,1.526596069335938,0.57464599609375,-0.48077392578125,1,0.99
2020-05-16 12:08:31.002 -0400,9360.905999500001,1.526275634765625,0.243682861328125,-0.1575469970703125,1,0.99
2020-05-16 12:08:31.073 -0400,9360.975840500001,0.779754638671875,0.2872161865234375,-0.210845947265625,1,0.99
2020-05-16 12:08:31.142 -0400,9361.045680500001,0.5325927734375,0.3973236083984375,-0.099029541015625,1,0.99
2020-05-16 12:08:31.212 -0400,9361.115518500001,0.54742431640625,0.3103485107421875,-0.051849365234375,1,0.99
2020-05-16 12:08:31.282 -0400,9361.185354500001,0.770904541015625,0.18353271484375,-0.128570556640625,1,0.99
2020-05-16 12:08:31.352 -0400,9361.2551915,0.727081298828125,0.0648345947265625,-0.1922607421875,1,0.99
2020-05-16 12:08:31.422 -0400,9361.3250295,0.86456298828125,0.2567596435546875,-0.311309814453125,1,0.99
2020-05-16 12:08:31.491 -0400,9361.394866500001,1.56903076171875,0.523162841796875,-0.543731689453125,1,0.99
2020-05-16 12:08:31.561 -0400,9361.4647055,1.340957641601562,0.42449951171875,-0.3917236328125,1,0.99
2020-05-16 12:08:31.631 -0400,9361.534545500001,0.743682861328125,0.2581787109375,-0.23577880859375,1,0.99
2020-05-16 12:08:31.701 -0400,9361.6043835,0.7277069091796875,0.6347503662109375,-0.1826324462890625,1,0.99
2020-05-16 12:08:31.771 -0400,9361.674219916667,0.8246002197265625,0.7620391845703125,-0.4062652587890625,1,0.99
2020-05-16 12:08:31.841 -0400,9361.744053916667,1.194488525390625,0.919677734375,-0.540069580078125,1,0.99
2020-05-16 12:08:31.910 -0400,9361.813892916667,1.592864990234375,0.1985626220703125,-0.3097686767578125,1,0.99
2020-05-16 12:08:31.980 -0400,9361.883730916667,1.44268798828125,0.4398193359375,-0.319000244140625,1,0.99
2020-05-16 12:08:32.050 -0400,9361.953569916668,1.321578979492188,0.5530242919921875,-0.3434600830078125,1,0.99
2020-05-16 12:08:32.120 -0400,9362.023404916667,0.5911407470703125,0.284698486328125,-0.25213623046875,1,0.99
2020-05-16 12:08:32.190 -0400,9362.093239916667,0.4892578125,0.2227325439453125,-0.1046600341796875,1,0.99
2020-05-16 12:08:32.260 -0400,9362.163073916667,0.65020751953125,0.1020050048828125,-0.0861663818359375,1,0.99
2020-05-16 12:08:32.329 -0400,9362.232909916667,0.9270172119140625,0.1820526123046875,0.01861572265625,1,0.99
2020-05-16 12:08:32.399 -0400,9362.302744916668,1.345352172851562,0.3098297119140625,0.1477813720703125,1,0.99
2020-05-16 12:08:32.469 -0400,9362.372579916668,1.603195190429688,0.7679443359375,-0.3347930908203125,1,0.99
2020-05-16 12:08:32.539 -0400,9362.442415916667,1.4571533203125,0.6549224853515625,-0.3045196533203125,1,0.99
2020-05-16 12:08:32.609 -0400,9362.512253916668,0.634033203125,0.194610595703125,-0.273406982421875,1,0.99
2020-05-16 12:08:32.679 -0400,9362.582087916668,0.5117034912109375,0.2068634033203125,-0.2310333251953125,1,0.99
2020-05-16 12:08:32.748 -0400,9362.651918625001,0.7318115234375,0.6844329833984375,-0.4813079833984375,1,0.99
2020-05-16 12:08:32.818 -0400,9362.721754625001,1.099273681640625,0.74102783203125,-0.7506256103515625,1,0.99
2020-05-16 12:08:32.888 -0400,9362.791588625001,1.466827392578125,0.3272705078125,-0.5550994873046875,1,0.99
2020-05-16 12:08:32.958 -0400,9362.861424625,1.238327026367188,0.390838623046875,-0.5594940185546875,1,0.99
2020-05-16 12:08:33.028 -0400,9362.931256625001,1.532379150390625,0.3330230712890625,-0.3063201904296875,1,0.99
2020-05-16 12:08:33.098 -0400,9363.001083625,1.163864135742188,0.2515106201171875,-0.2332763671875,1,0.99
2020-05-16 12:08:33.168 -0400,9363.070914625001,0.5678863525390625,0.3571014404296875,-0.2820281982421875,1,0.99
2020-05-16 12:08:33.237 -0400,9363.140745625,0.2870635986328125,0.2655181884765625,-0.1161651611328125,1,0.99
2020-05-16 12:08:33.310 -0400,9363.210575625,0.3649749755859375,0.1829986572265625,-0.0673675537109375,1,0.99
2020-05-16 12:08:33.377 -0400,9363.280406625001,0.8886871337890625,0.1661529541015625,-0.1100921630859375,1,0.99
2020-05-16 12:08:33.447 -0400,9363.350239625001,0.9576263427734375,0.255279541015625,-0.1026763916015625,1,0.99
2020-05-16 12:08:33.517 -0400,9363.420074625001,1.49774169921875,0.488311767578125,-0.2615966796875,1,0.99
2020-05-16 12:08:33.587 -0400,9363.489907625,1.755783081054688,0.5738677978515625,-0.59954833984375,1,0.99
2020-05-16 12:08:33.656 -0400,9363.559742625001,0.8828582763671875,0.3487701416015625,-0.3383941650390625,1,0.99
2020-05-16 12:08:33.726 -0400,9363.629577625001,0.572784423828125,0.3025054931640625,-0.22100830078125,1,0.99
2020-05-16 12:08:33.796 -0400,9363.69941225,0.6923675537109375,0.655975341796875,-0.212890625,1,0.99
2020-05-16 12:08:33.866 -0400,9363.76924625,0.889129638671875,0.7818450927734375,-0.4091949462890625,1,0.99
2020-05-16 12:08:33.936 -0400,9363.839078250001,1.24432373046875,0.8136749267578125,-0.499359130859375,1,0.99
2020-05-16 12:08:34.005 -0400,9363.90890925,1.388259887695312,0.584014892578125,-0.53369140625,1,0.99
2020-05-16 12:08:34.075 -0400,9363.97873825,1.72265625,0.34259033203125,-0.31768798828125,1,0.99
2020-05-16 12:08:34.145 -0400,9364.048569250001,1.131973266601562,0.277984619140625,-0.28912353515625,1,0.99
2020-05-16 12:08:34.215 -0400,9364.118400250001,0.5951385498046875,0.3362884521484375,-0.234832763671875,1,0.99
2020-05-16 12:08:34.285 -0400,9364.188228250001,0.479766845703125,0.266876220703125,-0.0450592041015625,1,0.99
2020-05-16 12:08:34.355 -0400,9364.25805425,0.7726287841796875,0.1949310302734375,-0.0887298583984375,1,0.99
2020-05-16 12:08:34.424 -0400,9364.32787925,0.951080322265625,0.1578826904296875,0.0301971435546875,1,0.99
2020-05-16 12:08:34.494 -0400,9364.39770725,1.245468139648438,0.3457183837890625,-0.1042938232421875,1,0.99
2020-05-16 12:08:34.564 -0400,9364.467539250001,1.351760864257812,0.597320556640625,-0.4401092529296875,1,0.99
2020-05-16 12:08:34.634 -0400,9364.53737025,1.274429321289062,0.470733642578125,-0.2576446533203125,1,0.99
2020-05-16 12:08:34.704 -0400,9364.60719925,0.824462890625,0.261444091796875,-0.254119873046875,1,0.99
2020-05-16 12:08:34.774 -0400,9364.677027875001,0.632537841796875,0.4752655029296875,-0.2026214599609375,1,0.99
2020-05-16 12:08:34.843 -0400,9364.746858875,0.955047607421875,0.677337646484375,-0.302947998046875,1,0.99
2020-05-16 12:08:34.913 -0400,9364.816687875,1.119293212890625,0.5620269775390625,-0.495452880859375,1,0.99
2020-05-16 12:08:34.983 -0400,9364.886514875001,1.572357177734375,0.6311492919921875,-0.4478912353515625,1,0.99
2020-05-16 12:08:35.053 -0400,9364.956342875001,1.23162841796875,0.4691314697265625,-0.282745361328125,1,0.99
2020-05-16 12:08:35.123 -0400,9365.026175875,1.243209838867188,0.5009613037109375,-0.1376495361328125,1,0.99
2020-05-16 12:08:35.193 -0400,9365.096004875,0.95709228515625,0.350341796875,-0.115997314453125,1,0.99
2020-05-16 12:08:35.263 -0400,9365.165832875,0.56341552734375,0.2423248291015625,0.01934814453125,1,0.99
2020-05-16 12:08:35.332 -0400,9365.235661875,0.5209808349609375,0.3348236083984375,-0.034637451171875,1,0.99
2020-05-16 12:08:35.402 -0400,9365.305489875,1.209442138671875,0.398529052734375,-0.027587890625,1,0.99
2020-05-16 12:08:35.472 -0400,9365.375314875,1.310394287109375,0.181671142578125,0.0749664306640625,1,0.99
2020-05-16 12:08:35.542 -0400,9365.445142875,1.194351196289062,0.3892669677734375,-0.14801025390625,1,0.99
2020-05-16 12:08:35.612 -0400,9365.514973875001,1.0577392578125,0.5379791259765625,-0.28472900390625,1,0.99
2020-05-16 12:08:35.681 -0400,9365.584804875001,0.9854278564453125,0.30694580078125,-0.109100341796875,1,0.99
2020-05-16 12:08:35.751 -0400,9365.654640541667,0.5655364990234375,0.2392578125,-0.3034515380859375,1,0.99
2020-05-16 12:08:35.821 -0400,9365.724474541666,0.3973541259765625,0.3429412841796875,-0.177734375,1,0.99
2020-05-16 12:08:35.891 -0400,9365.794308541666,0.62396240234375,0.436370849609375,-0.302276611328125,1,0.99
2020-05-16 12:08:35.961 -0400,9365.864142541668,1.159530639648438,0.452301025390625,-0.41046142578125,1,0.99
2020-05-16 12:08:36.030 -0400,9365.933976541668,1.42645263671875,0.3343353271484375,-0.482208251953125,1,0.99
2020-05-16 12:08:36.100 -0400,9366.003811541666,1.210906982421875,0.7132568359375,-0.3243560791015625,1,0.99
2020-05-16 12:08:36.170 -0400,9366.073646541667,1.035812377929688,0.5468597412109375,-0.1182403564453125,1,0.99
2020-05-16 12:08:36.240 -0400,9366.143477541667,1.097671508789062,0.437164306640625,-0.050933837890625,1,0.99
2020-05-16 12:08:36.310 -0400,9366.213304541667,0.778839111328125,0.34918212890625,-0.014404296875,1,0.99
2020-05-16 12:08:36.380 -0400,9366.283132541666,0.4616241455078125,0.4382476806640625,0.1959686279296875,1,0.99
2020-05-16 12:08:36.449 -0400,9366.352965541668,0.5447998046875,0.6597442626953125,0.240142822265625,1,0.99
2020-05-16 12:08:36.519 -0400,9366.422799541668,1.049453735351562,0.6211700439453125,0.34197998046875,1,0.99
2020-05-16 12:08:36.589 -0400,9366.492633541668,1.035308837890625,0.7000732421875,0.2103424072265625,1,0.99
2020-05-16 12:08:36.659 -0400,9366.562468541668,0.768280029296875,0.7974395751953125,0.02880859375,1,0.99
2020-05-16 12:08:36.729 -0400,9366.632302541668,0.771026611328125,0.704681396484375,-0.2761077880859375,1,0.99
2020-05-16 12:08:36.798 -0400,9366.70213575,0.66009521484375,0.699005126953125,-0.262542724609375,1,0.99
2020-05-16 12:08:36.868 -0400,9366.77197075,0.21246337890625,0.3560943603515625,-0.05303955078125,1,0.99
2020-05-16 12:08:36.938 -0400,9366.841806750001,0.1895751953125,0.4182281494140625,0.02001953125,1,0.99
2020-05-16 12:08:37.008 -0400,9366.91164375,0.49053955078125,0.802093505859375,-0.2033538818359375,1,0.99
2020-05-16 12:08:37.078 -0400,9366.981480750001,0.5901947021484375,1.179412841796875,-0.0152435302734375,1,0.99
2020-05-16 12:08:37.148 -0400,9367.051316750001,0.5524749755859375,1.303558349609375,0.24371337890625,1,0.99
2020-05-16 12:08:37.218 -0400,9367.12115275,0.98248291015625,1.37994384765625,0.218658447265625,1,0.99
2020-05-16 12:08:37.288 -0400,9367.190985750001,1.182662963867188,1.2239990234375,0.074615478515625,1,0.99
2020-05-16 12:08:37.358 -0400,9367.260819750001,0.82171630859375,0.8164520263671875,0.3228912353515625,1,0.99
2020-05-16 12:08:37.427 -0400,9367.33064975,0.3126220703125,0.6359405517578125,0.063629150390625,1,0.99
2020-05-16 12:08:37.497 -0400,9367.400482750001,0.076751708984375,0.13909912109375,-0.1750335693359375,1,0.99
2020-05-16 12:08:37.567 -0400,9367.47031375,0.4389801025390625,0.5723114013671875,0.0395660400390625,1,0.99
2020-05-16 12:08:37.637 -0400,9367.540146750001,0.4580078125,0.7141571044921875,-0.494964599609375,1,0.99
2020-05-16 12:08:37.707 -0400,9367.60998275,1.228042602539062,0.9483795166015625,-0.5956878662109375,1,0.99
2020-05-16 12:08:37.776 -0400,9367.679818791667,0.6861419677734375,0.7434539794921875,-0.29547119140625,1,0.99
2020-05-16 12:08:37.846 -0400,9367.749650791668,0.91796875,0.66864013671875,-0.543121337890625,1,0.99
2020-05-16 12:08:37.916 -0400,9367.819484791667,-0.0352630615234375,0.179931640625,-0.266754150390625,1,0.99
2020-05-16 12:08:37.986 -0400,9367.889321791667,0.0693359375,0.1487579345703125,-0.3553314208984375,1,0.99
2020-05-16 12:08:38.056 -0400,9367.959153791668,0.436370849609375,-0.2435150146484375,-0.0963287353515625,1,0.99
2020-05-16 12:08:38.125 -0400,9368.028989791666,1.044830322265625,0.14483642578125,-0.28668212890625,1,0.99
2020-05-16 12:08:38.195 -0400,9368.098827791668,1.792388916015625,0.754241943359375,-0.4288177490234375,1,0.99
2020-05-16 12:08:38.265 -0400,9368.168662791668,1.683746337890625,0.7754974365234375,-0.3682098388671875,1,0.99
2020-05-16 12:08:38.335 -0400,9368.238498791667,1.165603637695312,0.9970855712890625,-0.407562255859375,1,0.99
2020-05-16 12:08:38.405 -0400,9368.308337791666,0.79052734375,0.71826171875,0.0717926025390625,1,0.99
2020-05-16 12:08:38.475 -0400,9368.378175791668,0.329254150390625,0.599365234375,-0.1366424560546875,1,0.99
2020-05-16 12:08:38.545 -0400,9368.448013791667,0.404510498046875,0.5896453857421875,-0.12603759765625,1,0.99
2020-05-16 12:08:38.614 -0400,9368.517852791667,0.89434814453125,0.43853759765625,-0.1129913330078125,1,0.99
2020-05-16 12:08:38.684 -0400,9368.587690791668,1.570266723632812,0.3633575439453125,-0.116851806640625,1,0.99
2020-05-16 12:08:38.754 -0400,9368.657532500001,1.72918701171875,0.3429718017578125,-0.070587158203125,1,0.99
2020-05-16 12:08:38.824 -0400,9368.7273745,0.8583831787109375,0.4239501953125,-0.424560546875,1,0.99
2020-05-16 12:08:38.894 -0400,9368.797216500001,1.0040283203125,0.229095458984375,-0.02728271484375,1,0.99
2020-05-16 12:08:38.964 -0400,9368.867056500001,0.65838623046875,0.22607421875,-0.20196533203125,1,0.99
2020-05-16 12:08:39.033 -0400,9368.936894500001,0.3882598876953125,0.33819580078125,-0.1366424560546875,1,0.99
2020-05-16 12:08:39.103 -0400,9369.0067325,0.4520263671875,0.3496551513671875,-0.1208648681640625,1,0.99
2020-05-16 12:08:39.173 -0400,9369.0765715,0.76495361328125,0.395172119140625,-0.1890411376953125,1,0.99
2020-05-16 12:08:39.243 -0400,9369.146409500001,1.271499633789062,0.7536468505859375,-0.2079925537109375,1,0.99
2020-05-16 12:08:39.313 -0400,9369.2162515,1.739120483398438,0.7240142822265625,-0.4011077880859375,1,0.99
2020-05-16 12:08:39.383 -0400,9369.286093500001,1.147109985351562,0.47247314453125,-0.3293304443359375,1,0.99
2020-05-16 12:08:39.453 -0400,9369.355934500001,1.229812622070312,0.4717559814453125,-0.1949462890625,1,0.99
2020-05-16 12:08:39.522 -0400,9369.4257755,0.8346099853515625,0.287506103515625,-0.1049346923828125,1,0.99
2020-05-16 12:08:39.592 -0400,9369.4956155,0.4848175048828125,0.3236846923828125,-0.091461181640625,1,0.99
2020-05-16 12:08:39.662 -0400,9369.5654505,0.4481048583984375,0.3666534423828125,-0.02630615234375,1,0.99
2020-05-16 12:08:39.732 -0400,9369.635287500001,0.969390869140625,0.3706512451171875,-0.052825927734375,1,0.99
2020-05-16 12:08:39.802 -0400,9369.705124666667,1.342575073242188,0.2388916015625,-0.010650634765625,1,0.99
2020-05-16 12:08:39.872 -0400,9369.774961666668,1.316055297851562,0.293182373046875,-0.076690673828125,1,0.99
2020-05-16 12:08:39.941 -0400,9369.844792666667,0.9989471435546875,0.5595855712890625,-0.2782135009765625,1,0.99
2020-05-16 12:08:40.012 -0400,9369.914623666667,0.9466094970703125,0.397979736328125,-0.226287841796875,1,0.99
2020-05-16 12:08:40.081 -0400,9369.984455666667,0.858367919921875,0.156768798828125,-0.1457366943359375,1,0.99
2020-05-16 12:08:40.151 -0400,9370.054290666667,0.55181884765625,0.2744903564453125,-0.2632904052734375,1,0.99
2020-05-16 12:08:40.221 -0400,9370.124126666668,0.4335784912109375,0.369476318359375,-0.21240234375,1,0.99
2020-05-16 12:08:40.291 -0400,9370.193960666667,0.61517333984375,0.140655517578125,-0.475128173828125,1,0.99
2020-05-16 12:08:40.360 -0400,9370.263793666667,0.96258544921875,0.6425628662109375,-0.4906768798828125,1,0.99
2020-05-16 12:08:40.430 -0400,9370.333630666668,1.33349609375,0.5440216064453125,-0.218353271484375,1,0.99
2020-05-16 12:08:40.500 -0400,9370.403465666668,1.4102783203125,0.4086761474609375,-0.47796630859375,1,0.99
2020-05-16 12:08:40.570 -0400,9370.473301666667,1.375213623046875,0.4418182373046875,-0.184326171875,1,0.99
2020-05-16 12:08:40.640 -0400,9370.543134666666,1.139312744140625,0.1669464111328125,0.00885009765625,1,0.99
2020-05-16 12:08:40.709 -0400,9370.612968666666,0.61328125,0.408203125,-0.076385498046875,1,0.99
2020-05-16 12:08:40.779 -0400,9370.682805375001,0.5046844482421875,0.4254608154296875,-0.008087158203125,1,0.99
2020-05-16 12:08:40.849 -0400,9370.752641375,0.89373779296875,0.3490447998046875,0.031829833984375,1,0.99
2020-05-16 12:08:40.919 -0400,9370.822476375,1.346771240234375,0.2351531982421875,0.036285400390625,1,0.99
2020-05-16 12:08:40.989 -0400,9370.892311375001,1.250656127929688,0.324951171875,-0.0290679931640625,1,0.99
2020-05-16 12:08:41.058 -0400,9370.962148375,1.258209228515625,0.5531768798828125,-0.5388336181640625,1,0.99
2020-05-16 12:08:41.128 -0400,9371.031981375001,1.053421020507812,0.173309326171875,-0.2802581787109375,1,0.99
2020-05-16 12:08:41.198 -0400,9371.101811375,0.7443695068359375,0.058135986328125,-0.426727294921875,1,0.99
2020-05-16 12:08:41.268 -0400,9371.171639375001,0.486053466796875,0.629180908203125,-0.367889404296875,1,0.99
2020-05-16 12:08:41.338 -0400,9371.241471375,0.54376220703125,0.49554443359375,-0.2952728271484375,1,0.99
2020-05-16 12:08:41.408 -0400,9371.311307375001,0.8686065673828125,0.4337615966796875,-0.3163604736328125,1,0.99
2020-05-16 12:08:41.478 -0400,9371.381138375,1.408035278320312,0.33233642578125,-0.2852020263671875,1,0.99
2020-05-16 12:08:41.548 -0400,9371.450972375,1.3116455078125,0.3779296875,-0.322601318359375,1,0.99
2020-05-16 12:08:41.617 -0400,9371.520806375,1.170883178710938,0.6312103271484375,-0.4710540771484375,1,0.99
2020-05-16 12:08:41.687 -0400,9371.590645375001,1.390090942382812,0.29339599609375,-0.1679840087890625,1,0.99
2020-05-16 12:08:41.757 -0400,9371.660483000001,1.299331665039062,0.1295928955078125,-0.1402587890625,1,0.99
2020-05-16 12:08:41.827 -0400,9371.730319,0.7023162841796875,0.318084716796875,-0.105194091796875,1,0.99
2020-05-16 12:08:41.897 -0400,9371.800157,0.3889617919921875,0.3471527099609375,-0.0108184814453125,1,0.99
2020-05-16 12:08:41.966 -0400,9371.869991000001,0.4549713134765625,0.2610015869140625,0.050811767578125,1,0.99
2020-05-16 12:08:42.036 -0400,9371.939825000001,0.7421417236328125,0.2547760009765625,0.0526275634765625,1,0.99
2020-05-16 12:08:42.106 -0400,9372.009656,1.144302368164062,0.342010498046875,-0.0096282958984375,1,0.99
2020-05-16 12:08:42.176 -0400,9372.079485,1.4095458984375,0.4631195068359375,-0.2253875732421875,1,0.99
2020-05-16 12:08:42.246 -0400,9372.149315000001,1.088424682617188,0.5137786865234375,-0.5236968994140625,1,0.99
2020-05-16 12:08:42.316 -0400,9372.219148,1.335800170898438,0.2564697265625,-0.4161529541015625,1,0.99
2020-05-16 12:08:42.386 -0400,9372.288980000001,0.8012542724609375,0.013885498046875,-0.2780914306640625,1,0.99
2020-05-16 12:08:42.456 -0400,9372.35881,0.3293304443359375,0.42413330078125,-0.409149169921875,1,0.99
2020-05-16 12:08:42.525 -0400,9372.428642000001,0.3090057373046875,0.580230712890625,-0.467315673828125,1,0.99
2020-05-16 12:08:42.595 -0400,9372.498473000001,0.680755615234375,0.5494232177734375,-0.6155242919921875,1,0.99
2020-05-16 12:08:42.665 -0400,9372.568302,1.435104370117188,0.268524169921875,-0.4218292236328125,1,0.99
2020-05-16 12:08:42.735 -0400,9372.638135000001,1.578399658203125,0.338714599609375,-0.396240234375,1,0.99
2020-05-16 12:08:42.804 -0400,9372.707971125001,1.332687377929688,0.6496124267578125,-0.33355712890625,1,0.99
2020-05-16 12:08:42.875 -0400,9372.777807125001,1.433258056640625,0.5396728515625,-0.105743408203125,1,0.99
2020-05-16 12:08:42.944 -0400,9372.847642125,0.933135986328125,0.344696044921875,-0.0627899169921875,1,0.99
2020-05-16 12:08:43.014 -0400,9372.917474125001,0.6262359619140625,0.3197021484375,0.01068115234375,1,0.99
2020-05-16 12:08:43.084 -0400,9372.987311125,0.6145172119140625,0.293975830078125,0.008575439453125,1,0.99
2020-05-16 12:08:43.153 -0400,9373.057145125,0.82965087890625,0.229400634765625,0.006317138671875,1,0.99
2020-05-16 12:08:43.223 -0400,9373.126979125,0.9863128662109375,0.2610321044921875,-0.0606689453125,1,0.99
2020-05-16 12:08:43.293 -0400,9373.196816125001,1.288482666015625,0.3929443359375,-0.2101287841796875,1,0.99
2020-05-16 12:08:43.363 -0400,9373.266650125001,1.164566040039062,0.5101318359375,-0.6585845947265625,1,0.99
2020-05-16 12:08:43.433 -0400,9373.336485125001,1.310089111328125,0.2163238525390625,-0.37725830078125,1,0.99
2020-05-16 12:08:43.503 -0400,9373.406318125,0.78314208984375,0.0968475341796875,-0.327392578125,1,0.99
2020-05-16 12:08:43.572 -0400,9373.476158125,0.6341705322265625,0.448974609375,-0.250030517578125,1,0.99
2020-05-16 12:08:43.643 -0400,9373.545996125,0.71441650390625,0.609771728515625,-0.3820343017578125,1,0.99
2020-05-16 12:08:43.712 -0400,9373.615830125,0.8085479736328125,0.4607086181640625,-0.3579559326171875,1,0.99
2020-05-16 12:08:43.782 -0400,9373.685664625,1.082046508789062,0.5708160400390625,-0.37896728515625,1,0.99
2020-05-16 12:08:43.852 -0400,9373.755501625001,1.378311157226562,0.7369384765625,-0.4864959716796875,1,0.99
2020-05-16 12:08:43.922 -0400,9373.825335625001,1.319915771484375,0.3357696533203125,-0.2232666015625,1,0.99
2020-05-16 12:08:43.992 -0400,9373.895171625001,1.484237670898438,0.358642578125,-0.1966552734375,1,0.99
2020-05-16 12:08:44.061 -0400,9373.965006625,0.9334259033203125,0.344085693359375,-0.0848541259765625,1,0.99
2020-05-16 12:08:44.131 -0400,9374.034840625001,0.649383544921875,0.3649749755859375,-0.0124664306640625,1,0.99
2020-05-16 12:08:44.201 -0400,9374.104677625,0.6161956787109375,0.3119964599609375,0.0402069091796875,1,0.99
2020-05-16 12:08:44.271 -0400,9374.174515625,0.869476318359375,0.29644775390625,0.027740478515625,1,0.99
2020-05-16 12:08:44.341 -0400,9374.244351625,0.96307373046875,0.2428131103515625,0.00311279296875,1,0.99
2020-05-16 12:08:44.411 -0400,9374.314192625001,1.192886352539062,0.3688812255859375,-0.161407470703125,1,0.99
2020-05-16 12:08:44.480 -0400,9374.384027625001,0.920196533203125,0.4931793212890625,-0.4807586669921875,1,0.99
2020-05-16 12:08:44.550 -0400,9374.453864625,1.436660766601562,0.4151763916015625,-0.462554931640625,1,0.99
2020-05-16 12:08:44.620 -0400,9374.523703625,0.8348236083984375,0.0709381103515625,-0.338836669921875,1,0.99
2020-05-16 12:08:44.690 -0400,9374.593539625001,0.5333099365234375,0.406036376953125,-0.3092498779296875,1,0.99
2020-05-16 12:08:44.760 -0400,9374.663375,0.704132080078125,0.7213134765625,-0.39080810546875,1,0.99
2020-05-16 12:08:44.830 -0400,9374.733206000001,0.983062744140625,0.6089630126953125,-0.52410888671875,1,0.99
2020-05-16 12:08:44.900 -0400,9374.803039,1.285507202148438,0.4193115234375,-0.4337615966796875,1,0.99
2020-05-16 12:08:44.969 -0400,9374.872870000001,1.394515991210938,0.5147247314453125,-0.4727783203125,1,0.99
2020-05-16 12:08:45.039 -0400,9374.942704000001,1.449569702148438,0.5206146240234375,-0.3217620849609375,1,0.99
2020-05-16 12:08:45.109 -0400,9375.012534000001,1.308242797851562,0.3659820556640625,-0.1195068359375,1,0.99
2020-05-16 12:08:45.179 -0400,9375.082364,0.7751007080078125,0.412078857421875,-0.11773681640625,1,0.99
2020-05-16 12:08:45.249 -0400,9375.152197000001,0.55535888671875,0.3574676513671875,0.0074005126953125,1,0.99
2020-05-16 12:08:45.318 -0400,9375.222032,0.603851318359375,0.321533203125,-0.028106689453125,1,0.99
2020-05-16 12:08:45.388 -0400,9375.291865000001,0.822662353515625,0.311004638671875,-0.0789642333984375,1,0.99
2020-05-16 12:08:45.458 -0400,9375.361700000001,0.886993408203125,0.5720672607421875,-0.219512939453125,1,0.99
2020-05-16 12:08:45.528 -0400,9375.431533000001,0.747955322265625,0.5278778076171875,-0.9969482421875,1,0.99
2020-05-16 12:08:45.598 -0400,9375.501368000001,0.9853668212890625,0.14959716796875,-0.686431884765625,1,0.99
2020-05-16 12:08:45.668 -0400,9375.571202000001,0.7498931884765625,0.078521728515625,-0.634307861328125,1,0.99
2020-05-16 12:08:45.738 -0400,9375.641041000001,0.3606414794921875,0.0725555419921875,-0.6789398193359375,1,0.99
2020-05-16 12:08:45.807 -0400,9375.710881500001,0.3213348388671875,-0.0301361083984375,-0.6589202880859375,1,0.99
2020-05-16 12:08:45.877 -0400,9375.780716500001,0.326385498046875,-0.035614013671875,-0.857452392578125,1,0.99
2020-05-16 12:08:45.947 -0400,9375.850550500001,0.3155517578125,0.0344696044921875,-0.9605712890625,1,0.99
2020-05-16 12:08:46.017 -0400,9375.920383500001,0.3505096435546875,0.2543487548828125,-1.178314208984375,1,0.99
2020-05-16 12:08:46.087 -0400,9375.9902155,0.5214080810546875,0.4329681396484375,-1.3175048828125,1,0.99
2020-05-16 12:08:46.206 -0400,9376.1099335,0.381439208984375,0.2871551513671875,-0.979248046875,1,0.99
2020-05-16 12:08:46.326 -0400,9376.229654500001,0.0867767333984375,0.1113739013671875,-0.55426025390625,1,0.99
2020-05-16 12:08:46.446 -0400,9376.3493755,0.120086669921875,0.0721893310546875,-0.471221923828125,1,0.99
2020-05-16 12:08:46.571 -0400,9376.4690945,0.622955322265625,0.130706787109375,-0.6884613037109375,1,0.99
2020-05-16 12:08:46.685 -0400,9376.5888165,1.298980712890625,0.422637939453125,-0.5784454345703125,1,0.99
2020-05-16 12:08:46.805 -0400,9376.708539625,0.9190673828125,0.6760101318359375,-0.1890716552734375,1,0.99
2020-05-16 12:08:46.925 -0400,9376.828262625,0.5736541748046875,0.457275390625,-0.055084228515625,1,0.99
2020-05-16 12:08:47.044 -0400,9376.947976625001,0.95904541015625,0.6948089599609375,-0.092987060546875,1,0.99
2020-05-16 12:08:47.164 -0400,9377.067693625,1.097198486328125,0.7304534912109375,-0.17413330078125,1,0.99
2020-05-16 12:08:47.284 -0400,9377.187410625,1.52606201171875,0.543914794921875,-0.27154541015625,1,0.99
2020-05-16 12:08:47.403 -0400,9377.307133625001,0.7859344482421875,0.2086639404296875,-0.24322509765625,1,0.99
2020-05-16 12:08:47.533 -0400,9377.436837625,0.5510711669921875,0.1936798095703125,-0.146392822265625,1,0.99
2020-05-16 12:08:47.609 -0400,9377.506681625,0.7886505126953125,0.1757354736328125,-0.0526580810546875,1,0.99
2020-05-16 12:08:47.673 -0400,9377.576522625001,1.05682373046875,0.283111572265625,-0.0342254638671875,1,0.99
2020-05-16 12:08:47.743 -0400,9377.646361625,1.308563232421875,0.5478668212890625,-0.3511810302734375,1,0.99
2020-05-16 12:08:47.813 -0400,9377.716196250001,1.64202880859375,0.451385498046875,-0.2155609130859375,1,0.99
2020-05-16 12:08:47.882 -0400,9377.78603325,0.9309844970703125,0.2918701171875,-0.331390380859375,1,0.99
2020-05-16 12:08:47.952 -0400,9377.855870250001,0.6055908203125,0.3287353515625,-0.1875457763671875,1,0.99
2020-05-16 12:08:48.022 -0400,9377.925703250001,0.5686187744140625,0.461456298828125,-0.17626953125,1,0.99
2020-05-16 12:08:48.092 -0400,9377.995539250001,0.7685699462890625,0.655609130859375,-0.3078460693359375,1,0.99
2020-05-16 12:08:48.162 -0400,9378.065376250001,1.284576416015625,0.8035125732421875,-0.428375244140625,1,0.99
2020-05-16 12:08:48.232 -0400,9378.13520925,1.5318603515625,0.6247406005859375,-0.5695648193359375,1,0.99
2020-05-16 12:08:48.308 -0400,9378.20504325,1.443557739257812,0.4566497802734375,-0.412994384765625,1,0.99
2020-05-16 12:08:48.371 -0400,9378.27487825,1.4619140625,0.3530120849609375,-0.3235321044921875,1,0.99
2020-05-16 12:08:48.441 -0400,9378.34471225,0.7963104248046875,0.2870330810546875,-0.2247467041015625,1,0.99
2020-05-16 12:08:48.511 -0400,9378.414550250001,0.53118896484375,0.29302978515625,-0.0589447021484375,1,0.99
2020-05-16 12:08:48.581 -0400,9378.484388250001,0.5165863037109375,0.2823486328125,-0.025238037109375,1,0.99
2020-05-16 12:08:48.651 -0400,9378.554224250001,0.8599853515625,0.2626953125,0.00860595703125,1,0.99
2020-05-16 12:08:48.720 -0400,9378.624056250001,0.9253997802734375,0.2677001953125,0.0239410400390625,1,0.99
2020-05-16 12:08:48.790 -0400,9378.693893125001,1.140838623046875,0.425933837890625,-0.1417236328125,1,0.99
2020-05-16 12:08:48.860 -0400,9378.763729125001,1.4075927734375,0.6504974365234375,-0.589813232421875,1,0.99
2020-05-16 12:08:48.930 -0400,9378.833565125,1.354385375976562,0.283966064453125,-0.247406005859375,1,0.99
2020-05-16 12:08:49.000 -0400,9378.903406125,0.68914794921875,0.1092529296875,-0.4374542236328125,1,0.99
2020-05-16 12:08:49.069 -0400,9378.973245125,0.4561767578125,0.4227294921875,-0.21533203125,1,0.99
2020-05-16 12:08:49.140 -0400,9379.043083125001,0.6010284423828125,0.6419830322265625,-0.3156585693359375,1,0.99
2020-05-16 12:08:49.209 -0400,9379.112923125,0.9618988037109375,0.6538238525390625,-0.4536590576171875,1,0.99
2020-05-16 12:08:49.279 -0400,9379.182757125001,1.247360229492188,0.505126953125,-0.379852294921875,1,0.99
2020-05-16 12:08:49.358 -0400,9379.252595125001,1.2935791015625,0.690521240234375,-0.5927581787109375,1,0.99
2020-05-16 12:08:49.419 -0400,9379.322429125001,1.515914916992188,0.47442626953125,-0.3151397705078125,1,0.99
2020-05-16 12:08:49.488 -0400,9379.392265125001,1.31536865234375,0.15673828125,-0.1710662841796875,1,0.99
2020-05-16 12:08:49.558 -0400,9379.462101125,0.63671875,0.257781982421875,-0.1586761474609375,1,0.99
2020-05-16 12:08:49.628 -0400,9379.531938125001,0.471954345703125,0.41070556640625,-0.0373992919921875,1,0.99
2020-05-16 12:08:49.698 -0400,9379.601776125,0.627716064453125,0.303314208984375,0.0155181884765625,1,0.99
2020-05-16 12:08:49.768 -0400,9379.6716115,1.10858154296875,0.185028076171875,0.04327392578125,1,0.99
2020-05-16 12:08:49.838 -0400,9379.7414505,0.9868011474609375,0.2223052978515625,-0.0684814453125,1,0.99
2020-05-16 12:08:49.908 -0400,9379.8112865,1.038009643554688,0.50115966796875,-0.207183837890625,1,0.99
2020-05-16 12:08:49.978 -0400,9379.881118500001,1.419464111328125,0.63250732421875,-0.7031707763671875,1,0.99
2020-05-16 12:08:50.047 -0400,9379.9509485,1.153045654296875,0.00531005859375,-0.2695465087890625,1,0.99
2020-05-16 12:08:50.117 -0400,9380.020780500001,0.6865692138671875,0.160430908203125,-0.3382110595703125,1,0.99
2020-05-16 12:08:50.187 -0400,9380.0906135,0.5038909912109375,0.630218505859375,-0.238616943359375,1,0.99
2020-05-16 12:08:50.257 -0400,9380.1604455,0.668182373046875,0.68902587890625,-0.3401641845703125,1,0.99
2020-05-16 12:08:50.327 -0400,9380.2302745,1.131362915039062,0.6894378662109375,-0.4693756103515625,1,0.99
2020-05-16 12:08:50.396 -0400,9380.3001055,1.482879638671875,0.6868438720703125,-0.4501953125,1,0.99
2020-05-16 12:08:50.466 -0400,9380.369942500001,1.583755493164062,0.5885772705078125,-0.4450531005859375,1,0.99
2020-05-16 12:08:50.536 -0400,9380.4397775,1.687408447265625,0.4028778076171875,-0.17401123046875,1,0.99
2020-05-16 12:08:50.606 -0400,9380.509610500001,1.17218017578125,0.3442535400390625,-0.196075439453125,1,0.99
2020-05-16 12:08:50.676 -0400,9380.579444500001,0.6982574462890625,0.3416595458984375,-0.0467071533203125,1,0.99
2020-05-16 12:08:50.746 -0400,9380.6492755,0.6228790283203125,0.3453521728515625,0.0393524169921875,1,0.99
2020-05-16 12:08:50.815 -0400,9380.719107125,0.934783935546875,0.26531982421875,0.013763427734375,1,0.99
2020-05-16 12:08:50.885 -0400,9380.788938125001,0.86920166015625,0.1407928466796875,0.075653076171875,1,0.99
2020-05-16 12:08:50.955 -0400,9380.858776125,0.963836669921875,0.3204193115234375,0.0865631103515625,1,0.99
2020-05-16 12:08:51.025 -0400,9380.928613125001,1.453887939453125,0.6660919189453125,-0.5169525146484375,1,0.99
2020-05-16 12:08:51.095 -0400,9380.998444125,1.24298095703125,0.43701171875,-0.200653076171875,1,0.99
2020-05-16 12:08:51.165 -0400,9381.068275125001,0.6908111572265625,0.2976531982421875,-0.447296142578125,1,0.99
2020-05-16 12:08:51.234 -0400,9381.138106125001,0.639312744140625,0.4774017333984375,-0.281768798828125,1,0.99
2020-05-16 12:08:51.309 -0400,9381.207939125001,1.057785034179688,0.690399169921875,-0.4002532958984375,1,0.99
2020-05-16 12:08:51.374 -0400,9381.277775125001,1.253814697265625,0.720794677734375,-0.6997222900390625,1,0.99
2020-05-16 12:08:51.444 -0400,9381.347608125001,1.642715454101562,0.6868896484375,-0.624786376953125,1,0.99
2020-05-16 12:08:51.514 -0400,9381.417441125001,1.385650634765625,0.34527587890625,-0.3620758056640625,1,0.99
2020-05-16 12:08:51.584 -0400,9381.487274125,1.31683349609375,0.4499359130859375,-0.214691162109375,1,0.99
2020-05-16 12:08:51.654 -0400,9381.557107125,1.081466674804688,0.3393707275390625,-0.179595947265625,1,0.99
2020-05-16 12:08:51.723 -0400,9381.626938125,0.5960235595703125,0.263092041015625,-0.0137786865234375,1,0.99
2020-05-16 12:08:51.793 -0400,9381.696765250001,0.578826904296875,0.35137939453125,0.0260162353515625,1,0.99
2020-05-16 12:08:51.863 -0400,9381.766595250001,1.052581787109375,0.31744384765625,0.024261474609375,1,0.99
2020-05-16 12:08:51.933 -0400,9381.83642225,0.9157257080078125,0.1775360107421875,0.0312957763671875,1,0.99
2020-05-16 12:08:52.003 -0400,9381.90625025,0.999237060546875,0.315032958984375,-0.094757080078125,1,0.99
2020-05-16 12:08:52.072 -0400,9381.97608525,1.208572387695312,0.513153076171875,-0.48309326171875,1,0.99
2020-05-16 12:08:52.142 -0400,9382.04592325,1.297698974609375,0.254913330078125,-0.3742828369140625,1,0.99
2020-05-16 12:08:52.212 -0400,9382.11575925,0.7865142822265625,0.164215087890625,-0.4782867431640625,1,0.99
2020-05-16 12:08:52.282 -0400,9382.18559225,0.630340576171875,0.4365081787109375,-0.3016357421875,1,0.99
2020-05-16 12:08:52.352 -0400,9382.255425250001,0.8518218994140625,0.55535888671875,-0.3371429443359375,1,0.99
2020-05-16 12:08:52.422 -0400,9382.325264250001,0.9996337890625,0.586029052734375,-0.487884521484375,1,0.99
2020-05-16 12:08:52.491 -0400,9382.395103250001,1.46240234375,0.6588287353515625,-0.410858154296875,1,0.99
2020-05-16 12:08:52.561 -0400,9382.46494125,1.26416015625,0.5710906982421875,-0.4159698486328125,1,0.99
2020-05-16 12:08:52.631 -0400,9382.534778250001,1.4071044921875,0.422637939453125,-0.2702484130859375,1,0.99
2020-05-16 12:08:52.701 -0400,9382.604616250001,1.192657470703125,0.307220458984375,-0.1767730712890625,1,0.99
2020-05-16 12:08:52.771 -0400,9382.674451291667,0.643646240234375,0.32977294921875,-0.1308746337890625,1,0.99
2020-05-16 12:08:52.841 -0400,9382.744289291668,0.6109771728515625,0.3558502197265625,-0.0254058837890625,1,0.99
2020-05-16 12:08:52.911 -0400,9382.814130291667,0.88958740234375,0.2913055419921875,-0.0113525390625,1,0.99
2020-05-16 12:08:52.980 -0400,9382.883966291667,1.056610107421875,0.22601318359375,0.0298919677734375,1,0.99
2020-05-16 12:08:53.050 -0400,9382.953798291668,1.165985107421875,0.2996978759765625,-0.0058135986328125,1,0.99
2020-05-16 12:08:53.120 -0400,9383.023633291667,1.06549072265625,0.511199951171875,-0.3310394287109375,1,0.99
2020-05-16 12:08:53.190 -0400,9383.093473291667,1.220962524414062,0.401336669921875,-0.3165740966796875,1,0.99
2020-05-16 12:08:53.260 -0400,9383.163310291668,0.8971405029296875,0.2188720703125,-0.3713531494140625,1,0.99
2020-05-16 12:08:53.329 -0400,9383.233148291667,0.519134521484375,0.3157958984375,-0.355010986328125,1,0.99
2020-05-16 12:08:53.399 -0400,9383.302987291667,0.550262451171875,0.4238128662109375,-0.3376312255859375,1,0.99
2020-05-16 12:08:53.469 -0400,9383.372827291667,0.8531341552734375,0.454315185546875,-0.476959228515625,1,0.99
2020-05-16 12:08:53.539 -0400,9383.442663291667,1.26171875,0.5059051513671875,-0.52838134765625,1,0.99
2020-05-16 12:08:53.609 -0400,9383.512500291667,1.565704345703125,0.5664520263671875,-0.567230224609375,1,0.99
2020-05-16 12:08:53.679 -0400,9383.582336291667,1.287246704101562,0.5752716064453125,-0.4693603515625,1,0.99
2020-05-16 12:08:53.748 -0400,9383.652176291667,1.34326171875,0.35968017578125,-0.21063232421875,1,0.99
2020-05-16 12:08:53.818 -0400,9383.722011875001,0.7100982666015625,0.3101348876953125,-0.2347259521484375,1,0.99
2020-05-16 12:08:53.888 -0400,9383.791842875,0.4503936767578125,0.3548431396484375,-0.08270263671875,1,0.99
2020-05-16 12:08:53.958 -0400,9383.861674875001,0.7655792236328125,0.296783447265625,-0.0558319091796875,1,0.99
2020-05-16 12:08:54.028 -0400,9383.931505875,1.179000854492188,0.162384033203125,0.0645751953125,1,0.99
2020-05-16 12:08:54.098 -0400,9384.001337875001,0.944488525390625,0.2599945068359375,0.0415802001953125,1,0.99
2020-05-16 12:08:54.167 -0400,9384.071169875,0.8593292236328125,0.5757293701171875,-0.26153564453125,1,0.99
2020-05-16 12:08:54.237 -0400,9384.141002875,1.340576171875,0.5253448486328125,-0.4022369384765625,1,0.99
2020-05-16 12:08:54.307 -0400,9384.210840875001,0.72760009765625,0.155242919921875,-0.3446502685546875,1,0.99
2020-05-16 12:08:54.377 -0400,9384.280683875,0.5482635498046875,0.313018798828125,-0.35748291015625,1,0.99
2020-05-16 12:08:54.447 -0400,9384.350519875001,0.7894439697265625,0.48504638671875,-0.554443359375,1,0.99
2020-05-16 12:08:54.517 -0400,9384.420353875001,1.037216186523438,0.3408355712890625,-0.668121337890625,1,0.99
2020-05-16 12:08:54.586 -0400,9384.490184875001,1.35626220703125,0.40960693359375,-0.5164794921875,1,0.99
2020-05-16 12:08:54.656 -0400,9384.560021875001,1.311691284179688,0.70697021484375,-0.5566864013671875,1,0.99
2020-05-16 12:08:54.727 -0400,9384.629855875,1.276336669921875,0.5078887939453125,-0.3005828857421875,1,0.99
2020-05-16 12:08:54.796 -0400,9384.69969125,1.025711059570312,0.3773651123046875,-0.2209625244140625,1,0.99
2020-05-16 12:08:54.866 -0400,9384.76952525,0.668426513671875,0.2716064453125,-0.1212921142578125,1,0.99
2020-05-16 12:08:54.936 -0400,9384.83935625,0.6089630126953125,0.3128814697265625,-0.0624542236328125,1,0.99
2020-05-16 12:08:55.006 -0400,9384.909193250001,0.9867401123046875,0.2766571044921875,-0.0753021240234375,1,0.99
2020-05-16 12:08:55.075 -0400,9384.979032250001,1.069107055664062,0.199188232421875,-0.0241241455078125,1,0.99
2020-05-16 12:08:55.145 -0400,9385.04886925,1.003692626953125,0.3191680908203125,-0.1574249267578125,1,0.99
2020-05-16 12:08:55.215 -0400,9385.11870825,0.996185302734375,0.4544830322265625,-0.311553955078125,1,0.99
2020-05-16 12:08:55.285 -0400,9385.188546250001,1.185195922851562,0.4956817626953125,-0.4260101318359375,1,0.99
2020-05-16 12:08:55.358 -0400,9385.258385250001,0.7422943115234375,0.3146209716796875,-0.3796844482421875,1,0.99
2020-05-16 12:08:55.425 -0400,9385.328220250001,0.680419921875,0.3385772705078125,-0.3257904052734375,1,0.99
2020-05-16 12:08:55.494 -0400,9385.398058250001,0.89886474609375,0.498748779296875,-0.4669342041015625,1,0.99
2020-05-16 12:08:55.564 -0400,9385.467897250001,1.01025390625,0.63885498046875,-0.564605712890625,1,0.99
2020-05-16 12:08:55.634 -0400,9385.537733250001,1.57513427734375,0.796783447265625,-0.6243438720703125,1,0.99
2020-05-16 12:08:55.704 -0400,9385.607567250001,1.6307373046875,0.4904937744140625,-0.4801788330078125,1,0.99
2020-05-16 12:08:55.774 -0400,9385.677399916667,1.483062744140625,0.36376953125,-0.195465087890625,1,0.99
2020-05-16 12:08:55.844 -0400,9385.747231916666,0.8257293701171875,0.431732177734375,-0.2531890869140625,1,0.99
2020-05-16 12:08:55.913 -0400,9385.817063916667,0.589874267578125,0.3892059326171875,-0.1408233642578125,1,0.99
2020-05-16 12:08:55.983 -0400,9385.886893916668,0.7759857177734375,0.2900543212890625,-0.03692626953125,1,0.99
2020-05-16 12:08:56.053 -0400,9385.956725916667,0.971954345703125,0.0709228515625,0.0035400390625,1,0.99
2020-05-16 12:08:56.123 -0400,9386.026554916667,0.865142822265625,0.215057373046875,-0.0073089599609375,1,0.99
2020-05-16 12:08:56.193 -0400,9386.096384916667,1.117279052734375,0.448211669921875,-0.006256103515625,1,0.99
2020-05-16 12:08:56.263 -0400,9386.166218916667,1.579177856445312,0.5841217041015625,-0.372283935546875,1,0.99
2020-05-16 12:08:56.333 -0400,9386.236053916668,0.83966064453125,0.46636962890625,-0.3887481689453125,1,0.99
2020-05-16 12:08:56.402 -0400,9386.305883916668,0.6051177978515625,0.1755218505859375,-0.22650146484375,1,0.99
2020-05-16 12:08:56.472 -0400,9386.375717916668,0.7541046142578125,0.3994598388671875,-0.2682342529296875,1,0.99
2020-05-16 12:08:56.542 -0400,9386.445548916667,1.181533813476562,0.82733154296875,-0.588531494140625,1,0.99
2020-05-16 12:08:56.612 -0400,9386.515379916667,1.29632568359375,0.892547607421875,-0.604736328125,1,0.99
2020-05-16 12:08:56.682 -0400,9386.585208916667,1.283355712890625,0.5598297119140625,-0.5853271484375,1,0.99
2020-05-16 12:08:56.751 -0400,9386.655037916667,1.567840576171875,0.5875396728515625,-0.30755615234375,1,0.99
2020-05-16 12:08:56.821 -0400,9386.724869625001,1.234283447265625,0.3798980712890625,-0.334930419921875,1,0.99
2020-05-16 12:08:56.891 -0400,9386.794702625,0.761474609375,0.2942047119140625,-0.1575927734375,1,0.99
2020-05-16 12:08:56.961 -0400,9386.864531625,0.6297454833984375,0.3297576904296875,-0.0211029052734375,1,0.99
2020-05-16 12:08:57.031 -0400,9386.934362625001,0.780792236328125,0.242828369140625,-0.0007781982421875,1,0.99
2020-05-16 12:08:57.101 -0400,9387.004192625001,1.046630859375,0.140960693359375,0.1102752685546875,1,0.99
2020-05-16 12:08:57.170 -0400,9387.074025625001,1.1103515625,0.3443450927734375,-0.005645751953125,1,0.99
2020-05-16 12:08:57.240 -0400,9387.143856625,1.361862182617188,0.6113739013671875,-0.51409912109375,1,0.99
2020-05-16 12:08:57.310 -0400,9387.213687625001,1.245315551757812,0.283447265625,-0.3488922119140625,1,0.99
2020-05-16 12:08:57.380 -0400,9387.283522625001,0.6958465576171875,0.0180511474609375,-0.39215087890625,1,0.99
2020-05-16 12:08:57.450 -0400,9387.353355625,0.572296142578125,0.3389739990234375,-0.2341156005859375,1,0.99
2020-05-16 12:08:57.520 -0400,9387.423185625001,0.914764404296875,0.6970672607421875,-0.356170654296875,1,0.99
2020-05-16 12:08:57.589 -0400,9387.493022625,1.11993408203125,0.79302978515625,-0.5474090576171875,1,0.99
2020-05-16 12:08:57.659 -0400,9387.562857625,1.260467529296875,0.6488189697265625,-0.4355316162109375,1,0.99
2020-05-16 12:08:57.729 -0400,9387.632690625,1.57489013671875,0.8298797607421875,-0.52325439453125,1,0.99
2020-05-16 12:08:57.799 -0400,9387.702522125001,1.4891357421875,0.4825897216796875,-0.2340545654296875,1,0.99
2020-05-16 12:08:57.869 -0400,9387.772356125,1.036605834960938,0.3607177734375,-0.3420867919921875,1,0.99
2020-05-16 12:08:57.938 -0400,9387.842191125001,0.64337158203125,0.3050994873046875,-0.096466064453125,1,0.99
2020-05-16 12:08:58.008 -0400,9387.912031125001,0.6617889404296875,0.322784423828125,-0.018707275390625,1,0.99
2020-05-16 12:08:58.078 -0400,9387.981868125,1.368789672851562,0.382354736328125,-0.11224365234375,1,0.99
2020-05-16 12:08:58.148 -0400,9388.051701125001,1.042022705078125,0.095062255859375,0.1787567138671875,1,0.99
2020-05-16 12:08:58.218 -0400,9388.121537125,1.00885009765625,0.267303466796875,-0.0270233154296875,1,0.99
2020-05-16 12:08:58.288 -0400,9388.191370125001,0.9940948486328125,0.6310272216796875,-0.27325439453125,1,0.99
2020-05-16 12:08:58.358 -0400,9388.261208125001,1.02691650390625,0.5141448974609375,-0.49151611328125,1,0.99
2020-05-16 12:08:58.427 -0400,9388.331044125001,0.703216552734375,0.15380859375,-0.22552490234375,1,0.99
2020-05-16 12:08:58.497 -0400,9388.400876125001,0.62567138671875,0.516632080078125,-0.3289642333984375,1,0.99
2020-05-16 12:08:58.567 -0400,9388.470704125,1.105758666992188,0.7075347900390625,-0.5418701171875,1,0.99
2020-05-16 12:08:58.637 -0400,9388.540541125001,1.162887573242188,0.558990478515625,-0.4661102294921875,1,0.99
2020-05-16 12:08:58.707 -0400,9388.610380125001,1.560409545898438,0.9071807861328125,-0.6143798828125,1,0.99
2020-05-16 12:08:58.777 -0400,9388.680216041666,1.4725341796875,0.7046966552734375,-0.4760894775390625,1,0.99
2020-05-16 12:08:58.846 -0400,9388.750052041667,1.542984008789062,0.387237548828125,-0.3114013671875,1,0.99
2020-05-16 12:08:58.916 -0400,9388.819888041668,0.7462310791015625,0.18487548828125,-0.236358642578125,1,0.99
2020-05-16 12:08:58.986 -0400,9388.889727041667,0.661590576171875,0.4212493896484375,-0.040557861328125,1,0.99
2020-05-16 12:08:59.056 -0400,9388.959565041667,0.8653717041015625,0.350616455078125,0.0185089111328125,1,0.99
2020-05-16 12:08:59.126 -0400,9389.029399041667,1.238861083984375,0.268768310546875,0.01702880859375,1,0.99
2020-05-16 12:08:59.196 -0400,9389.099236041668,1.081100463867188,0.232208251953125,0.0811920166015625,1,0.99
2020-05-16 12:08:59.265 -0400,9389.169073041667,0.9331817626953125,0.4851531982421875,-0.1468963623046875,1,0.99
2020-05-16 12:08:59.335 -0400,9389.238907041667,1.205291748046875,0.5244293212890625,-0.32891845703125,1,0.99
2020-05-16 12:08:59.405 -0400,9389.308744041668,0.72955322265625,0.2804718017578125,-0.3500823974609375,1,0.99
2020-05-16 12:08:59.475 -0400,9389.378579041668,0.5721893310546875,0.19598388671875,-0.3832244873046875,1,0.99
2020-05-16 12:08:59.545 -0400,9389.448416041667,0.7939453125,0.7089691162109375,-0.35845947265625,1,0.99
2020-05-16 12:08:59.615 -0400,9389.518255041667,1.363174438476562,0.8075714111328125,-0.58642578125,1,0.99
2020-05-16 12:08:59.684 -0400,9389.588092041668,1.175460815429688,0.75518798828125,-0.6190338134765625,1,0.99
2020-05-16 12:08:59.754 -0400,9389.657933041668,1.283782958984375,0.7632904052734375,-0.5060882568359375,1,0.99
2020-05-16 12:08:59.824 -0400,9389.727774375,1.59686279296875,0.56402587890625,-0.283599853515625,1,0.99
2020-05-16 12:08:59.894 -0400,9389.797608375,1.176101684570312,0.2632904052734375,-0.33575439453125,1,0.99
2020-05-16 12:08:59.964 -0400,9389.867443375,0.642120361328125,0.2891082763671875,-0.1984405517578125,1,0.99
2020-05-16 12:09:00.034 -0400,9389.937283375,0.60650634765625,0.345306396484375,-0.0188751220703125,1,0.99
2020-05-16 12:09:00.104 -0400,9390.007118375001,0.8597564697265625,0.2487335205078125,-0.0092620849609375,1,0.99
2020-05-16 12:09:00.173 -0400,9390.076957375,0.96978759765625,0.209625244140625,0.067779541015625,1,0.99
2020-05-16 12:09:00.249 -0400,9390.146794375001,0.9948883056640625,0.3316192626953125,0.0432281494140625,1,0.99
2020-05-16 12:09:00.313 -0400,9390.216628375001,1.054306030273438,0.5374603271484375,-0.312225341796875,1,0.99
2020-05-16 12:09:00.383 -0400,9390.286462375001,1.364791870117188,0.4468536376953125,-0.3192138671875,1,0.99
2020-05-16 12:09:00.453 -0400,9390.356294375,0.77734375,0.197601318359375,-0.427337646484375,1,0.99
2020-05-16 12:09:00.523 -0400,9390.426129375001,0.5345458984375,0.3766021728515625,-0.3253326416015625,1,0.99
2020-05-16 12:09:00.592 -0400,9390.495960375001,0.898590087890625,0.6726837158203125,-0.419342041015625,1,0.99
2020-05-16 12:09:00.662 -0400,9390.565792375,1.197723388671875,0.61676025390625,-0.6162872314453125,1,0.99
2020-05-16 12:09:00.732 -0400,9390.635626375,1.34832763671875,0.6551055908203125,-0.529327392578125,1,0.99
2020-05-16 12:09:00.802 -0400,9390.70546275,1.495285034179688,0.7686767578125,-0.5561981201171875,1,0.99
2020-05-16 12:09:00.872 -0400,9390.77529675,1.606231689453125,0.330352783203125,-0.2701873779296875,1,0.99
2020-05-16 12:09:00.941 -0400,9390.845133750001,0.9742431640625,0.25750732421875,-0.2816619873046875,1,0.99
2020-05-16 12:09:01.012 -0400,9390.914968750001,0.5856475830078125,0.32501220703125,-0.0966033935546875,1,0.99
2020-05-16 12:09:01.081 -0400,9390.984801750001,0.71417236328125,0.34552001953125,-0.021881103515625,1,0.99
2020-05-16 12:09:01.151 -0400,9391.054635750001,1.254104614257812,0.2646484375,0.008575439453125,1,0.99
2020-05-16 12:09:01.221 -0400,9391.12446775,0.90289306640625,0.211761474609375,0.08612060546875,1,0.99
2020-05-16 12:09:01.291 -0400,9391.194299750001,0.886810302734375,0.385772705078125,-0.0005035400390625,1,0.99
2020-05-16 12:09:01.361 -0400,9391.26413275,1.303375244140625,0.535736083984375,-0.3262786865234375,1,0.99
2020-05-16 12:09:01.430 -0400,9391.33396475,1.123733520507812,0.4164276123046875,-0.3203887939453125,1,0.99
2020-05-16 12:09:01.500 -0400,9391.403798750001,0.6533050537109375,0.2264862060546875,-0.38970947265625,1,0.99
2020-05-16 12:09:01.570 -0400,9391.473630750001,0.735748291015625,0.4372100830078125,-0.30133056640625,1,0.99
2020-05-16 12:09:01.640 -0400,9391.543460750001,1.251815795898438,0.76129150390625,-0.5408172607421875,1,0.99
2020-05-16 12:09:01.710 -0400,9391.613290750001,1.049270629882812,0.775390625,-0.587188720703125,1,0.99
2020-05-16 12:09:01.779 -0400,9391.683123500001,1.551177978515625,0.57501220703125,-0.5148773193359375,1,0.99
2020-05-16 12:09:01.849 -0400,9391.7529545,1.343521118164062,0.3690948486328125,-0.32525634765625,1,0.99
2020-05-16 12:09:01.919 -0400,9391.822787500001,1.287872314453125,0.70025634765625,-0.1231231689453125,1,0.99
2020-05-16 12:09:01.989 -0400,9391.8926195,0.806549072265625,0.36822509765625,-0.1704864501953125,1,0.99
2020-05-16 12:09:02.059 -0400,9391.962451500001,0.6121673583984375,0.2673797607421875,0.003387451171875,1,0.99
2020-05-16 12:09:02.129 -0400,9392.032285500001,0.8810272216796875,0.3573150634765625,0.0584869384765625,1,0.99
2020-05-16 12:09:02.199 -0400,9392.1021155,1.289505004882812,0.265716552734375,0.145538330078125,1,0.99
2020-05-16 12:09:02.268 -0400,9392.171947500001,1.092941284179688,0.2176971435546875,0.1446685791015625,1,0.99
2020-05-16 12:09:02.338 -0400,9392.241783500001,0.939300537109375,0.565216064453125,-0.1615142822265625,1,0.99
2020-05-16 12:09:02.408 -0400,9392.311616500001,1.074050903320312,0.531768798828125,-0.3938140869140625,1,0.99
2020-05-16 12:09:02.478 -0400,9392.381451500001,0.85748291015625,0.0555419921875,-0.4293670654296875,1,0.99
2020-05-16 12:09:02.548 -0400,9392.451290500001,0.58135986328125,0.2289276123046875,-0.3538818359375,1,0.99
2020-05-16 12:09:02.617 -0400,9392.5211275,0.664886474609375,0.656890869140625,-0.293121337890625,1,0.99
2020-05-16 12:09:02.687 -0400,9392.5909625,1.042526245117188,0.6485748291015625,-0.403961181640625,1,0.99
2020-05-16 12:09:02.757 -0400,9392.6608005,1.195556640625,0.7581634521484375,-0.40594482421875,1,0.99
2020-05-16 12:09:02.827 -0400,9392.730638750001,1.209259033203125,0.8687744140625,-0.403228759765625,1,0.99
2020-05-16 12:09:02.897 -0400,9392.800471750001,1.47613525390625,0.791595458984375,-0.33294677734375,1,0.99
2020-05-16 12:09:02.967 -0400,9392.870300750001,1.445541381835938,0.3425445556640625,-0.1697540283203125,1,0.99
2020-05-16 12:09:03.037 -0400,9392.940136750001,0.887603759765625,0.2596588134765625,-0.1702117919921875,1,0.99
2020-05-16 12:09:03.107 -0400,9393.00997175,0.7020111083984375,0.369659423828125,-0.0635223388671875,1,0.99
2020-05-16 12:09:03.176 -0400,9393.07980675,0.8620452880859375,0.29937744140625,-0.049407958984375,1,0.99
2020-05-16 12:09:03.246 -0400,9393.149639750001,1.092636108398438,0.2011566162109375,0.0147552490234375,1,0.99
2020-05-16 12:09:03.316 -0400,9393.219467750001,0.87213134765625,0.18646240234375,0.046142578125,1,0.99
2020-05-16 12:09:03.386 -0400,9393.28929975,0.963775634765625,0.447509765625,-0.0941619873046875,1,0.99
2020-05-16 12:09:03.455 -0400,9393.359131750001,1.489898681640625,0.579345703125,-0.2925872802734375,1,0.99
2020-05-16 12:09:03.525 -0400,9393.428960750001,1.072952270507812,0.4680633544921875,-0.337799072265625,1,0.99
2020-05-16 12:09:03.595 -0400,9393.49879075,0.6591949462890625,0.2489166259765625,-0.244476318359375,1,0.99
2020-05-16 12:09:03.665 -0400,9393.568621750001,0.848236083984375,0.442657470703125,-0.261962890625,1,0.99
2020-05-16 12:09:03.735 -0400,9393.638451750001,1.065887451171875,0.7113189697265625,-0.50823974609375,1,0.99
2020-05-16 12:09:03.805 -0400,9393.708279625,1.09539794921875,0.62774658203125,-0.582794189453125,1,0.99
2020-05-16 12:09:03.875 -0400,9393.778110625,1.161239624023438,0.8124847412109375,-0.7569122314453125,1,0.99
2020-05-16 12:09:03.944 -0400,9393.847942625001,1.734878540039062,0.57550048828125,-0.403228759765625,1,0.99
2020-05-16 12:09:04.014 -0400,9393.917773625,1.486541748046875,0.15350341796875,-0.26885986328125,1,0.99
2020-05-16 12:09:04.084 -0400,9393.987602625,0.8215484619140625,0.346527099609375,-0.229461669921875,1,0.99
2020-05-16 12:09:04.154 -0400,9394.057428625001,0.709808349609375,0.4533233642578125,-0.0703887939453125,1,0.99
2020-05-16 12:09:04.224 -0400,9394.127259625,0.9874267578125,0.276092529296875,0.00927734375,1,0.99
2020-05-16 12:09:04.294 -0400,9394.197089625,1.034881591796875,0.136260986328125,0.116607666015625,1,0.99
2020-05-16 12:09:04.364 -0400,9394.266919625001,0.87457275390625,0.2291107177734375,0.1190032958984375,1,0.99
2020-05-16 12:09:04.433 -0400,9394.336748625001,1.070068359375,0.4980316162109375,-0.12762451171875,1,0.99
2020-05-16 12:09:04.503 -0400,9394.406577625001,1.40386962890625,0.5813751220703125,-0.3308258056640625,1,0.99
2020-05-16 12:09:04.573 -0400,9394.476402625001,0.90087890625,0.4707794189453125,-0.44671630859375,1,0.99
2020-05-16 12:09:04.643 -0400,9394.546233625,0.8167572021484375,0.317840576171875,-0.2622222900390625,1,0.99
2020-05-16 12:09:04.713 -0400,9394.616064625001,1.129898071289062,0.54736328125,-0.4519500732421875,1,0.99
2020-05-16 12:09:04.782 -0400,9394.685897250001,1.17413330078125,0.7565765380859375,-0.6971893310546875,1,0.99
2020-05-16 12:09:04.852 -0400,9394.75573225,1.54046630859375,0.816375732421875,-0.77081298828125,1,0.99
2020-05-16 12:09:04.922 -0400,9394.825569250001,1.391006469726562,0.520660400390625,-0.5469512939453125,1,0.99
