loggingTime(txt),accelerometerTimestamp_sinceReboot(s),accelerometerAccelerationX(G),accelerometerAccelerationY(G),accelerometerAccelerationZ(G),batteryState,batteryLevel
2020-05-16 12:22:25.065 -0400,9991.718604291667,-0.0477447509765625,-0.0514068603515625,-1.396087646484375,1,0.98
2020-05-16 12:22:25.184 -0400,9991.838344291667,0.2646942138671875,-0.0589141845703125,-0.994720458984375,1,0.98
2020-05-16 12:22:25.304 -0400,9991.958086291666,0.232086181640625,0.0325927734375,-0.5110321044921875,1,0.98
2020-05-16 12:22:25.424 -0400,9992.077829291668,0.227996826171875,0.01153564453125,-0.478271484375,1,0.98
2020-05-16 12:22:25.544 -0400,9992.197572291667,0.81829833984375,0.444305419921875,-0.6236724853515625,1,0.98
2020-05-16 12:22:25.675 -0400,9992.317320375001,1.531173706054688,0.76092529296875,-0.702667236328125,1,0.98
2020-05-16 12:22:25.783 -0400,9992.437060375001,1.582290649414062,1.696868896484375,-0.542266845703125,1,0.98
2020-05-16 12:22:25.903 -0400,9992.556806375,0.610687255859375,0.6617889404296875,-0.3934478759765625,1,0.98
2020-05-16 12:22:26.013 -0400,9992.666571375001,0.73779296875,0.6117706298828125,-0.424041748046875,1,0.98
2020-05-16 12:22:26.092 -0400,9992.736422375001,0.822021484375,0.1673583984375,-0.4236907958984375,1,0.98
2020-05-16 12:22:26.153 -0400,9992.806271375001,1.069671630859375,0.4105224609375,-0.746246337890625,1,0.98
2020-05-16 12:22:26.222 -0400,9992.876115375,0.8538970947265625,0.3162994384765625,-0.6527862548828125,1,0.98
2020-05-16 12:22:26.296 -0400,9992.945961375,0.49835205078125,0.2608489990234375,-0.97601318359375,1,0.98
2020-05-16 12:22:26.362 -0400,9993.015812375001,0.6643829345703125,0.2311248779296875,-0.870819091796875,1,0.98
2020-05-16 12:22:26.432 -0400,9993.085662375001,0.4666900634765625,0.0203857421875,-0.760955810546875,1,0.98
2020-05-16 12:22:26.502 -0400,9993.155509375001,0.2048187255859375,-0.059722900390625,-0.6289520263671875,1,0.98
2020-05-16 12:22:26.571 -0400,9993.225358375001,0.1004180908203125,-0.0837249755859375,-0.49713134765625,1,0.98
2020-05-16 12:22:26.644 -0400,9993.295207750001,0.0190887451171875,-0.0611419677734375,-0.6475830078125,1,0.98
2020-05-16 12:22:26.721 -0400,9993.375030750001,0.183074951171875,0.131591796875,-1.158706665039062,1,0.98
2020-05-16 12:22:26.841 -0400,9993.494769750001,0.2451019287109375,0.1643524169921875,-1.54779052734375,1,0.98
2020-05-16 12:22:26.961 -0400,9993.61450775,0.169403076171875,0.212188720703125,-0.9283447265625,1,0.98
2020-05-16 12:22:27.081 -0400,9993.734254750001,0.09228515625,0.0738067626953125,-0.6348419189453125,1,0.98
2020-05-16 12:22:27.200 -0400,9993.85399775,0.1402435302734375,0.069122314453125,-0.428375244140625,1,0.98
2020-05-16 12:22:27.320 -0400,9993.97374175,0.6757659912109375,0.3115081787109375,-0.8124542236328125,1,0.98
2020-05-16 12:22:27.440 -0400,9994.093483750001,1.198211669921875,0.47967529296875,-0.8480987548828125,1,0.98
2020-05-16 12:22:27.560 -0400,9994.213228750001,1.707794189453125,0.3057861328125,0.036285400390625,1,0.98
2020-05-16 12:22:27.679 -0400,9994.332974250001,0.5606536865234375,0.608367919921875,-0.1876373291015625,1,0.98
2020-05-16 12:22:27.799 -0400,9994.452730250001,0.476531982421875,0.391204833984375,-0.2371063232421875,1,0.98
2020-05-16 12:22:27.919 -0400,9994.572482250001,1.409622192382812,0.43310546875,-0.167236328125,1,0.98
2020-05-16 12:22:28.039 -0400,9994.692230250001,1.36920166015625,0.4733428955078125,-0.4570159912109375,1,0.98
2020-05-16 12:22:28.109 -0400,9994.76208325,1.513717651367188,0.300567626953125,-0.2292327880859375,1,0.98
2020-05-16 12:22:28.184 -0400,9994.83194125,0.99102783203125,0.180328369140625,-0.1729736328125,1,0.98
2020-05-16 12:22:28.248 -0400,9994.90179625,0.491241455078125,0.2222137451171875,-0.228973388671875,1,0.98
2020-05-16 12:22:28.318 -0400,9994.971650250001,0.3574981689453125,0.2528533935546875,-0.120849609375,1,0.98
2020-05-16 12:22:28.388 -0400,9995.04150125,0.4195404052734375,0.2084808349609375,-0.04852294921875,1,0.98
2020-05-16 12:22:28.458 -0400,9995.111350250001,0.9415283203125,0.2701263427734375,-0.101043701171875,1,0.98
2020-05-16 12:22:28.527 -0400,9995.18120225,1.54681396484375,0.3658905029296875,-0.1059722900390625,1,0.98
2020-05-16 12:22:28.597 -0400,9995.251057250001,1.5836181640625,0.7828826904296875,-0.3706817626953125,1,0.98
2020-05-16 12:22:28.667 -0400,9995.320912500001,1.349411010742188,0.0848846435546875,-0.1901092529296875,1,0.98
2020-05-16 12:22:28.737 -0400,9995.3907655,1.163330078125,0.094451904296875,-0.2505950927734375,1,0.98
2020-05-16 12:22:28.807 -0400,9995.4606165,0.6414947509765625,0.4322509765625,-0.2400360107421875,1,0.98
2020-05-16 12:22:28.877 -0400,9995.530469500001,0.3931427001953125,0.438751220703125,-0.08929443359375,1,0.98
2020-05-16 12:22:28.947 -0400,9995.600323500001,0.516998291015625,0.4326171875,-0.2268829345703125,1,0.98
2020-05-16 12:22:29.016 -0400,9995.6701775,0.993560791015625,0.5453338623046875,-0.332733154296875,1,0.98
2020-05-16 12:22:29.086 -0400,9995.7400285,1.52008056640625,0.5494384765625,-0.3441619873046875,1,0.98
2020-05-16 12:22:29.156 -0400,9995.8098785,1.335525512695312,0.768035888671875,-0.5661468505859375,1,0.98
2020-05-16 12:22:29.226 -0400,9995.8797285,1.368499755859375,0.4925689697265625,-0.2928924560546875,1,0.98
2020-05-16 12:22:29.296 -0400,9995.949575500001,1.30926513671875,0.147430419921875,-0.0824737548828125,1,0.98
2020-05-16 12:22:29.366 -0400,9996.0194245,0.71490478515625,0.2541656494140625,-0.2312774658203125,1,0.98
2020-05-16 12:22:29.436 -0400,9996.089272500001,0.5548248291015625,0.3763275146484375,-0.0192413330078125,1,0.98
2020-05-16 12:22:29.505 -0400,9996.159123500001,0.767059326171875,0.3716583251953125,0.014801025390625,1,0.98
2020-05-16 12:22:29.575 -0400,9996.2289745,1.273101806640625,0.2867279052734375,0.0037384033203125,1,0.98
2020-05-16 12:22:29.645 -0400,9996.298826125001,1.49462890625,0.19366455078125,0.025299072265625,1,0.98
2020-05-16 12:22:29.715 -0400,9996.368677125001,1.435714721679688,0.5002593994140625,-0.3022308349609375,1,0.98
2020-05-16 12:22:29.785 -0400,9996.438527125001,1.159469604492188,0.2952728271484375,-0.28802490234375,1,0.98
2020-05-16 12:22:29.854 -0400,9996.508379125,0.8582916259765625,0.0997161865234375,-0.1690521240234375,1,0.98
2020-05-16 12:22:29.924 -0400,9996.578231125,0.691070556640625,0.388946533203125,-0.3909912109375,1,0.98
2020-05-16 12:22:29.994 -0400,9996.648081125,0.566162109375,0.7382659912109375,-0.3083953857421875,1,0.98
2020-05-16 12:22:30.064 -0400,9996.717926125,0.899383544921875,0.58624267578125,-0.4028778076171875,1,0.98
2020-05-16 12:22:30.134 -0400,9996.787777125001,0.9476776123046875,0.4760894775390625,-0.4055633544921875,1,0.98
2020-05-16 12:22:30.204 -0400,9996.857630125001,1.796524047851562,0.8651275634765625,-0.650543212890625,1,0.98
2020-05-16 12:22:30.274 -0400,9996.927483125,1.54949951171875,0.251495361328125,-0.34869384765625,1,0.98
2020-05-16 12:22:30.344 -0400,9996.997339125001,1.7724609375,0.082061767578125,0.0734405517578125,1,0.98
2020-05-16 12:22:30.413 -0400,9997.067193125,0.9956207275390625,0.430328369140625,-0.069671630859375,1,0.98
2020-05-16 12:22:30.483 -0400,9997.137044125,0.5426177978515625,0.3054962158203125,0.0678558349609375,1,0.98
2020-05-16 12:22:30.553 -0400,9997.206893125001,0.494598388671875,0.242462158203125,0.211700439453125,1,0.98
2020-05-16 12:22:30.623 -0400,9997.276743125001,0.7695770263671875,0.290771484375,0.1463775634765625,1,0.98
2020-05-16 12:22:30.693 -0400,9997.346590625,1.174362182617188,0.3526611328125,-0.04315185546875,1,0.98
2020-05-16 12:22:30.763 -0400,9997.416437625001,1.318588256835938,0.23828125,-0.015533447265625,1,0.98
2020-05-16 12:22:30.832 -0400,9997.486286625001,1.61163330078125,0.3788909912109375,-0.328338623046875,1,0.98
2020-05-16 12:22:30.902 -0400,9997.556137625001,1.356781005859375,0.23419189453125,-0.460693359375,1,0.98
2020-05-16 12:22:30.972 -0400,9997.625988625001,0.8843994140625,-0.0358428955078125,-0.2852783203125,1,0.98
2020-05-16 12:22:31.042 -0400,9997.695834625001,0.5970458984375,0.2667083740234375,-0.379486083984375,1,0.98
2020-05-16 12:22:31.112 -0400,9997.765678625001,0.4333038330078125,0.421600341796875,-0.3303070068359375,1,0.98
2020-05-16 12:22:31.182 -0400,9997.835526625,0.5937652587890625,0.3884735107421875,-0.3310546875,1,0.98
2020-05-16 12:22:31.252 -0400,9997.905374625001,0.939666748046875,0.387481689453125,-0.413116455078125,1,0.98
2020-05-16 12:22:31.321 -0400,9997.975219625001,1.395767211914062,0.4412078857421875,-0.4989166259765625,1,0.98
2020-05-16 12:22:31.391 -0400,9998.045063625001,1.780929565429688,0.51483154296875,-0.5343475341796875,1,0.98
2020-05-16 12:22:31.461 -0400,9998.114905625001,1.760635375976562,0.0594635009765625,-0.148834228515625,1,0.98
2020-05-16 12:22:31.531 -0400,9998.184748625001,1.6085205078125,0.242279052734375,-0.079254150390625,1,0.98
2020-05-16 12:22:31.601 -0400,9998.254591625,0.7494659423828125,0.4414520263671875,-0.0748443603515625,1,0.98
2020-05-16 12:22:31.671 -0400,9998.324437166668,0.397308349609375,0.27557373046875,-0.002838134765625,1,0.98
2020-05-16 12:22:31.740 -0400,9998.394280166667,0.3758087158203125,0.1860809326171875,0.0604248046875,1,0.98
2020-05-16 12:22:31.810 -0400,9998.464124166667,0.6934051513671875,0.2148895263671875,-0.0315399169921875,1,0.98
2020-05-16 12:22:31.880 -0400,9998.533970166667,1.261749267578125,0.2366943359375,-0.0033721923828125,1,0.98
2020-05-16 12:22:31.950 -0400,9998.603816166667,1.449005126953125,0.3402099609375,-0.054107666015625,1,0.98
2020-05-16 12:22:32.020 -0400,9998.673660166667,1.540603637695312,0.457183837890625,-0.119781494140625,1,0.98
2020-05-16 12:22:32.090 -0400,9998.743502166668,1.386581420898438,0.58123779296875,-0.31097412109375,1,0.98
2020-05-16 12:22:32.160 -0400,9998.813344166667,0.882476806640625,0.594268798828125,-0.34771728515625,1,0.98
2020-05-16 12:22:32.229 -0400,9998.883190166667,0.5513916015625,0.345428466796875,-0.188995361328125,1,0.98
2020-05-16 12:22:32.299 -0400,9998.953038166666,0.4187164306640625,0.3492889404296875,-0.19677734375,1,0.98
2020-05-16 12:22:32.369 -0400,9999.022882166668,0.6627349853515625,0.496551513671875,-0.3623199462890625,1,0.98
2020-05-16 12:22:32.439 -0400,9999.092729166667,1.314651489257812,0.4438018798828125,-0.347259521484375,1,0.98
2020-05-16 12:22:32.509 -0400,9999.162573166668,1.6048583984375,0.7277679443359375,-0.560516357421875,1,0.98
2020-05-16 12:22:32.579 -0400,9999.232418166668,1.484466552734375,0.5202484130859375,-0.509124755859375,1,0.98
2020-05-16 12:22:32.648 -0400,9999.302262041667,1.770217895507812,0.2751617431640625,-0.1966552734375,1,0.98
2020-05-16 12:22:32.718 -0400,9999.372101041667,1.086166381835938,0.23822021484375,-0.1474456787109375,1,0.98
2020-05-16 12:22:32.788 -0400,9999.441938041668,0.432708740234375,0.2809295654296875,-0.0511627197265625,1,0.98
2020-05-16 12:22:32.858 -0400,9999.511777041667,0.2801055908203125,0.3384246826171875,0.00860595703125,1,0.98
2020-05-16 12:22:32.928 -0400,9999.581620041667,0.4871368408203125,0.284698486328125,0.0189666748046875,1,0.98
2020-05-16 12:22:32.998 -0400,9999.651457041668,1.020477294921875,0.282623291015625,0.0008087158203125,1,0.98
2020-05-16 12:22:33.068 -0400,9999.721297041668,1.29437255859375,0.2404327392578125,-0.0454864501953125,1,0.98
2020-05-16 12:22:33.137 -0400,9999.791135041667,1.4368896484375,0.4675445556640625,-0.19140625,1,0.98
2020-05-16 12:22:33.207 -0400,9999.860973041667,1.426177978515625,0.519683837890625,-0.4476318359375,1,0.98
2020-05-16 12:22:33.277 -0400,9999.930813041667,1.221542358398438,0.31964111328125,-0.300567626953125,1,0.98
2020-05-16 12:22:33.347 -0400,10000.00065304167,0.7017364501953125,0.277252197265625,-0.3800048828125,1,0.98
2020-05-16 12:22:33.417 -0400,10000.07049504167,0.5166778564453125,0.39093017578125,-0.2623748779296875,1,0.98
2020-05-16 12:22:33.486 -0400,10000.14033304167,0.4801788330078125,0.4300994873046875,-0.312286376953125,1,0.98
2020-05-16 12:22:33.556 -0400,10000.21017204167,0.8626861572265625,0.4773712158203125,-0.4680328369140625,1,0.98
2020-05-16 12:22:33.626 -0400,10000.28001004167,1.494171142578125,0.39599609375,-0.4339599609375,1,0.98
2020-05-16 12:22:33.696 -0400,10000.349847375,1.474533081054688,0.4771270751953125,-0.513916015625,1,0.98
2020-05-16 12:22:33.766 -0400,10000.419688375,1.182159423828125,0.4417877197265625,-0.3908233642578125,1,0.98
2020-05-16 12:22:33.836 -0400,10000.489531375,1.417022705078125,0.2644500732421875,-0.1889190673828125,1,0.98
2020-05-16 12:22:33.905 -0400,10000.559373375,0.9122772216796875,0.2626190185546875,-0.0540008544921875,1,0.98
2020-05-16 12:22:33.975 -0400,10000.629212375,0.5198516845703125,0.331634521484375,-0.0080413818359375,1,0.98
2020-05-16 12:22:34.045 -0400,10000.699056375,0.5492706298828125,0.4191741943359375,0.030426025390625,1,0.98
2020-05-16 12:22:34.115 -0400,10000.768905375,1.1275634765625,0.3292694091796875,0.085174560546875,1,0.98
2020-05-16 12:22:34.185 -0400,10000.838754375,1.191848754882812,0.25665283203125,-0.0326690673828125,1,0.98
2020-05-16 12:22:34.255 -0400,10000.908602375,1.446029663085938,0.350616455078125,-0.1078948974609375,1,0.98
2020-05-16 12:22:34.325 -0400,10000.978447375,1.249526977539062,0.4808502197265625,-0.453765869140625,1,0.98
2020-05-16 12:22:34.395 -0400,10001.048292375,1.252883911132812,0.0972137451171875,-0.3606719970703125,1,0.98
2020-05-16 12:22:34.464 -0400,10001.118139375,0.8628082275390625,0.0675201416015625,-0.2992095947265625,1,0.98
2020-05-16 12:22:34.534 -0400,10001.187985375,0.4904022216796875,0.415313720703125,-0.345550537109375,1,0.98
2020-05-16 12:22:34.604 -0400,10001.257831375,0.3264312744140625,0.5386962890625,-0.259979248046875,1,0.98
2020-05-16 12:22:34.674 -0400,10001.32767429167,0.485321044921875,0.43560791015625,-0.28485107421875,1,0.98
2020-05-16 12:22:34.744 -0400,10001.39751329167,1.515380859375,0.6223602294921875,-0.522613525390625,1,0.98
2020-05-16 12:22:34.813 -0400,10001.46735529167,1.638351440429688,0.25933837890625,-0.41778564453125,1,0.98
2020-05-16 12:22:34.883 -0400,10001.53719929167,1.459487915039062,0.4467926025390625,-0.4175262451171875,1,0.98
2020-05-16 12:22:34.953 -0400,10001.60704029167,1.174102783203125,0.4875335693359375,-0.3207550048828125,1,0.98
2020-05-16 12:22:35.023 -0400,10001.67688229167,1.1563720703125,0.255523681640625,-0.034637451171875,1,0.98
2020-05-16 12:22:35.093 -0400,10001.74672229167,0.6679229736328125,0.295013427734375,-0.0471343994140625,1,0.98
2020-05-16 12:22:35.163 -0400,10001.81656329167,0.449798583984375,0.347900390625,0.01605224609375,1,0.98
2020-05-16 12:22:35.232 -0400,10001.88640529167,0.711456298828125,0.4013824462890625,0.0592193603515625,1,0.98
2020-05-16 12:22:35.303 -0400,10001.95625129167,1.361495971679688,0.33062744140625,0.0453338623046875,1,0.98
2020-05-16 12:22:35.372 -0400,10002.02609829167,1.345245361328125,0.207672119140625,-0.0623931884765625,1,0.98
2020-05-16 12:22:35.442 -0400,10002.09594329167,1.225982666015625,0.503021240234375,-0.2733917236328125,1,0.98
2020-05-16 12:22:35.512 -0400,10002.16578329167,1.120162963867188,0.36676025390625,-0.50714111328125,1,0.98
2020-05-16 12:22:35.582 -0400,10002.23563029167,1.042770385742188,-0.022369384765625,-0.222137451171875,1,0.98
2020-05-16 12:22:35.652 -0400,10002.30547991667,0.63250732421875,0.3191986083984375,-0.36517333984375,1,0.98
2020-05-16 12:22:35.721 -0400,10002.37532291667,0.411376953125,0.505767822265625,-0.2838287353515625,1,0.98
2020-05-16 12:22:35.791 -0400,10002.44517191667,0.42523193359375,0.406585693359375,-0.2722320556640625,1,0.98
2020-05-16 12:22:35.861 -0400,10002.51501991667,1.071060180664062,0.48724365234375,-0.3668365478515625,1,0.98
2020-05-16 12:22:35.931 -0400,10002.58486791667,1.5225830078125,0.3771514892578125,-0.30987548828125,1,0.98
2020-05-16 12:22:36.001 -0400,10002.65471791667,1.609512329101562,0.600982666015625,-0.484649658203125,1,0.98
2020-05-16 12:22:36.071 -0400,10002.72456591667,1.343673706054688,0.5085906982421875,-0.359375,1,0.98
2020-05-16 12:22:36.140 -0400,10002.79441391667,1.412918090820312,0.1865692138671875,-0.12554931640625,1,0.98
2020-05-16 12:22:36.210 -0400,10002.86426091667,0.824432373046875,0.28594970703125,-0.1234130859375,1,0.98
2020-05-16 12:22:36.280 -0400,10002.93411091667,0.4768829345703125,0.337890625,-0.00775146484375,1,0.98
2020-05-16 12:22:36.350 -0400,10003.00395891667,0.484649658203125,0.333648681640625,0.0164947509765625,1,0.98
2020-05-16 12:22:36.420 -0400,10003.07380791667,1.12005615234375,0.2940826416015625,0.03515625,1,0.98
2020-05-16 12:22:36.490 -0400,10003.14365791667,1.312911987304688,0.1624755859375,0.05181884765625,1,0.98
2020-05-16 12:22:36.559 -0400,10003.21350891667,1.221603393554688,0.3741302490234375,-0.0333404541015625,1,0.98
2020-05-16 12:22:36.629 -0400,10003.28335491667,1.19146728515625,0.6545257568359375,-0.532257080078125,1,0.98
2020-05-16 12:22:36.699 -0400,10003.3532065,1.196319580078125,0.0876617431640625,-0.2427215576171875,1,0.98
2020-05-16 12:22:36.769 -0400,10003.4230515,0.8549346923828125,0.181915283203125,-0.467742919921875,1,0.98
2020-05-16 12:22:36.839 -0400,10003.4928995,0.643310546875,0.515411376953125,-0.4078521728515625,1,0.98
2020-05-16 12:22:36.909 -0400,10003.5627495,0.47320556640625,0.438018798828125,-0.3792572021484375,1,0.98
2020-05-16 12:22:36.979 -0400,10003.6325975,0.6330718994140625,0.3189239501953125,-0.40765380859375,1,0.98
2020-05-16 12:22:37.049 -0400,10003.7024465,1.15802001953125,0.267486572265625,-0.39105224609375,1,0.98
2020-05-16 12:22:37.118 -0400,10003.7722905,1.498931884765625,0.404052734375,-0.343719482421875,1,0.98
2020-05-16 12:22:37.188 -0400,10003.8421355,1.3978271484375,0.7133331298828125,-0.5995635986328125,1,0.98
2020-05-16 12:22:37.258 -0400,10003.9119795,1.558395385742188,0.2844085693359375,-0.240753173828125,1,0.98
2020-05-16 12:22:37.335 -0400,10003.9818215,1.051116943359375,0.200958251953125,-0.109130859375,1,0.98
2020-05-16 12:22:37.398 -0400,10004.0516675,0.576019287109375,0.3238525390625,-0.1100006103515625,1,0.98
2020-05-16 12:22:37.468 -0400,10004.1215145,0.408172607421875,0.305419921875,0.0229644775390625,1,0.98
2020-05-16 12:22:37.537 -0400,10004.1913635,0.6521759033203125,0.28778076171875,0.0212249755859375,1,0.98
2020-05-16 12:22:37.607 -0400,10004.2612115,1.27130126953125,0.2889404296875,-0.02789306640625,1,0.98
2020-05-16 12:22:37.677 -0400,10004.331055125,1.388763427734375,0.262451171875,-0.167755126953125,1,0.98
2020-05-16 12:22:37.747 -0400,10004.400902125,1.150787353515625,0.3764495849609375,-0.2966766357421875,1,0.98
2020-05-16 12:22:37.817 -0400,10004.470747125,1.285293579101562,0.3480224609375,-0.597991943359375,1,0.98
2020-05-16 12:22:37.887 -0400,10004.540592125,0.8790435791015625,-0.06256103515625,-0.1337432861328125,1,0.98
2020-05-16 12:22:37.957 -0400,10004.610437125,0.619476318359375,0.332794189453125,-0.2713775634765625,1,0.98
2020-05-16 12:22:38.026 -0400,10004.680287125,0.403228759765625,0.636383056640625,-0.2099761962890625,1,0.98
2020-05-16 12:22:38.096 -0400,10004.750133125,0.615966796875,0.487457275390625,-0.296112060546875,1,0.98
2020-05-16 12:22:38.166 -0400,10004.819974125,1.392471313476562,0.44500732421875,-0.4290924072265625,1,0.98
2020-05-16 12:22:38.236 -0400,10004.889814125,1.5198974609375,0.2119903564453125,-0.3454132080078125,1,0.98
2020-05-16 12:22:38.306 -0400,10004.959656125,1.392898559570312,0.762298583984375,-0.7208099365234375,1,0.98
2020-05-16 12:22:38.376 -0400,10005.029502125,1.802154541015625,0.3527984619140625,-0.1591949462890625,1,0.98
2020-05-16 12:22:38.445 -0400,10005.099348125,1.16595458984375,-0.042510986328125,-0.0666046142578125,1,0.98
2020-05-16 12:22:38.515 -0400,10005.169196125,0.7113189697265625,0.4561767578125,-0.0940704345703125,1,0.98
2020-05-16 12:22:38.585 -0400,10005.239046125,0.4391632080078125,0.388885498046875,0.0327301025390625,1,0.98
2020-05-16 12:22:38.655 -0400,10005.30889741667,0.5872344970703125,0.3016510009765625,0.069305419921875,1,0.98
2020-05-16 12:22:38.725 -0400,10005.37874841667,1.203933715820312,0.3013916015625,0.0555877685546875,1,0.98
2020-05-16 12:22:38.795 -0400,10005.44859841667,1.160980224609375,0.192352294921875,-0.03558349609375,1,0.98
2020-05-16 12:22:38.865 -0400,10005.51844541667,1.196090698242188,0.34771728515625,-0.206451416015625,1,0.98
2020-05-16 12:22:38.934 -0400,10005.58829041667,1.422348022460938,0.412811279296875,-0.4040985107421875,1,0.98
2020-05-16 12:22:39.004 -0400,10005.65814241667,1.26318359375,0.23529052734375,-0.1284637451171875,1,0.98
2020-05-16 12:22:39.074 -0400,10005.72799341667,0.928863525390625,0.595306396484375,-0.42962646484375,1,0.98
2020-05-16 12:22:39.144 -0400,10005.79783941667,0.602996826171875,0.56451416015625,-0.19732666015625,1,0.98
2020-05-16 12:22:39.214 -0400,10005.86768641667,0.90643310546875,0.5336761474609375,-0.3044891357421875,1,0.98
2020-05-16 12:22:39.284 -0400,10005.93753641667,1.127349853515625,0.3776397705078125,-0.3784332275390625,1,0.98
2020-05-16 12:22:39.354 -0400,10006.00738341667,1.5169677734375,0.477203369140625,-0.333770751953125,1,0.98
2020-05-16 12:22:39.424 -0400,10006.07723141667,1.53668212890625,0.78955078125,-0.588714599609375,1,0.98
2020-05-16 12:22:39.493 -0400,10006.14708141667,1.81268310546875,0.337127685546875,-0.20068359375,1,0.98
2020-05-16 12:22:39.563 -0400,10006.21693241667,1.339767456054688,0.12603759765625,-0.097381591796875,1,0.98
2020-05-16 12:22:39.633 -0400,10006.28677941667,0.6806640625,0.3448486328125,-0.0710906982421875,1,0.98
2020-05-16 12:22:39.703 -0400,10006.356628375,0.604034423828125,0.3489837646484375,0.0696563720703125,1,0.98
2020-05-16 12:22:39.773 -0400,10006.426475375,0.8168182373046875,0.306976318359375,0.06488037109375,1,0.98
2020-05-16 12:22:39.842 -0400,10006.496325375,1.159622192382812,0.2659149169921875,0.046356201171875,1,0.98
2020-05-16 12:22:39.912 -0400,10006.566176375,1.244918823242188,0.1905975341796875,0.10076904296875,1,0.98
2020-05-16 12:22:39.982 -0400,10006.636030375,1.231796264648438,0.5108489990234375,-0.12847900390625,1,0.98
2020-05-16 12:22:40.052 -0400,10006.705882375,1.217254638671875,0.442474365234375,-0.38018798828125,1,0.98
2020-05-16 12:22:40.122 -0400,10006.775728375,1.234054565429688,0.33026123046875,-0.2112274169921875,1,0.98
2020-05-16 12:22:40.192 -0400,10006.845572375,0.9650115966796875,0.458038330078125,-0.4361572265625,1,0.98
2020-05-16 12:22:40.262 -0400,10006.915417375,0.6859283447265625,0.5787353515625,-0.40362548828125,1,0.98
2020-05-16 12:22:40.331 -0400,10006.985264375,0.6991424560546875,0.5391387939453125,-0.421722412109375,1,0.98
2020-05-16 12:22:40.401 -0400,10007.055112375,0.9418792724609375,0.4776458740234375,-0.4245452880859375,1,0.98
2020-05-16 12:22:40.471 -0400,10007.124963375,1.535888671875,0.518310546875,-0.5185394287109375,1,0.98
2020-05-16 12:22:40.541 -0400,10007.194814375,1.609344482421875,0.5184783935546875,-0.319671630859375,1,0.98
2020-05-16 12:22:40.611 -0400,10007.264665375,1.557098388671875,0.4481201171875,-0.342529296875,1,0.98
2020-05-16 12:22:40.681 -0400,10007.33451275,1.631622314453125,0.44769287109375,-0.037933349609375,1,0.98
2020-05-16 12:22:40.750 -0400,10007.40436075,0.9186248779296875,0.2747955322265625,-0.0186309814453125,1,0.98
2020-05-16 12:22:40.821 -0400,10007.47420975,0.5301513671875,0.345458984375,0.073699951171875,1,0.98
2020-05-16 12:22:40.890 -0400,10007.54405775,0.6357574462890625,0.36761474609375,0.12701416015625,1,0.98
2020-05-16 12:22:40.960 -0400,10007.61390475,1.078018188476562,0.30364990234375,0.0982208251953125,1,0.98
2020-05-16 12:22:41.030 -0400,10007.68375575,1.134994506835938,0.2178955078125,-0.02618408203125,1,0.98
2020-05-16 12:22:41.100 -0400,10007.75360275,1.1988525390625,0.1990966796875,-0.01605224609375,1,0.98
2020-05-16 12:22:41.170 -0400,10007.82345175,1.31463623046875,0.488433837890625,-0.6219024658203125,1,0.98
2020-05-16 12:22:41.239 -0400,10007.89330275,1.45904541015625,0.1425628662109375,-0.3402099609375,1,0.98
2020-05-16 12:22:41.310 -0400,10007.96315775,1.204757690429688,0.0213470458984375,-0.3961639404296875,1,0.98
2020-05-16 12:22:41.379 -0400,10008.03300975,0.696624755859375,0.664154052734375,-0.391937255859375,1,0.98
2020-05-16 12:22:41.449 -0400,10008.10285875,0.458282470703125,0.6068572998046875,-0.2839813232421875,1,0.98
2020-05-16 12:22:41.519 -0400,10008.17270975,0.73980712890625,0.497833251953125,-0.3697662353515625,1,0.98
2020-05-16 12:22:41.589 -0400,10008.24256175,1.212265014648438,0.4870758056640625,-0.3986968994140625,1,0.98
2020-05-16 12:22:41.658 -0400,10008.31241225,1.675262451171875,0.4619903564453125,-0.5043182373046875,1,0.98
2020-05-16 12:22:41.728 -0400,10008.38226025,1.423126220703125,0.6423492431640625,-0.4948577880859375,1,0.98
2020-05-16 12:22:41.798 -0400,10008.45211025,1.602798461914062,0.3985595703125,-0.309814453125,1,0.98
2020-05-16 12:22:41.868 -0400,10008.52195925,1.53826904296875,0.2151641845703125,-0.088134765625,1,0.98
2020-05-16 12:22:41.938 -0400,10008.59180425,0.9619598388671875,0.2612457275390625,0.03485107421875,1,0.98
2020-05-16 12:22:42.008 -0400,10008.66164925,0.7763519287109375,0.4417724609375,0.0607757568359375,1,0.98
2020-05-16 12:22:42.078 -0400,10008.73149325,0.8940277099609375,0.391571044921875,0.1482696533203125,1,0.98
2020-05-16 12:22:42.147 -0400,10008.80133925,0.85504150390625,0.2649383544921875,0.098785400390625,1,0.98
2020-05-16 12:22:42.217 -0400,10008.87118325,1.129898071289062,0.270416259765625,0.021453857421875,1,0.98
2020-05-16 12:22:42.287 -0400,10008.94102425,1.097808837890625,0.149322509765625,0.022796630859375,1,0.98
2020-05-16 12:22:42.357 -0400,10009.01086625,1.138336181640625,0.4054107666015625,-0.6871337890625,1,0.98
2020-05-16 12:22:42.427 -0400,10009.08070925,1.245574951171875,0.0096435546875,-0.331268310546875,1,0.98
2020-05-16 12:22:42.497 -0400,10009.15054925,1.487014770507812,0.121795654296875,-0.1145477294921875,1,0.98
2020-05-16 12:22:42.566 -0400,10009.22039325,1.1043701171875,0.9803924560546875,-0.438720703125,1,0.98
2020-05-16 12:22:42.636 -0400,10009.29023625,0.6414947509765625,0.704437255859375,-0.31707763671875,1,0.98
2020-05-16 12:22:42.706 -0400,10009.36008366667,0.93133544921875,0.48583984375,-0.279144287109375,1,0.98
2020-05-16 12:22:42.776 -0400,10009.42992666667,1.408798217773438,0.2741546630859375,-0.54632568359375,1,0.98
2020-05-16 12:22:42.846 -0400,10009.49976766667,1.355300903320312,0.29949951171875,-0.3328857421875,1,0.98
2020-05-16 12:22:42.916 -0400,10009.56960966667,1.384963989257812,0.68206787109375,-0.686126708984375,1,0.98
2020-05-16 12:22:42.986 -0400,10009.63945166667,1.884033203125,0.3023681640625,-0.3073272705078125,1,0.98
2020-05-16 12:22:43.056 -0400,10009.70929066667,1.503799438476562,-0.0773162841796875,0.0153045654296875,1,0.98
2020-05-16 12:22:43.125 -0400,10009.77913166667,0.7567138671875,0.337890625,-0.0018157958984375,1,0.98
2020-05-16 12:22:43.195 -0400,10009.84897366667,0.48260498046875,0.4083709716796875,0.0841522216796875,1,0.98
2020-05-16 12:22:43.265 -0400,10009.91881366667,0.4803009033203125,0.2953948974609375,0.1380615234375,1,0.98
2020-05-16 12:22:43.335 -0400,10009.98865866667,0.7597808837890625,0.2931365966796875,0.12371826171875,1,0.98
2020-05-16 12:22:43.405 -0400,10010.05850666667,1.116180419921875,0.261322021484375,0.05218505859375,1,0.98
2020-05-16 12:22:43.474 -0400,10010.12835566667,1.35479736328125,0.2206573486328125,-0.0148162841796875,1,0.98
2020-05-16 12:22:43.544 -0400,10010.19820566667,1.421417236328125,0.4484100341796875,-0.53955078125,1,0.98
2020-05-16 12:22:43.614 -0400,10010.26805066667,1.524627685546875,0.2111358642578125,-0.2475128173828125,1,0.98
2020-05-16 12:22:43.684 -0400,10010.33789391667,1.266357421875,0.4225616455078125,-0.5843353271484375,1,0.98
2020-05-16 12:22:43.754 -0400,10010.40773691667,0.7259521484375,0.48785400390625,-0.50701904296875,1,0.98
2020-05-16 12:22:43.824 -0400,10010.47758591667,0.5197296142578125,0.383453369140625,-0.32525634765625,1,0.98
2020-05-16 12:22:43.893 -0400,10010.54743691667,0.7236785888671875,0.4280548095703125,-0.448272705078125,1,0.98
2020-05-16 12:22:43.963 -0400,10010.61728391667,1.32623291015625,0.3610382080078125,-0.57208251953125,1,0.98
2020-05-16 12:22:44.033 -0400,10010.68712991667,1.632781982421875,0.259521484375,-0.26544189453125,1,0.98
2020-05-16 12:22:44.103 -0400,10010.75697991667,1.61859130859375,0.6148529052734375,-0.47149658203125,1,0.98
2020-05-16 12:22:44.173 -0400,10010.82682691667,1.713180541992188,0.4143218994140625,-0.204193115234375,1,0.98
2020-05-16 12:22:44.243 -0400,10010.89667191667,1.463470458984375,0.2313995361328125,-0.01824951171875,1,0.98
2020-05-16 12:22:44.313 -0400,10010.96651291667,0.6902618408203125,0.2632904052734375,-0.001739501953125,1,0.98
2020-05-16 12:22:44.383 -0400,10011.03636191667,0.3433380126953125,0.2738800048828125,0.066802978515625,1,0.98
2020-05-16 12:22:44.452 -0400,10011.10621091667,0.285125732421875,0.25335693359375,0.0834503173828125,1,0.98
2020-05-16 12:22:44.522 -0400,10011.17606091667,0.5341339111328125,0.284332275390625,0.0477447509765625,1,0.98
2020-05-16 12:22:44.592 -0400,10011.24591091667,1.33892822265625,0.3481903076171875,-0.08319091796875,1,0.98
2020-05-16 12:22:44.662 -0400,10011.31576425,1.41265869140625,0.2205963134765625,-0.1437835693359375,1,0.98
2020-05-16 12:22:44.732 -0400,10011.38561425,1.50244140625,0.3148040771484375,-0.415557861328125,1,0.98
2020-05-16 12:22:44.801 -0400,10011.45545825,1.584320068359375,0.3283233642578125,-0.37225341796875,1,0.98
2020-05-16 12:22:44.872 -0400,10011.52530625,1.168411254882812,0.3716583251953125,-0.3599853515625,1,0.98
2020-05-16 12:22:44.942 -0400,10011.59515125,0.6463165283203125,0.4922943115234375,-0.36376953125,1,0.98
2020-05-16 12:22:45.011 -0400,10011.66499525,0.392425537109375,0.43359375,-0.2279815673828125,1,0.98
2020-05-16 12:22:45.081 -0400,10011.73484525,0.51373291015625,0.3914031982421875,-0.2990570068359375,1,0.98
2020-05-16 12:22:45.151 -0400,10011.80469125,1.046798706054688,0.4332733154296875,-0.53302001953125,1,0.98
2020-05-16 12:22:45.221 -0400,10011.87453925,1.628509521484375,0.2153472900390625,-0.3106536865234375,1,0.98
2020-05-16 12:22:45.291 -0400,10011.94438725,1.27264404296875,0.6628265380859375,-0.65496826171875,1,0.98
2020-05-16 12:22:45.360 -0400,10012.01423325,1.57867431640625,0.495330810546875,-0.2892608642578125,1,0.98
2020-05-16 12:22:45.430 -0400,10012.08407725,1.44903564453125,-0.0185699462890625,0.0652923583984375,1,0.98
2020-05-16 12:22:45.500 -0400,10012.15392325,0.647491455078125,0.327239990234375,-0.07366943359375,1,0.98
2020-05-16 12:22:45.570 -0400,10012.22377025,0.4599456787109375,0.402313232421875,0.0498504638671875,1,0.98
2020-05-16 12:22:45.640 -0400,10012.29361725,0.662567138671875,0.387237548828125,0.0836639404296875,1,0.98
2020-05-16 12:22:45.710 -0400,10012.363462875,1.158645629882812,0.3749847412109375,-0.0327606201171875,1,0.98
2020-05-16 12:22:45.779 -0400,10012.433302875,1.322280883789062,0.1519775390625,-0.028167724609375,1,0.98
2020-05-16 12:22:45.849 -0400,10012.503148875,1.243301391601562,0.2030792236328125,-0.1221771240234375,1,0.98
2020-05-16 12:22:45.919 -0400,10012.572993875,1.220367431640625,0.4616546630859375,-0.4326324462890625,1,0.98
2020-05-16 12:22:45.989 -0400,10012.642843875,1.136962890625,0.213592529296875,-0.1633758544921875,1,0.98
2020-05-16 12:22:46.059 -0400,10012.712694875,0.968994140625,0.3853302001953125,-0.32647705078125,1,0.98
2020-05-16 12:22:46.129 -0400,10012.782544875,0.5849761962890625,0.499908447265625,-0.331512451171875,1,0.98
2020-05-16 12:22:46.198 -0400,10012.852386875,0.4679107666015625,0.467132568359375,-0.338623046875,1,0.98
2020-05-16 12:22:46.269 -0400,10012.922228875,0.9145660400390625,0.466583251953125,-0.5299224853515625,1,0.98
2020-05-16 12:22:46.338 -0400,10012.992073875,1.406051635742188,0.23583984375,-0.4810333251953125,1,0.98
2020-05-16 12:22:46.408 -0400,10013.061917875,1.614837646484375,0.43035888671875,-0.4221954345703125,1,0.98
2020-05-16 12:22:46.478 -0400,10013.131764875,1.292526245117188,0.6962738037109375,-0.48492431640625,1,0.98
2020-05-16 12:22:46.548 -0400,10013.201611875,1.71954345703125,0.470062255859375,-0.1317291259765625,1,0.98
2020-05-16 12:22:46.618 -0400,10013.271460875,1.069534301757812,0.21002197265625,-0.0250396728515625,1,0.98
2020-05-16 12:22:46.687 -0400,10013.34130679167,0.718597412109375,0.3447418212890625,0.0229339599609375,1,0.98
2020-05-16 12:22:46.757 -0400,10013.41114779167,0.7082366943359375,0.3773040771484375,0.096282958984375,1,0.98
2020-05-16 12:22:46.827 -0400,10013.48098679167,0.9197540283203125,0.28076171875,0.1384735107421875,1,0.98
2020-05-16 12:22:46.897 -0400,10013.55082879167,1.075759887695312,0.2674102783203125,0.029205322265625,1,0.98
2020-05-16 12:22:46.967 -0400,10013.62067379167,1.04791259765625,0.2794036865234375,-0.0554351806640625,1,0.98
2020-05-16 12:22:47.037 -0400,10013.69051879167,1.109634399414062,0.3820343017578125,-0.286407470703125,1,0.98
2020-05-16 12:22:47.107 -0400,10013.76036679167,1.393264770507812,0.3353729248046875,-0.4588775634765625,1,0.98
2020-05-16 12:22:47.176 -0400,10013.83021679167,1.316436767578125,-0.0221405029296875,-0.0729522705078125,1,0.98
2020-05-16 12:22:47.246 -0400,10013.90006279167,1.019073486328125,0.6177825927734375,-0.43829345703125,1,0.98
2020-05-16 12:22:47.316 -0400,10013.96990679167,0.7030487060546875,0.730743408203125,-0.29278564453125,1,0.98
2020-05-16 12:22:47.386 -0400,10014.03974879167,0.8957061767578125,0.466796875,-0.314605712890625,1,0.98
2020-05-16 12:22:47.456 -0400,10014.10958879167,1.090194702148438,0.3768463134765625,-0.468292236328125,1,0.98
2020-05-16 12:22:47.525 -0400,10014.17943279167,1.423095703125,0.4438323974609375,-0.3160400390625,1,0.98
2020-05-16 12:22:47.595 -0400,10014.24928079167,1.483062744140625,0.6232757568359375,-0.439910888671875,1,0.98
2020-05-16 12:22:47.665 -0400,10014.31912375,1.446319580078125,0.4988250732421875,-0.32275390625,1,0.98
2020-05-16 12:22:47.735 -0400,10014.38896775,1.495620727539062,0.285491943359375,-0.09515380859375,1,0.98
2020-05-16 12:22:47.805 -0400,10014.45881375,0.947845458984375,0.2489471435546875,-0.01934814453125,1,0.98
2020-05-16 12:22:47.875 -0400,10014.52865875,0.5820465087890625,0.3182373046875,0.059173583984375,1,0.98
2020-05-16 12:22:47.945 -0400,10014.59850675,0.600738525390625,0.3418121337890625,0.1322021484375,1,0.98
2020-05-16 12:22:48.014 -0400,10014.66835375,0.8076324462890625,0.2984161376953125,0.1590423583984375,1,0.98
2020-05-16 12:22:48.084 -0400,10014.73820175,0.94293212890625,0.3210906982421875,0.012603759765625,1,0.98
2020-05-16 12:22:48.154 -0400,10014.80804575,1.220428466796875,0.3753204345703125,-0.1199188232421875,1,0.98
2020-05-16 12:22:48.227 -0400,10014.87789175,1.275634765625,0.455413818359375,-0.7929229736328125,1,0.98
2020-05-16 12:22:48.294 -0400,10014.94773875,1.345321655273438,-0.30621337890625,-0.4087066650390625,1,0.98
2020-05-16 12:22:48.364 -0400,10015.01758175,1.212631225585938,-0.04168701171875,-0.229156494140625,1,0.98
2020-05-16 12:22:48.434 -0400,10015.08742375,0.6852874755859375,0.8954010009765625,-0.54193115234375,1,0.98
2020-05-16 12:22:48.503 -0400,10015.15726575,0.3436737060546875,0.611419677734375,-0.274688720703125,1,0.98
2020-05-16 12:22:48.573 -0400,10015.22710775,0.6679534912109375,0.3968048095703125,-0.3267669677734375,1,0.98
2020-05-16 12:22:48.643 -0400,10015.29695075,1.19952392578125,0.2852325439453125,-0.3948822021484375,1,0.98
2020-05-16 12:22:48.713 -0400,10015.366793875,1.238555908203125,0.3336639404296875,-0.2471466064453125,1,0.98
2020-05-16 12:22:48.783 -0400,10015.436633875,1.47637939453125,0.758941650390625,-0.4721527099609375,1,0.98
2020-05-16 12:22:48.853 -0400,10015.506476875,1.65167236328125,0.437530517578125,-0.30517578125,1,0.98
2020-05-16 12:22:48.922 -0400,10015.576317875,1.338653564453125,0.167938232421875,-0.07611083984375,1,0.98
2020-05-16 12:22:48.992 -0400,10015.646159875,0.629180908203125,0.3033294677734375,-0.11712646484375,1,0.98
2020-05-16 12:22:49.062 -0400,10015.716001875,0.3903350830078125,0.3129119873046875,0.00360107421875,1,0.98
2020-05-16 12:22:49.132 -0400,10015.785836875,0.5027618408203125,0.27496337890625,0.041259765625,1,0.98
2020-05-16 12:22:49.202 -0400,10015.855676875,1.242782592773438,0.291656494140625,0.017974853515625,1,0.98
2020-05-16 12:22:49.272 -0400,10015.925517875,1.1707763671875,0.2132568359375,-0.0365447998046875,1,0.98
2020-05-16 12:22:49.341 -0400,10015.995359875,1.686813354492188,0.3956146240234375,0.190093994140625,1,0.98
2020-05-16 12:22:49.411 -0400,10016.065201875,1.434860229492188,0.5464630126953125,-0.262725830078125,1,0.98
2020-05-16 12:22:49.481 -0400,10016.135040875,1.251708984375,0.39617919921875,-0.3069305419921875,1,0.98
2020-05-16 12:22:49.551 -0400,10016.204878875,1.000167846679688,0.3520965576171875,-0.5255279541015625,1,0.98
2020-05-16 12:22:49.621 -0400,10016.274718875,0.5172576904296875,0.5936279296875,-0.4834747314453125,1,0.98
2020-05-16 12:22:49.691 -0400,10016.3445565,0.6683502197265625,0.5966644287109375,-0.3963775634765625,1,0.98
2020-05-16 12:22:49.760 -0400,10016.4143925,1.112884521484375,0.68267822265625,-0.540985107421875,1,0.98
2020-05-16 12:22:49.830 -0400,10016.4842295,1.354888916015625,0.50933837890625,-0.4389801025390625,1,0.98
2020-05-16 12:22:49.900 -0400,10016.5540695,1.687957763671875,0.5050201416015625,-0.5218353271484375,1,0.98
2020-05-16 12:22:49.970 -0400,10016.6239085,2.090118408203125,0.4466094970703125,-0.2578277587890625,1,0.98
2020-05-16 12:22:50.040 -0400,10016.6937465,1.538604736328125,0.253570556640625,-0.18408203125,1,0.98
2020-05-16 12:22:50.110 -0400,10016.7635825,0.690216064453125,0.3071136474609375,-0.068939208984375,1,0.98
2020-05-16 12:22:50.180 -0400,10016.8334245,0.3612518310546875,0.2642822265625,0.08538818359375,1,0.98
2020-05-16 12:22:50.250 -0400,10016.9032645,0.4271697998046875,0.2481842041015625,0.0924072265625,1,0.98
2020-05-16 12:22:50.319 -0400,10016.9731005,0.806304931640625,0.2176971435546875,0.1128387451171875,1,0.98
2020-05-16 12:22:50.389 -0400,10017.0429365,0.772003173828125,0.191802978515625,0.0419464111328125,1,0.98
2020-05-16 12:22:50.459 -0400,10017.1127715,1.19085693359375,0.3762054443359375,-0.1105499267578125,1,0.98
2020-05-16 12:22:50.529 -0400,10017.1826075,1.47247314453125,0.6084747314453125,-0.5931549072265625,1,0.98
2020-05-16 12:22:50.599 -0400,10017.2524475,2.043350219726562,0.384674072265625,-0.4397735595703125,1,0.98
2020-05-16 12:22:50.668 -0400,10017.322287125,1.294082641601562,0.146240234375,-0.619110107421875,1,0.98
2020-05-16 12:22:50.738 -0400,10017.392130125,0.734100341796875,0.521759033203125,-0.399505615234375,1,0.98
2020-05-16 12:22:50.808 -0400,10017.461972125,0.584716796875,0.805328369140625,-0.5129852294921875,1,0.98
2020-05-16 12:22:50.878 -0400,10017.531816125,0.645843505859375,0.570098876953125,-0.7837982177734375,1,0.98
2020-05-16 12:22:50.948 -0400,10017.601662125,1.511367797851562,0.4263763427734375,-0.774505615234375,1,0.98
2020-05-16 12:22:51.018 -0400,10017.671507125,1.73828125,0.1086578369140625,-0.2764129638671875,1,0.98
2020-05-16 12:22:51.087 -0400,10017.741350125,1.821243286132812,0.4323577880859375,-0.2263946533203125,1,0.98
2020-05-16 12:22:51.157 -0400,10017.811192125,1.4697265625,0.80859375,-0.176544189453125,1,0.98
2020-05-16 12:22:51.229 -0400,10017.881035125,0.7590789794921875,0.313812255859375,0.047760009765625,1,0.98
2020-05-16 12:22:51.297 -0400,10017.950878125,0.457305908203125,0.239013671875,0.1326141357421875,1,0.98
2020-05-16 12:22:51.367 -0400,10018.020716125,0.5411834716796875,0.2962188720703125,0.1037445068359375,1,0.98
2020-05-16 12:22:51.437 -0400,10018.090554125,1.080413818359375,0.2700958251953125,0.098297119140625,1,0.98
2020-05-16 12:22:51.506 -0400,10018.160393125,1.061996459960938,0.2453765869140625,-0.1622314453125,1,0.98
2020-05-16 12:22:51.576 -0400,10018.230235125,1.095367431640625,0.2284393310546875,-0.0971832275390625,1,0.98
2020-05-16 12:22:51.646 -0400,10018.300079125,1.446517944335938,0.3817596435546875,-0.4963836669921875,1,0.98
2020-05-16 12:22:51.716 -0400,10018.369926125,1.278717041015625,0.2834320068359375,-0.1934967041015625,1,0.98
2020-05-16 12:22:51.786 -0400,10018.439775125,0.9805145263671875,0.558441162109375,-0.4953765869140625,1,0.98
2020-05-16 12:22:51.856 -0400,10018.509621125,0.6890411376953125,0.635101318359375,-0.4715423583984375,1,0.98
2020-05-16 12:22:51.925 -0400,10018.579466125,0.8961639404296875,0.5276031494140625,-0.5080108642578125,1,0.98
2020-05-16 12:22:51.995 -0400,10018.649311125,1.310211181640625,0.3418121337890625,-0.7531280517578125,1,0.98
2020-05-16 12:22:52.065 -0400,10018.719156125,1.747024536132812,0.154266357421875,-0.617767333984375,1,0.98
2020-05-16 12:22:52.135 -0400,10018.789004125,1.368194580078125,0.4281768798828125,-0.38311767578125,1,0.98
2020-05-16 12:22:52.205 -0400,10018.858850125,1.8194580078125,0.22283935546875,-0.2578277587890625,1,0.98
2020-05-16 12:22:52.275 -0400,10018.928698125,1.422149658203125,0.3026580810546875,-0.167877197265625,1,0.98
2020-05-16 12:22:52.345 -0400,10018.998540125,0.7275543212890625,0.368988037109375,0.00250244140625,1,0.98
2020-05-16 12:22:52.415 -0400,10019.068384125,0.4352569580078125,0.31304931640625,0.1117706298828125,1,0.98
2020-05-16 12:22:52.484 -0400,10019.138230125,0.43511962890625,0.25732421875,0.117156982421875,1,0.98
2020-05-16 12:22:52.554 -0400,10019.208076125,0.5991058349609375,0.2937774658203125,0.1170806884765625,1,0.98
2020-05-16 12:22:52.624 -0400,10019.277920125,0.82415771484375,0.3126983642578125,-0.0555267333984375,1,0.98
2020-05-16 12:22:52.694 -0400,10019.3477625,1.373306274414062,0.393463134765625,-0.18682861328125,1,0.98
2020-05-16 12:22:52.764 -0400,10019.4176115,1.165420532226562,0.3941802978515625,-0.75860595703125,1,0.98
2020-05-16 12:22:52.834 -0400,10019.4874575,1.736770629882812,0.2890625,-0.54766845703125,1,0.98
2020-05-16 12:22:52.903 -0400,10019.5573045,0.8409271240234375,0.12060546875,-0.7546539306640625,1,0.98
2020-05-16 12:22:52.973 -0400,10019.6271505,0.4842681884765625,0.345489501953125,-0.3733978271484375,1,0.98
2020-05-16 12:22:53.043 -0400,10019.6970015,0.5141448974609375,0.4611968994140625,-0.327362060546875,1,0.98
2020-05-16 12:22:53.115 -0400,10019.7668545,0.7739105224609375,0.567352294921875,-0.5140533447265625,1,0.98
2020-05-16 12:22:53.183 -0400,10019.8367045,1.029327392578125,0.568115234375,-0.461700439453125,1,0.98
2020-05-16 12:22:53.253 -0400,10019.9065545,1.86883544921875,0.6300201416015625,-0.493133544921875,1,0.98
2020-05-16 12:22:53.323 -0400,10019.9764075,1.2772216796875,0.3692779541015625,-0.341888427734375,1,0.98
2020-05-16 12:22:53.393 -0400,10020.0462575,1.442047119140625,0.5051727294921875,-0.25665283203125,1,0.98
2020-05-16 12:22:53.462 -0400,10020.1161045,0.8119049072265625,0.3070220947265625,-0.258209228515625,1,0.98
2020-05-16 12:22:53.532 -0400,10020.1859505,0.50537109375,0.229278564453125,-0.091156005859375,1,0.98
2020-05-16 12:22:53.602 -0400,10020.2557985,0.686279296875,0.2662353515625,-0.0704498291015625,1,0.98
2020-05-16 12:22:53.672 -0400,10020.3256455,0.858428955078125,0.303131103515625,-0.1605224609375,1,0.98
2020-05-16 12:22:53.742 -0400,10020.3954915,0.9690704345703125,0.2109375,-0.13836669921875,1,0.98
2020-05-16 12:22:53.811 -0400,10020.4653385,1.539581298828125,0.3884124755859375,-0.16668701171875,1,0.98
2020-05-16 12:22:53.881 -0400,10020.5351835,1.248092651367188,0.58135986328125,-0.5928497314453125,1,0.98
2020-05-16 12:22:53.951 -0400,10020.6050355,1.24859619140625,0.4475250244140625,-0.3720245361328125,1,0.98
2020-05-16 12:22:54.021 -0400,10020.6748865,0.6970672607421875,0.19708251953125,-0.25042724609375,1,0.98
2020-05-16 12:22:54.091 -0400,10020.7447355,0.5786895751953125,0.5247650146484375,-0.2885894775390625,1,0.98
2020-05-16 12:22:54.161 -0400,10020.8145835,0.418121337890625,0.5704345703125,-0.37615966796875,1,0.98
2020-05-16 12:22:54.231 -0400,10020.8844285,0.631591796875,0.681884765625,-0.593719482421875,1,0.98
2020-05-16 12:22:54.301 -0400,10020.9542725,1.075347900390625,0.85369873046875,-0.570068359375,1,0.98
2020-05-16 12:22:54.370 -0400,10021.0241185,1.559112548828125,0.5363616943359375,-0.540924072265625,1,0.98
2020-05-16 12:22:54.440 -0400,10021.0939645,1.581558227539062,0.4687957763671875,-0.3944854736328125,1,0.98
2020-05-16 12:22:54.510 -0400,10021.1638095,1.842788696289062,0.4834442138671875,-0.363250732421875,1,0.98
2020-05-16 12:22:54.580 -0400,10021.2336605,1.040878295898438,0.251251220703125,-0.1633148193359375,1,0.98
2020-05-16 12:22:54.650 -0400,10021.3035175,0.7435150146484375,0.3535003662109375,-0.0896453857421875,1,0.98
2020-05-16 12:22:54.719 -0400,10021.37337054167,0.766387939453125,0.2428741455078125,-0.0683135986328125,1,0.98
2020-05-16 12:22:54.789 -0400,10021.44322454167,0.6652069091796875,0.1085052490234375,-0.0545806884765625,1,0.98
2020-05-16 12:22:54.859 -0400,10021.51307754167,0.6406402587890625,0.0463409423828125,-0.01806640625,1,0.98
2020-05-16 12:22:54.929 -0400,10021.58293154167,0.904541015625,0.4102020263671875,-0.023345947265625,1,0.98
2020-05-16 12:22:54.999 -0400,10021.65278454167,1.862625122070312,0.8751983642578125,-0.8634796142578125,1,0.98
2020-05-16 12:22:55.069 -0400,10021.72263954167,1.362686157226562,0.3138580322265625,-0.328704833984375,1,0.98
2020-05-16 12:22:55.138 -0400,10021.79249054167,1.033172607421875,0.2550048828125,-0.2738800048828125,1,0.98
2020-05-16 12:22:55.215 -0400,10021.86234254167,0.8621063232421875,0.6721343994140625,-0.2738037109375,1,0.98
2020-05-16 12:22:55.278 -0400,10021.93219354167,0.7349395751953125,0.997711181640625,-0.3555908203125,1,0.98
2020-05-16 12:22:55.348 -0400,10022.00203954167,0.9366455078125,1.680999755859375,-0.45172119140625,1,0.98
2020-05-16 12:22:55.418 -0400,10022.07188854167,1.836090087890625,0.97833251953125,-0.56341552734375,1,0.98
2020-05-16 12:22:55.488 -0400,10022.14174054167,1.928298950195312,0.4269256591796875,-0.3251953125,1,0.98
2020-05-16 12:22:55.558 -0400,10022.21158654167,1.956436157226562,0.54193115234375,-0.2025604248046875,1,0.98
2020-05-16 12:22:55.628 -0400,10022.28143254167,1.2021484375,0.4212646484375,-0.1373291015625,1,0.98
2020-05-16 12:22:55.697 -0400,10022.35128225,0.8761444091796875,0.421112060546875,0.0334014892578125,1,0.98
2020-05-16 12:22:55.767 -0400,10022.42113325,0.97296142578125,0.309356689453125,0.0602264404296875,1,0.98
2020-05-16 12:22:55.837 -0400,10022.49098425,0.988433837890625,0.1790008544921875,0.0561370849609375,1,0.98
2020-05-16 12:22:55.907 -0400,10022.56083425,0.5711517333984375,0.098419189453125,0.05706787109375,1,0.98
2020-05-16 12:22:55.977 -0400,10022.63068225,0.4332733154296875,0.205078125,0.0073089599609375,1,0.98
2020-05-16 12:22:56.047 -0400,10022.70053425,0.8117218017578125,0.4679412841796875,-0.46405029296875,1,0.98
2020-05-16 12:22:56.116 -0400,10022.77038325,1.755538940429688,0.9046783447265625,-0.49163818359375,1,0.98
2020-05-16 12:22:56.186 -0400,10022.84023225,1.265899658203125,0.900146484375,-0.4319000244140625,1,0.98
2020-05-16 12:22:56.265 -0400,10022.91008225,1.043136596679688,0.4317474365234375,-0.372528076171875,1,0.98
2020-05-16 12:22:56.326 -0400,10022.97992925,0.86029052734375,0.7079010009765625,-0.3796234130859375,1,0.98
2020-05-16 12:22:56.396 -0400,10023.04977825,0.7122344970703125,1.051864624023438,-0.4312286376953125,1,0.98
2020-05-16 12:22:56.466 -0400,10023.11962825,0.974884033203125,0.964691162109375,-0.42315673828125,1,0.98
2020-05-16 12:22:56.535 -0400,10023.18947625,1.961715698242188,0.3233184814453125,-0.185211181640625,1,0.98
2020-05-16 12:22:56.605 -0400,10023.25932325,1.924819946289062,0.1043853759765625,-0.186676025390625,1,0.98
2020-05-16 12:22:56.675 -0400,10023.32917175,1.339096069335938,0.6660614013671875,-0.1759796142578125,1,0.98
2020-05-16 12:22:56.745 -0400,10023.39902475,1.278457641601562,0.4296722412109375,0.0193023681640625,1,0.98
2020-05-16 12:22:56.815 -0400,10023.46887375,0.9537811279296875,0.1410980224609375,0.1473388671875,1,0.98
2020-05-16 12:22:56.885 -0400,10023.53872675,0.87530517578125,0.0534820556640625,0.1546783447265625,1,0.98
2020-05-16 12:22:56.955 -0400,10023.60857975,0.520477294921875,0.1111297607421875,0.0905914306640625,1,0.98
2020-05-16 12:22:57.025 -0400,10023.67842875,0.4902191162109375,0.4237823486328125,0.1344757080078125,1,0.98
2020-05-16 12:22:57.094 -0400,10023.74827975,0.9074554443359375,0.91949462890625,-0.9569549560546875,1,0.98
2020-05-16 12:22:57.164 -0400,10023.81813375,1.767547607421875,0.805694580078125,-0.391387939453125,1,0.98
2020-05-16 12:22:57.234 -0400,10023.88798275,1.389312744140625,0.3431396484375,-0.722015380859375,1,0.98
2020-05-16 12:22:57.319 -0400,10023.95783375,0.7227783203125,0.1839141845703125,-0.6552886962890625,1,0.98
2020-05-16 12:22:57.374 -0400,10024.02768475,0.6299285888671875,0.417510986328125,-0.59991455078125,1,0.98
2020-05-16 12:22:57.444 -0400,10024.09753175,0.9264678955078125,0.5242462158203125,-0.5839996337890625,1,0.98
2020-05-16 12:22:57.513 -0400,10024.16738075,0.576385498046875,0.216644287109375,-0.398284912109375,1,0.98
2020-05-16 12:22:57.584 -0400,10024.23723075,2.92791748046875,1.27044677734375,-0.9808807373046875,1,0.98
2020-05-16 12:22:57.653 -0400,10024.30707675,2.085296630859375,0.183837890625,0.089141845703125,1,0.98
2020-05-16 12:22:57.723 -0400,10024.376920375,1.689300537109375,0.365936279296875,-0.2090301513671875,1,0.98
2020-05-16 12:22:57.793 -0400,10024.446763375,1.0625,0.614166259765625,-0.0804901123046875,1,0.98
2020-05-16 12:22:57.863 -0400,10024.516604375,0.5644989013671875,0.2107086181640625,0.1207122802734375,1,0.98
2020-05-16 12:22:57.932 -0400,10024.586447375,0.2235107421875,-0.039642333984375,0.0709381103515625,1,0.98
2020-05-16 12:22:58.002 -0400,10024.656288375,0.220794677734375,0.03070068359375,0.0175628662109375,1,0.98
2020-05-16 12:22:58.072 -0400,10024.726126375,0.1854400634765625,0.1263580322265625,0.0372161865234375,1,0.98
2020-05-16 12:22:58.142 -0400,10024.795966375,0.9565887451171875,0.3329315185546875,-0.179229736328125,1,0.98
2020-05-16 12:22:58.212 -0400,10024.865808375,2.085800170898438,1.046844482421875,-1.119491577148438,1,0.98
2020-05-16 12:22:58.282 -0400,10024.935654375,1.734024047851562,0.2697601318359375,-0.3154144287109375,1,0.98
2020-05-16 12:22:58.352 -0400,10025.005493375,1.064910888671875,-0.2185516357421875,-0.3861846923828125,1,0.98
2020-05-16 12:22:58.422 -0400,10025.075335375,0.6405487060546875,0.6697845458984375,-0.5063018798828125,1,0.98
2020-05-16 12:22:58.491 -0400,10025.145179375,0.517120361328125,0.6866607666015625,-0.539031982421875,1,0.98
2020-05-16 12:22:58.561 -0400,10025.215021375,0.5725555419921875,0.4775390625,-0.475311279296875,1,0.98
2020-05-16 12:22:58.631 -0400,10025.284861375,0.9824981689453125,0.2692718505859375,-0.410186767578125,1,0.98
2020-05-16 12:22:58.719 -0400,10025.354703625,1.276824951171875,0.1018829345703125,-0.335418701171875,1,0.98
2020-05-16 12:22:58.771 -0400,10025.424542625,1.540069580078125,-1.129501342773438,0.0394287109375,1,0.98
2020-05-16 12:22:58.841 -0400,10025.494384625,0.9189300537109375,0.1439056396484375,-0.06170654296875,1,0.98
2020-05-16 12:22:58.910 -0400,10025.564223625,1.02130126953125,0.835968017578125,-0.0929718017578125,1,0.98
2020-05-16 12:22:58.980 -0400,10025.634065625,0.9413604736328125,0.4918365478515625,0.0136871337890625,1,0.98
2020-05-16 12:22:59.050 -0400,10025.703902625,0.7655029296875,0.118865966796875,0.0090789794921875,1,0.98
2020-05-16 12:22:59.120 -0400,10025.773739625,0.8594207763671875,0.327850341796875,-0.0086669921875,1,0.98
2020-05-16 12:22:59.190 -0400,10025.843579625,0.799346923828125,0.3402252197265625,-0.0908966064453125,1,0.98
2020-05-16 12:22:59.259 -0400,10025.913421625,0.803375244140625,0.3073272705078125,-0.2525787353515625,1,0.98
2020-05-16 12:22:59.330 -0400,10025.983261625,0.656158447265625,0.222137451171875,-0.42572021484375,1,0.98
2020-05-16 12:22:59.399 -0400,10026.053104625,0.834625244140625,0.140533447265625,-0.251495361328125,1,0.98
2020-05-16 12:22:59.469 -0400,10026.122953625,1.767318725585938,0.6250152587890625,-0.41839599609375,1,0.98
2020-05-16 12:22:59.539 -0400,10026.192794625,0.8332061767578125,0.4998321533203125,-0.8935089111328125,1,0.98
2020-05-16 12:22:59.609 -0400,10026.262639625,0.918975830078125,0.4090576171875,-0.3838653564453125,1,0.98
2020-05-16 12:22:59.679 -0400,10026.332482625,0.675140380859375,0.4543609619140625,-0.1396942138671875,1,0.98
2020-05-16 12:22:59.749 -0400,10026.402327625,0.580810546875,0.5252227783203125,-0.2603607177734375,1,0.98
2020-05-16 12:22:59.818 -0400,10026.472168625,0.788116455078125,0.48553466796875,-0.3887786865234375,1,0.98
2020-05-16 12:22:59.888 -0400,10026.542009625,0.9384307861328125,0.4090118408203125,-0.3463287353515625,1,0.98
2020-05-16 12:22:59.958 -0400,10026.611857625,0.8181610107421875,0.3157806396484375,-0.2472381591796875,1,0.98
2020-05-16 12:23:00.028 -0400,10026.681702625,1.485336303710938,0.551605224609375,-0.3705596923828125,1,0.98
2020-05-16 12:23:00.098 -0400,10026.751551625,0.907623291015625,0.436737060546875,-0.169219970703125,1,0.98
2020-05-16 12:23:00.167 -0400,10026.821400625,1.242156982421875,0.165374755859375,-0.2662506103515625,1,0.98
2020-05-16 12:23:00.237 -0400,10026.891250625,0.8570098876953125,0.3711090087890625,-0.258453369140625,1,0.98
2020-05-16 12:23:00.307 -0400,10026.961095625,0.6793975830078125,0.24859619140625,-0.1927032470703125,1,0.98
2020-05-16 12:23:00.377 -0400,10027.030937625,0.657318115234375,0.2093048095703125,-0.0989990234375,1,0.98
2020-05-16 12:23:00.447 -0400,10027.100783625,0.5903778076171875,0.2672576904296875,-0.157257080078125,1,0.98
2020-05-16 12:23:00.517 -0400,10027.170629625,0.74884033203125,0.3530120849609375,-0.183929443359375,1,0.98
2020-05-16 12:23:00.587 -0400,10027.240480625,1.070892333984375,0.4080810546875,-0.1696929931640625,1,0.98
2020-05-16 12:23:00.656 -0400,10027.310326625,1.7064208984375,0.6372222900390625,-0.28082275390625,1,0.98
2020-05-16 12:23:00.726 -0400,10027.38016754167,1.118667602539062,0.439697265625,-0.530364990234375,1,0.98
2020-05-16 12:23:00.796 -0400,10027.45001254167,0.5583953857421875,0.214630126953125,-0.2222442626953125,1,0.98
2020-05-16 12:23:00.866 -0400,10027.51986054167,0.3048095703125,0.335052490234375,-0.171417236328125,1,0.98
2020-05-16 12:23:00.936 -0400,10027.58970654167,0.2708740234375,0.4487457275390625,-0.2571563720703125,1,0.98
2020-05-16 12:23:01.006 -0400,10027.65955254167,0.5778656005859375,0.49169921875,-0.36639404296875,1,0.98
2020-05-16 12:23:01.076 -0400,10027.72939954167,0.862640380859375,0.493804931640625,-0.2910919189453125,1,0.98
2020-05-16 12:23:01.145 -0400,10027.79924254167,2.511001586914062,0.4620819091796875,-0.33807373046875,1,0.98
2020-05-16 12:23:01.215 -0400,10027.86908954167,1.72528076171875,0.149078369140625,-0.2387542724609375,1,0.98
2020-05-16 12:23:01.285 -0400,10027.93893654167,1.11309814453125,0.6963348388671875,-0.1867523193359375,1,0.98
2020-05-16 12:23:01.355 -0400,10028.00878354167,0.6886749267578125,0.370452880859375,-0.106689453125,1,0.98
2020-05-16 12:23:01.425 -0400,10028.07862954167,0.458343505859375,0.1954803466796875,-0.0079345703125,1,0.98
2020-05-16 12:23:01.495 -0400,10028.14847654167,0.3781585693359375,0.20269775390625,-0.04693603515625,1,0.98
2020-05-16 12:23:01.564 -0400,10028.21831854167,0.5618743896484375,0.1944122314453125,0.0231781005859375,1,0.98
2020-05-16 12:23:01.634 -0400,10028.28816054167,1.077606201171875,0.23126220703125,0.0983428955078125,1,0.98
2020-05-16 12:23:01.704 -0400,10028.35800454167,1.793548583984375,1.071990966796875,-0.5574951171875,1,0.98
2020-05-16 12:23:01.774 -0400,10028.42784654167,1.390716552734375,0.5298004150390625,-0.6898193359375,1,0.98
2020-05-16 12:23:01.844 -0400,10028.49769154167,0.8503265380859375,-0.402313232421875,-0.2974090576171875,1,0.98
2020-05-16 12:23:01.914 -0400,10028.56753554167,0.4262237548828125,0.3091583251953125,-0.21240234375,1,0.98
2020-05-16 12:23:01.983 -0400,10028.63737954167,0.43951416015625,0.4186859130859375,-0.3465423583984375,1,0.98
2020-05-16 12:23:02.053 -0400,10028.70722554167,1.045318603515625,0.5301513671875,-0.44683837890625,1,0.98
2020-05-16 12:23:02.123 -0400,10028.77706654167,0.8589324951171875,0.5103912353515625,-0.2863922119140625,1,0.98
2020-05-16 12:23:02.193 -0400,10028.84690854167,0.6560516357421875,0.4598388671875,-0.2719268798828125,1,0.98
2020-05-16 12:23:02.265 -0400,10028.91675354167,0.65093994140625,0.536773681640625,-0.3582000732421875,1,0.98
2020-05-16 12:23:02.333 -0400,10028.98660054167,2.127639770507812,0.8953094482421875,-0.5631561279296875,1,0.98
2020-05-16 12:23:02.402 -0400,10029.05644754167,1.60247802734375,0.628570556640625,-0.0706787109375,1,0.98
2020-05-16 12:23:02.473 -0400,10029.12629354167,1.217269897460938,0.170196533203125,-0.272979736328125,1,0.98
2020-05-16 12:23:02.542 -0400,10029.19613954167,0.7043304443359375,0.3925628662109375,-0.09442138671875,1,0.98
2020-05-16 12:23:02.612 -0400,10029.26598654167,0.243896484375,0.14569091796875,0.00299072265625,1,0.98
2020-05-16 12:23:02.682 -0400,10029.3358325,0.1727447509765625,0.0837554931640625,-0.002471923828125,1,0.98
2020-05-16 12:23:02.752 -0400,10029.4056795,0.6556243896484375,0.1358489990234375,-0.0022735595703125,1,0.98
2020-05-16 12:23:02.822 -0400,10029.4755235,1.384033203125,0.6325225830078125,0.1534423828125,1,0.98
2020-05-16 12:23:02.891 -0400,10029.5453725,1.7025146484375,0.9700469970703125,-0.8477020263671875,1,0.98
2020-05-16 12:23:02.961 -0400,10029.6152195,1.3232421875,0.68994140625,-0.6505279541015625,1,0.98
2020-05-16 12:23:03.031 -0400,10029.6850665,0.706146240234375,0.52850341796875,-0.2857208251953125,1,0.98
2020-05-16 12:23:03.101 -0400,10029.7549085,0.4246826171875,0.295867919921875,-0.33062744140625,1,0.98
2020-05-16 12:23:03.171 -0400,10029.8247475,0.2621307373046875,0.4449005126953125,-0.360565185546875,1,0.98
2020-05-16 12:23:03.241 -0400,10029.8945885,0.62115478515625,0.7704315185546875,-0.5467681884765625,1,0.98
2020-05-16 12:23:03.311 -0400,10029.9644305,2.35284423828125,0.6456451416015625,-0.683837890625,1,0.98
2020-05-16 12:23:03.380 -0400,10030.0342745,1.760528564453125,0.5500640869140625,-0.28515625,1,0.98
2020-05-16 12:23:03.450 -0400,10030.1041185,1.645950317382812,0.543304443359375,-0.3283843994140625,1,0.98
2020-05-16 12:23:03.520 -0400,10030.1739655,1.074050903320312,0.2870941162109375,-0.042266845703125,1,0.98
2020-05-16 12:23:03.590 -0400,10030.2438115,0.7378387451171875,0.2408905029296875,-0.01873779296875,1,0.98
2020-05-16 12:23:03.660 -0400,10030.3136575,0.4522247314453125,0.1171722412109375,0.0157928466796875,1,0.98
2020-05-16 12:23:03.730 -0400,10030.38350575,0.328369140625,0.0903472900390625,0.0097808837890625,1,0.98
2020-05-16 12:23:03.800 -0400,10030.45335275,0.240142822265625,0.1666717529296875,-0.063446044921875,1,0.98
2020-05-16 12:23:03.869 -0400,10030.52319775,0.8641815185546875,0.767486572265625,-0.2487030029296875,1,0.98
2020-05-16 12:23:03.939 -0400,10030.59304475,0.8241119384765625,0.7522125244140625,-0.7941131591796875,1,0.98
2020-05-16 12:23:04.009 -0400,10030.66288775,1.518569946289062,0.8787841796875,-0.6154937744140625,1,0.98
2020-05-16 12:23:04.079 -0400,10030.73273575,0.9595489501953125,0.5969085693359375,-0.462310791015625,1,0.98
2020-05-16 12:23:04.149 -0400,10030.80258175,0.5888671875,0.42572021484375,-0.1963958740234375,1,0.98
2020-05-16 12:23:04.218 -0400,10030.87242675,0.5374755859375,0.44903564453125,-0.222198486328125,1,0.98
2020-05-16 12:23:04.288 -0400,10030.94226975,0.553924560546875,0.586151123046875,-0.227294921875,1,0.98
2020-05-16 12:23:04.366 -0400,10031.01211675,0.9563751220703125,0.722564697265625,-0.16064453125,1,0.98
2020-05-16 12:23:04.428 -0400,10031.08195975,1.821609497070312,0.9352569580078125,-0.5528106689453125,1,0.98
2020-05-16 12:23:04.498 -0400,10031.15180675,1.78314208984375,0.6576690673828125,-0.4679412841796875,1,0.98
2020-05-16 12:23:04.568 -0400,10031.22165275,1.84710693359375,0.372650146484375,-0.293701171875,1,0.98
2020-05-16 12:23:04.638 -0400,10031.29150075,1.043792724609375,0.1889495849609375,-0.2854461669921875,1,0.98
2020-05-16 12:23:04.707 -0400,10031.36134879167,0.6154632568359375,0.220123291015625,-0.1010284423828125,1,0.98
2020-05-16 12:23:04.777 -0400,10031.43119579167,0.3089752197265625,0.0371551513671875,-0.0318450927734375,1,0.98
2020-05-16 12:23:04.847 -0400,10031.50104479167,0.2878265380859375,-0.10955810546875,-0.003753662109375,1,0.98
2020-05-16 12:23:04.917 -0400,10031.57089279167,0.5136566162109375,0.056243896484375,0.103179931640625,1,0.98
2020-05-16 12:23:04.987 -0400,10031.64074179167,1.509963989257812,1.293426513671875,-0.0059967041015625,1,0.98
2020-05-16 12:23:05.057 -0400,10031.71059179167,1.715469360351562,0.8230743408203125,-1.068756103515625,1,0.98
2020-05-16 12:23:05.126 -0400,10031.78043579167,1.41314697265625,0.96099853515625,-0.169830322265625,1,0.98
2020-05-16 12:23:05.196 -0400,10031.85028179167,0.654815673828125,0.41204833984375,-0.40277099609375,1,0.98
2020-05-16 12:23:05.266 -0400,10031.92012679167,0.4323577880859375,0.5154571533203125,-0.3492584228515625,1,0.98
2020-05-16 12:23:05.336 -0400,10031.98997579167,0.3469085693359375,0.9025421142578125,-0.2998046875,1,0.98
2020-05-16 12:23:05.406 -0400,10032.05982379167,0.55584716796875,1.156097412109375,-0.139678955078125,1,0.98
2020-05-16 12:23:05.476 -0400,10032.12967479167,2.672683715820312,0.6212310791015625,0.2059326171875,1,0.98
2020-05-16 12:23:05.546 -0400,10032.19952479167,2.284622192382812,0.298736572265625,-0.2689056396484375,1,0.98
2020-05-16 12:23:05.615 -0400,10032.26936979167,1.49566650390625,0.5874176025390625,-0.13165283203125,1,0.98
2020-05-16 12:23:05.685 -0400,10032.339217875,0.9081878662109375,0.258270263671875,0.01202392578125,1,0.98
2020-05-16 12:23:05.755 -0400,10032.409065875,0.538482666015625,0.00115966796875,0.1106414794921875,1,0.98
2020-05-16 12:23:05.825 -0400,10032.478911875,0.4793853759765625,-0.0508575439453125,0.0594635009765625,1,0.98
2020-05-16 12:23:05.895 -0400,10032.548762875,0.221038818359375,-0.0167694091796875,0.095611572265625,1,0.98
2020-05-16 12:23:05.965 -0400,10032.618605875,0.398468017578125,0.34783935546875,0.1092681884765625,1,0.98
2020-05-16 12:23:06.035 -0400,10032.688450875,1.173904418945312,1.609893798828125,-0.5474700927734375,1,0.98
2020-05-16 12:23:06.104 -0400,10032.758295875,1.898956298828125,0.8437347412109375,-0.4254302978515625,1,0.98
2020-05-16 12:23:06.174 -0400,10032.828143875,1.029342651367188,0.9355010986328125,-0.334136962890625,1,0.98
2020-05-16 12:23:06.244 -0400,10032.897996875,0.7463836669921875,0.5164337158203125,-0.2983856201171875,1,0.98
2020-05-16 12:23:06.314 -0400,10032.967846875,0.54608154296875,0.7295379638671875,-0.2066192626953125,1,0.98
2020-05-16 12:23:06.384 -0400,10033.037695875,0.628570556640625,0.7902069091796875,-0.305267333984375,1,0.98
2020-05-16 12:23:06.453 -0400,10033.107544875,1.6473388671875,1.247634887695312,-0.6217041015625,1,0.98
2020-05-16 12:23:06.523 -0400,10033.177392875,2.189071655273438,0.5145263671875,-0.2418975830078125,1,0.98
2020-05-16 12:23:06.593 -0400,10033.247242875,1.981109619140625,0.7300262451171875,-0.1153564453125,1,0.98
2020-05-16 12:23:06.663 -0400,10033.317086875,1.127609252929688,0.30718994140625,-0.012786865234375,1,0.98
2020-05-16 12:23:06.733 -0400,10033.38693141667,0.57012939453125,0.12152099609375,0.0097503662109375,1,0.98
2020-05-16 12:23:06.803 -0400,10033.45678141667,0.3506622314453125,0.064666748046875,0.0843963623046875,1,0.98
2020-05-16 12:23:06.873 -0400,10033.52663041667,0.4302520751953125,-0.0067901611328125,0.1514434814453125,1,0.98
2020-05-16 12:23:06.942 -0400,10033.59647541667,0.316253662109375,0.0776824951171875,0.2021026611328125,1,0.98
2020-05-16 12:23:07.012 -0400,10033.66632141667,0.4976806640625,0.7120819091796875,0.0698699951171875,1,0.98
2020-05-16 12:23:07.082 -0400,10033.73617041667,1.425491333007812,1.365753173828125,-0.6865081787109375,1,0.98
2020-05-16 12:23:07.152 -0400,10033.80601841667,1.917404174804688,0.9386444091796875,-0.8865509033203125,1,0.98
2020-05-16 12:23:07.222 -0400,10033.87586341667,1.01617431640625,0.5162353515625,-0.731292724609375,1,0.98
2020-05-16 12:23:07.292 -0400,10033.94571141667,0.5402984619140625,0.4929046630859375,-0.63134765625,1,0.98
2020-05-16 12:23:07.362 -0400,10034.01555741667,0.407379150390625,0.392791748046875,-0.476806640625,1,0.98
2020-05-16 12:23:07.431 -0400,10034.08540941667,0.76141357421875,0.5169830322265625,-0.54443359375,1,0.98
2020-05-16 12:23:07.501 -0400,10034.15525941667,1.641799926757812,0.724090576171875,-0.5838775634765625,1,0.98
2020-05-16 12:23:07.571 -0400,10034.22511641667,2.193435668945312,0.57391357421875,-0.413787841796875,1,0.98
2020-05-16 12:23:07.641 -0400,10034.29497341667,1.718475341796875,0.4204559326171875,-0.2834930419921875,1,0.98
2020-05-16 12:23:07.711 -0400,10034.3648265,0.80499267578125,0.3774566650390625,-0.22088623046875,1,0.98
2020-05-16 12:23:07.781 -0400,10034.4346835,0.4510040283203125,0.2247772216796875,-0.1695709228515625,1,0.98
2020-05-16 12:23:07.851 -0400,10034.5045385,0.570587158203125,0.14093017578125,-0.0491180419921875,1,0.98
2020-05-16 12:23:07.921 -0400,10034.5743945,0.600616455078125,0.1387939453125,0.049163818359375,1,0.98
2020-05-16 12:23:07.990 -0400,10034.6442505,0.53240966796875,0.167938232421875,0.0630340576171875,1,0.98
2020-05-16 12:23:08.060 -0400,10034.7141055,0.801055908203125,0.4359130859375,-0.117828369140625,1,0.98
2020-05-16 12:23:08.130 -0400,10034.7839595,1.217132568359375,0.7022857666015625,-0.617156982421875,1,0.98
2020-05-16 12:23:08.200 -0400,10034.8538145,1.588546752929688,0.797271728515625,-0.5454864501953125,1,0.98
2020-05-16 12:23:08.270 -0400,10034.9236675,0.7638702392578125,0.3979034423828125,-0.4663848876953125,1,0.98
2020-05-16 12:23:08.340 -0400,10034.9935175,0.4556427001953125,0.6642303466796875,-0.38525390625,1,0.98
2020-05-16 12:23:08.409 -0400,10035.0633705,0.5686187744140625,0.5931854248046875,-0.417205810546875,1,0.98
2020-05-16 12:23:08.479 -0400,10035.1332235,0.893829345703125,0.4831695556640625,-0.5062713623046875,1,0.98
2020-05-16 12:23:08.549 -0400,10035.2030755,0.972869873046875,0.655426025390625,-0.5050048828125,1,0.98
2020-05-16 12:23:08.619 -0400,10035.2729235,1.886062622070312,0.7339324951171875,-0.5901947021484375,1,0.98
2020-05-16 12:23:08.689 -0400,10035.34277204167,1.875167846679688,0.369110107421875,-0.4250030517578125,1,0.98
2020-05-16 12:23:08.759 -0400,10035.41262204167,1.372604370117188,0.4705657958984375,-0.27447509765625,1,0.98
2020-05-16 12:23:08.828 -0400,10035.48247304167,0.7725372314453125,0.2855072021484375,-0.2317962646484375,1,0.98
2020-05-16 12:23:08.898 -0400,10035.55232204167,0.6069793701171875,0.160797119140625,-0.1083984375,1,0.98
2020-05-16 12:23:08.968 -0400,10035.62217404167,0.3616485595703125,0.0633697509765625,0.0340728759765625,1,0.98
2020-05-16 12:23:09.038 -0400,10035.69202504167,0.25927734375,0.08892822265625,0.0164947509765625,1,0.98
2020-05-16 12:23:09.108 -0400,10035.76187204167,0.5374908447265625,0.56048583984375,-0.1671905517578125,1,0.98
2020-05-16 12:23:09.178 -0400,10035.83171704167,1.148956298828125,0.850311279296875,-0.3207855224609375,1,0.98
2020-05-16 12:23:09.248 -0400,10035.90156404167,1.364212036132812,0.8678741455078125,-0.53558349609375,1,0.98
2020-05-16 12:23:09.318 -0400,10035.97141404167,1.0863037109375,0.6583709716796875,-0.364227294921875,1,0.98
2020-05-16 12:23:09.387 -0400,10036.04126404167,0.5549163818359375,0.5279998779296875,-0.372222900390625,1,0.98
2020-05-16 12:23:09.457 -0400,10036.11111304167,0.450469970703125,0.619476318359375,-0.2964019775390625,1,0.98
2020-05-16 12:23:09.527 -0400,10036.18096304167,0.840667724609375,0.76312255859375,-0.405670166015625,1,0.98
2020-05-16 12:23:09.597 -0400,10036.25081404167,1.634613037109375,0.7095184326171875,-0.43267822265625,1,0.98
2020-05-16 12:23:09.667 -0400,10036.32066704167,1.698257446289062,0.6712493896484375,-0.422088623046875,1,0.98
2020-05-16 12:23:09.737 -0400,10036.39051941667,1.769119262695312,0.60736083984375,-0.2903900146484375,1,0.98
2020-05-16 12:23:09.806 -0400,10036.46037641667,1.163238525390625,0.28131103515625,-0.257904052734375,1,0.98
2020-05-16 12:23:09.876 -0400,10036.53023141667,0.6205291748046875,0.2815093994140625,-0.1670684814453125,1,0.98
2020-05-16 12:23:09.946 -0400,10036.60008541667,0.522247314453125,0.3237457275390625,-0.0634918212890625,1,0.98
2020-05-16 12:23:10.016 -0400,10036.66993441667,0.4654388427734375,0.179351806640625,-0.013214111328125,1,0.98
2020-05-16 12:23:10.086 -0400,10036.73978541667,0.6307373046875,0.2003021240234375,0.0590972900390625,1,0.98
2020-05-16 12:23:10.156 -0400,10036.80963241667,0.9234466552734375,0.3333892822265625,0.033355712890625,1,0.98
2020-05-16 12:23:10.226 -0400,10036.87947741667,1.429962158203125,0.671051025390625,-0.4229583740234375,1,0.98
2020-05-16 12:23:10.296 -0400,10036.94932041667,1.788711547851562,0.3726043701171875,-0.3204803466796875,1,0.98
2020-05-16 12:23:10.365 -0400,10037.01916841667,0.9511260986328125,0.347808837890625,-0.4837646484375,1,0.98
2020-05-16 12:23:10.435 -0400,10037.08901341667,0.5512237548828125,0.5211029052734375,-0.2396392822265625,1,0.98
2020-05-16 12:23:10.505 -0400,10037.15885941667,0.520843505859375,0.571868896484375,-0.1880035400390625,1,0.98
2020-05-16 12:23:10.575 -0400,10037.22870441667,0.9669036865234375,0.6316680908203125,-0.310699462890625,1,0.98
2020-05-16 12:23:10.645 -0400,10037.29854841667,1.470413208007812,0.80474853515625,-0.3804473876953125,1,0.98
2020-05-16 12:23:10.714 -0400,10037.36839175,1.389144897460938,0.78753662109375,-0.4438629150390625,1,0.98
2020-05-16 12:23:10.784 -0400,10037.43823275,1.530303955078125,0.495452880859375,-0.3132476806640625,1,0.98
2020-05-16 12:23:10.854 -0400,10037.50807375,1.193405151367188,0.308135986328125,-0.1767578125,1,0.98
2020-05-16 12:23:10.924 -0400,10037.57791875,0.58935546875,0.29583740234375,-0.104278564453125,1,0.98
2020-05-16 12:23:10.994 -0400,10037.64776075,0.4252777099609375,0.293914794921875,-0.0626678466796875,1,0.98
2020-05-16 12:23:11.064 -0400,10037.71760275,0.617523193359375,0.2691650390625,0.0116424560546875,1,0.98
2020-05-16 12:23:11.133 -0400,10037.78744775,1.182540893554688,0.21563720703125,0.057830810546875,1,0.98
2020-05-16 12:23:11.203 -0400,10037.85728975,1.1942138671875,0.2980804443359375,-0.06292724609375,1,0.98
2020-05-16 12:23:11.273 -0400,10037.92713475,1.078231811523438,0.7220916748046875,-0.1631927490234375,1,0.98
2020-05-16 12:23:11.343 -0400,10037.99697875,1.472183227539062,0.514923095703125,-0.4215545654296875,1,0.98
2020-05-16 12:23:11.413 -0400,10038.06682275,0.9088134765625,0.41302490234375,-0.40057373046875,1,0.98
2020-05-16 12:23:11.483 -0400,10038.13666775,0.5739593505859375,0.5492706298828125,-0.3150177001953125,1,0.98
2020-05-16 12:23:11.553 -0400,10038.20651375,0.66259765625,0.46612548828125,-0.2527313232421875,1,0.98
2020-05-16 12:23:11.622 -0400,10038.27635875,0.9279632568359375,0.4638214111328125,-0.337127685546875,1,0.98
2020-05-16 12:23:11.692 -0400,10038.346201625,1.12969970703125,0.500396728515625,-0.3280181884765625,1,0.98
2020-05-16 12:23:11.762 -0400,10038.416046625,1.5172119140625,0.8392791748046875,-0.7111663818359375,1,0.98
2020-05-16 12:23:11.832 -0400,10038.485893625,1.60009765625,0.3263702392578125,-0.3483734130859375,1,0.98
2020-05-16 12:23:11.902 -0400,10038.555743625,1.268508911132812,0.416473388671875,-0.3813018798828125,1,0.98
2020-05-16 12:23:11.972 -0400,10038.625588625,0.51641845703125,0.3306884765625,-0.1513824462890625,1,0.98
2020-05-16 12:23:12.042 -0400,10038.695436625,0.542022705078125,0.26666259765625,-0.1757049560546875,1,0.98
2020-05-16 12:23:12.112 -0400,10038.765279625,0.8390045166015625,0.26885986328125,-0.0550079345703125,1,0.98
2020-05-16 12:23:12.181 -0400,10038.835124625,1.085159301757812,0.196319580078125,0.024078369140625,1,0.98
2020-05-16 12:23:12.251 -0400,10038.904971625,1.095138549804688,0.3002777099609375,0.0947113037109375,1,0.98
2020-05-16 12:23:12.321 -0400,10038.974813625,1.309005737304688,0.518585205078125,-0.171112060546875,1,0.98
2020-05-16 12:23:12.391 -0400,10039.044661625,1.207061767578125,0.3111572265625,-0.2242889404296875,1,0.98
2020-05-16 12:23:12.461 -0400,10039.114508625,0.721588134765625,0.3744964599609375,-0.4022979736328125,1,0.98
2020-05-16 12:23:12.530 -0400,10039.184357625,0.5336761474609375,0.476348876953125,-0.3873748779296875,1,0.98
2020-05-16 12:23:12.600 -0400,10039.254205625,0.77984619140625,0.4903106689453125,-0.3629302978515625,1,0.98
2020-05-16 12:23:12.670 -0400,10039.324056625,1.26861572265625,0.492034912109375,-0.5101470947265625,1,0.98
2020-05-16 12:23:12.740 -0400,10039.39390416667,1.784103393554688,0.74700927734375,-0.6384735107421875,1,0.98
2020-05-16 12:23:12.810 -0400,10039.46375416667,1.297943115234375,0.361297607421875,-0.559234619140625,1,0.98
2020-05-16 12:23:12.880 -0400,10039.53360616667,1.6239013671875,0.384185791015625,-0.2700958251953125,1,0.98
2020-05-16 12:23:12.950 -0400,10039.60345816667,1.10992431640625,0.3225555419921875,-0.070587158203125,1,0.98
2020-05-16 12:23:13.019 -0400,10039.67330916667,0.5761260986328125,0.3098297119140625,0.015655517578125,1,0.98
2020-05-16 12:23:13.089 -0400,10039.74316116667,0.37725830078125,0.254974365234375,0.071136474609375,1,0.98
2020-05-16 12:23:13.159 -0400,10039.81301016667,0.62335205078125,0.2345733642578125,0.0560760498046875,1,0.98
2020-05-16 12:23:13.229 -0400,10039.88285316667,1.143020629882812,0.240692138671875,0.148406982421875,1,0.98
2020-05-16 12:23:13.304 -0400,10039.95270016667,1.284637451171875,0.318115234375,-0.0065460205078125,1,0.98
2020-05-16 12:23:13.369 -0400,10040.02254616667,1.1458740234375,0.46905517578125,-0.3627471923828125,1,0.98
2020-05-16 12:23:13.439 -0400,10040.09239216667,1.416748046875,0.1902313232421875,-0.4097900390625,1,0.98
2020-05-16 12:23:13.509 -0400,10040.16223816667,1.295852661132812,0.399749755859375,-0.4317169189453125,1,0.98
2020-05-16 12:23:13.578 -0400,10040.23208816667,0.685546875,0.7701568603515625,-0.4468841552734375,1,0.98
2020-05-16 12:23:13.648 -0400,10040.30194216667,0.5127410888671875,0.435638427734375,-0.496124267578125,1,0.98
2020-05-16 12:23:13.718 -0400,10040.371796375,0.7790374755859375,0.495330810546875,-0.5142822265625,1,0.98
2020-05-16 12:23:13.788 -0400,10040.441643375,1.397079467773438,0.347381591796875,-0.519134521484375,1,0.98
2020-05-16 12:23:13.858 -0400,10040.511493375,1.758346557617188,0.5781097412109375,-0.4866790771484375,1,0.98
2020-05-16 12:23:13.927 -0400,10040.581341375,1.50421142578125,0.50616455078125,-0.380279541015625,1,0.98
2020-05-16 12:23:13.997 -0400,10040.651191375,1.486465454101562,0.3472747802734375,-0.17620849609375,1,0.98
2020-05-16 12:23:14.067 -0400,10040.721040375,0.6974334716796875,0.1953125,-0.084991455078125,1,0.98
2020-05-16 12:23:14.137 -0400,10040.790887375,0.242523193359375,0.2672119140625,-0.151580810546875,1,0.98
2020-05-16 12:23:14.207 -0400,10040.860734375,0.2138519287109375,0.1624603271484375,0.002288818359375,1,0.98
2020-05-16 12:23:14.277 -0400,10040.930585375,0.9261474609375,0.303802490234375,-0.0407562255859375,1,0.98
2020-05-16 12:23:14.347 -0400,10041.000432375,1.433868408203125,0.2922515869140625,-0.1283721923828125,1,0.98
2020-05-16 12:23:14.417 -0400,10041.070279375,1.64288330078125,0.5393829345703125,-0.24468994140625,1,0.98
2020-05-16 12:23:14.486 -0400,10041.140123375,1.567276000976562,0.48553466796875,-0.34375,1,0.98
2020-05-16 12:23:14.556 -0400,10041.209966375,1.124618530273438,0.3228302001953125,-0.3957672119140625,1,0.98
2020-05-16 12:23:14.626 -0400,10041.279814375,0.5379486083984375,0.346588134765625,-0.348419189453125,1,0.98
2020-05-16 12:23:14.696 -0400,10041.34966366667,0.4349822998046875,0.374725341796875,-0.2142181396484375,1,0.98
2020-05-16 12:23:14.766 -0400,10041.41951266667,1.196014404296875,0.5400543212890625,-0.27685546875,1,0.98
2020-05-16 12:23:14.835 -0400,10041.48935666667,1.390533447265625,0.37353515625,-0.3764495849609375,1,0.98
2020-05-16 12:23:14.905 -0400,10041.55920166667,1.679763793945312,0.836822509765625,-0.5878448486328125,1,0.98
2020-05-16 12:23:14.975 -0400,10041.62904566667,1.265121459960938,0.51092529296875,-0.3404083251953125,1,0.98
2020-05-16 12:23:15.045 -0400,10041.69889066667,1.23040771484375,0.334014892578125,-0.11614990234375,1,0.98
2020-05-16 12:23:15.115 -0400,10041.76873866667,0.779815673828125,0.3020172119140625,0.0145416259765625,1,0.98
2020-05-16 12:23:15.185 -0400,10041.83858566667,0.493499755859375,0.2704315185546875,0.084564208984375,1,0.98
2020-05-16 12:23:15.255 -0400,10041.90843266667,0.76007080078125,0.365936279296875,0.0006256103515625,1,0.98
2020-05-16 12:23:15.324 -0400,10041.97827966667,1.3590087890625,0.302337646484375,-0.00140380859375,1,0.98
2020-05-16 12:23:15.394 -0400,10042.04812666667,1.44012451171875,0.186676025390625,0.038421630859375,1,0.98
2020-05-16 12:23:15.464 -0400,10042.11797266667,1.462692260742188,0.4630126953125,-0.1135101318359375,1,0.98
2020-05-16 12:23:15.534 -0400,10042.18782266667,1.239044189453125,0.3917236328125,-0.223541259765625,1,0.98
2020-05-16 12:23:15.604 -0400,10042.25766766667,1.065780639648438,0.4213714599609375,-0.20147705078125,1,0.98
2020-05-16 12:23:15.674 -0400,10042.32751266667,0.6686248779296875,0.389617919921875,-0.34478759765625,1,0.98
2020-05-16 12:23:15.743 -0400,10042.39735379167,0.4484710693359375,0.4445343017578125,-0.3611297607421875,1,0.98
2020-05-16 12:23:15.813 -0400,10042.46719579167,0.9369354248046875,0.6113128662109375,-0.39849853515625,1,0.98
2020-05-16 12:23:15.883 -0400,10042.53703879167,1.764907836914062,0.30377197265625,-0.42205810546875,1,0.98
2020-05-16 12:23:15.953 -0400,10042.60687879167,1.593124389648438,0.56866455078125,-0.7528076171875,1,0.98
2020-05-16 12:23:16.023 -0400,10042.67672579167,1.189254760742188,0.602325439453125,-0.3702545166015625,1,0.98
2020-05-16 12:23:16.093 -0400,10042.74657179167,1.598602294921875,0.0639190673828125,0.0242462158203125,1,0.98
2020-05-16 12:23:16.163 -0400,10042.81641779167,0.97955322265625,0.2829437255859375,-0.1222076416015625,1,0.98
2020-05-16 12:23:16.233 -0400,10042.88626379167,0.576568603515625,0.375396728515625,-0.016357421875,1,0.98
2020-05-16 12:23:16.303 -0400,10042.95610979167,0.7684173583984375,0.4688568115234375,0.00164794921875,1,0.98
2020-05-16 12:23:16.372 -0400,10043.02595679167,1.632095336914062,0.352752685546875,0.023223876953125,1,0.98
2020-05-16 12:23:16.442 -0400,10043.09580179167,1.3555908203125,0.02459716796875,0.1449127197265625,1,0.98
2020-05-16 12:23:16.512 -0400,10043.16564479167,1.166366577148438,0.344512939453125,-0.04779052734375,1,0.98
2020-05-16 12:23:16.582 -0400,10043.23548879167,1.256881713867188,0.56903076171875,-0.2619476318359375,1,0.98
2020-05-16 12:23:16.651 -0400,10043.30532979167,0.99755859375,0.3636932373046875,0.0144195556640625,1,0.98
2020-05-16 12:23:16.721 -0400,10043.37517441667,0.820404052734375,0.5205535888671875,-0.444488525390625,1,0.98
2020-05-16 12:23:16.791 -0400,10043.44501941667,0.7837982177734375,0.3762969970703125,-0.3069000244140625,1,0.98
2020-05-16 12:23:16.861 -0400,10043.51486541667,1.208053588867188,0.3496551513671875,-0.3613739013671875,1,0.98
2020-05-16 12:23:16.931 -0400,10043.58470941667,1.226242065429688,0.6302032470703125,-0.6146240234375,1,0.98
2020-05-16 12:23:17.001 -0400,10043.65455141667,1.175872802734375,0.7022705078125,-0.73260498046875,1,0.98
2020-05-16 12:23:17.070 -0400,10043.72439041667,1.5146484375,0.40875244140625,-0.3414154052734375,1,0.98
2020-05-16 12:23:17.140 -0400,10043.79423741667,1.446212768554688,0.136810302734375,-0.1090240478515625,1,0.98
2020-05-16 12:23:17.210 -0400,10043.86408341667,1.08746337890625,0.3405914306640625,-0.153045654296875,1,0.98
2020-05-16 12:23:17.280 -0400,10043.93392841667,0.8921051025390625,0.3838348388671875,0.017181396484375,1,0.98
2020-05-16 12:23:17.356 -0400,10044.00377441667,1.069168090820312,0.4875946044921875,0.1493072509765625,1,0.98
2020-05-16 12:23:17.420 -0400,10044.07362141667,1.387466430664062,0.3838653564453125,0.1904449462890625,1,0.98
2020-05-16 12:23:17.490 -0400,10044.14346741667,1.493728637695312,0.2514190673828125,-0.09344482421875,1,0.98
2020-05-16 12:23:17.559 -0400,10044.21331641667,1.263580322265625,0.264190673828125,-0.13397216796875,1,0.98
2020-05-16 12:23:17.629 -0400,10044.28316241667,1.000762939453125,0.1229400634765625,-0.234375,1,0.98
2020-05-16 12:23:17.699 -0400,10044.35300775,0.939849853515625,0.0859832763671875,-0.0453033447265625,1,0.98
2020-05-16 12:23:17.769 -0400,10044.42285175,1.115219116210938,0.39764404296875,0.0204010009765625,1,0.98
2020-05-16 12:23:17.839 -0400,10044.49269175,0.972869873046875,0.88232421875,-0.364166259765625,1,0.98
2020-05-16 12:23:17.909 -0400,10044.56253175,0.47576904296875,0.894378662109375,-0.5517730712890625,1,0.98
2020-05-16 12:23:17.979 -0400,10044.63237475,1.259475708007812,0.4138946533203125,-0.4080963134765625,1,0.98
2020-05-16 12:23:18.048 -0400,10044.70221675,1.585617065429688,0.09161376953125,-0.28240966796875,1,0.98
2020-05-16 12:23:18.118 -0400,10044.77205575,1.437652587890625,0.974578857421875,-0.4784088134765625,1,0.98
2020-05-16 12:23:18.188 -0400,10044.84189775,1.665847778320312,0.80718994140625,-0.473724365234375,1,0.98
2020-05-16 12:23:18.258 -0400,10044.91173875,1.70263671875,0.258270263671875,-0.101287841796875,1,0.98
2020-05-16 12:23:18.328 -0400,10044.98157775,0.90533447265625,0.1607208251953125,-0.2738800048828125,1,0.98
2020-05-16 12:23:18.398 -0400,10045.05141275,0.6227874755859375,0.237518310546875,-0.124542236328125,1,0.98
2020-05-16 12:23:18.467 -0400,10045.12125375,1.028289794921875,0.341522216796875,0.0885009765625,1,0.98
2020-05-16 12:23:18.537 -0400,10045.19109375,1.325836181640625,0.2492523193359375,-0.1513519287109375,1,0.98
2020-05-16 12:23:18.607 -0400,10045.26093775,0.9582366943359375,0.20111083984375,-0.01409912109375,1,0.98
2020-05-16 12:23:18.677 -0400,10045.33078375,1.181732177734375,0.5054779052734375,-0.205780029296875,1,0.98
2020-05-16 12:23:18.747 -0400,10045.40062875,1.2401123046875,0.31707763671875,-0.2203216552734375,1,0.98
2020-05-16 12:23:18.817 -0400,10045.47047275,1.339797973632812,0.3723297119140625,-0.1053009033203125,1,0.98
2020-05-16 12:23:18.886 -0400,10045.54031475,0.6984405517578125,0.518218994140625,-0.3620758056640625,1,0.98
2020-05-16 12:23:18.956 -0400,10045.61015775,0.6338653564453125,0.4042816162109375,-0.39794921875,1,0.98
2020-05-16 12:23:19.026 -0400,10045.67999775,1.033889770507812,0.5416259765625,-0.44683837890625,1,0.98
2020-05-16 12:23:19.096 -0400,10045.74983675,1.500625610351562,0.3751373291015625,-0.618560791015625,1,0.98
2020-05-16 12:23:19.166 -0400,10045.81967475,1.774871826171875,0.6256256103515625,-0.6317291259765625,1,0.98
2020-05-16 12:23:19.236 -0400,10045.88951475,1.203689575195312,0.961395263671875,-0.524505615234375,1,0.98
2020-05-16 12:23:19.305 -0400,10045.95935475,2.057052612304688,0.412384033203125,-0.1637725830078125,1,0.98
2020-05-16 12:23:19.375 -0400,10046.02919275,0.9726104736328125,0.1462554931640625,-0.1137847900390625,1,0.98
2020-05-16 12:23:19.445 -0400,10046.09903175,0.5984649658203125,0.33758544921875,-0.2543792724609375,1,0.98
2020-05-16 12:23:19.515 -0400,10046.16887275,0.5898590087890625,0.329132080078125,0.2313232421875,1,0.98
2020-05-16 12:23:19.585 -0400,10046.23871075,1.21875,0.4282379150390625,0.1126708984375,1,0.98
2020-05-16 12:23:19.655 -0400,10046.30855375,1.005691528320312,0.27288818359375,-0.1041717529296875,1,0.98
2020-05-16 12:23:19.724 -0400,10046.37839879167,0.9361114501953125,0.2337188720703125,-0.17327880859375,1,0.98
2020-05-16 12:23:19.794 -0400,10046.44823779167,1.162567138671875,0.3845672607421875,-0.1739959716796875,1,0.98
2020-05-16 12:23:19.864 -0400,10046.51808379167,1.328109741210938,0.1990814208984375,-0.4782562255859375,1,0.98
2020-05-16 12:23:19.934 -0400,10046.58792879167,0.973175048828125,0.3419189453125,-0.2303009033203125,1,0.98
2020-05-16 12:23:20.004 -0400,10046.65776979167,0.6851043701171875,0.630889892578125,-0.502960205078125,1,0.98
2020-05-16 12:23:20.074 -0400,10046.72761379167,1.3165283203125,0.70379638671875,-0.654388427734375,1,0.98
2020-05-16 12:23:20.144 -0400,10046.79745879167,1.2054443359375,0.245574951171875,-0.6401824951171875,1,0.98
2020-05-16 12:23:20.213 -0400,10046.86730279167,1.430099487304688,0.336334228515625,-0.4931640625,1,0.98
2020-05-16 12:23:20.283 -0400,10046.93714879167,1.766860961914062,0.52984619140625,-0.601226806640625,1,0.98
2020-05-16 12:23:20.353 -0400,10047.00699079167,1.751266479492188,0.17181396484375,-0.1157684326171875,1,0.98
2020-05-16 12:23:20.423 -0400,10047.07683379167,1.07452392578125,0.3891754150390625,-0.1615447998046875,1,0.98
2020-05-16 12:23:20.493 -0400,10047.14667479167,0.58306884765625,0.348907470703125,-0.01702880859375,1,0.98
2020-05-16 12:23:20.563 -0400,10047.21651579167,0.4169464111328125,0.2806549072265625,0.10345458984375,1,0.98
2020-05-16 12:23:20.633 -0400,10047.28635579167,0.69329833984375,0.17535400390625,0.1266937255859375,1,0.98
2020-05-16 12:23:20.702 -0400,10047.35619375,1.069992065429688,0.2388916015625,0.06866455078125,1,0.98
2020-05-16 12:23:20.772 -0400,10047.42603075,1.215164184570312,0.2454376220703125,0.06719970703125,1,0.98
2020-05-16 12:23:20.842 -0400,10047.49587575,1.535369873046875,0.62005615234375,-0.345733642578125,1,0.98
2020-05-16 12:23:20.912 -0400,10047.56571475,1.363540649414062,0.5683746337890625,-0.2960662841796875,1,0.98
2020-05-16 12:23:20.982 -0400,10047.63555775,1.007781982421875,0.3281402587890625,-0.409820556640625,1,0.98
2020-05-16 12:23:21.051 -0400,10047.70539775,0.8155059814453125,0.372711181640625,-0.3432159423828125,1,0.98
2020-05-16 12:23:21.121 -0400,10047.77523775,0.7857513427734375,0.5550689697265625,-0.3688201904296875,1,0.98
2020-05-16 12:23:21.191 -0400,10047.84508075,1.04840087890625,0.5307464599609375,-0.64666748046875,1,0.98
2020-05-16 12:23:21.261 -0400,10047.91492175,1.67352294921875,0.23651123046875,-0.4266510009765625,1,0.98
2020-05-16 12:23:21.331 -0400,10047.98476375,1.53369140625,0.638671875,-0.5245208740234375,1,0.98
2020-05-16 12:23:21.401 -0400,10048.05461075,1.627166748046875,0.40997314453125,-0.1516571044921875,1,0.98
2020-05-16 12:23:21.470 -0400,10048.12445775,1.120651245117188,0.27459716796875,-0.153411865234375,1,0.98
2020-05-16 12:23:21.540 -0400,10048.19430575,0.5648345947265625,0.2010650634765625,0.002685546875,1,0.98
2020-05-16 12:23:21.610 -0400,10048.26415275,0.458404541015625,0.441131591796875,0.0670623779296875,1,0.98
2020-05-16 12:23:21.680 -0400,10048.33399475,1.185684204101562,0.405914306640625,0.06201171875,1,0.98
2020-05-16 12:23:21.750 -0400,10048.40383875,1.281280517578125,0.2287445068359375,0.06500244140625,1,0.98
2020-05-16 12:23:21.820 -0400,10048.47367975,1.259750366210938,0.6816864013671875,-0.0634918212890625,1,0.98
2020-05-16 12:23:21.890 -0400,10048.54351875,1.124755859375,1.183837890625,0.0780029296875,1,0.98
2020-05-16 12:23:21.959 -0400,10048.61335675,0.4947052001953125,0.7961273193359375,-0.1998291015625,1,0.98
2020-05-16 12:23:22.029 -0400,10048.68319575,0.090362548828125,0.560638427734375,-0.2793121337890625,1,0.98
2020-05-16 12:23:22.099 -0400,10048.75304075,0.08563232421875,0.6183319091796875,-0.024444580078125,1,0.98
2020-05-16 12:23:22.169 -0400,10048.82288875,0.9867401123046875,0.185791015625,-0.755462646484375,1,0.98
2020-05-16 12:23:22.239 -0400,10048.89273575,0.638031005859375,1.039962768554688,0.432769775390625,1,0.98
2020-05-16 12:23:22.309 -0400,10048.96258075,1.404373168945312,0.9137725830078125,1.740005493164062,1,0.98
2020-05-16 12:23:22.378 -0400,10049.03242575,0.98919677734375,0.7487335205078125,-0.0255889892578125,1,0.98
2020-05-16 12:23:22.448 -0400,10049.10227075,1.639007568359375,0.3578338623046875,0.2116546630859375,1,0.98
2020-05-16 12:23:22.518 -0400,10049.17211375,0.685455322265625,-0.0312347412109375,-0.314666748046875,1,0.98
2020-05-16 12:23:22.588 -0400,10049.24195675,0.3494873046875,0.3095703125,-0.4140167236328125,1,0.98
2020-05-16 12:23:22.658 -0400,10049.31180475,0.522308349609375,0.229339599609375,-0.068756103515625,1,0.98
2020-05-16 12:23:22.728 -0400,10049.381652125,1.835525512695312,0.075592041015625,0.1169586181640625,1,0.98
2020-05-16 12:23:22.798 -0400,10049.451499125,1.755508422851562,0.7174530029296875,0.5879974365234375,1,0.98
2020-05-16 12:23:22.868 -0400,10049.521344125,1.107833862304688,0.7968597412109375,-0.1864471435546875,1,0.98
2020-05-16 12:23:22.937 -0400,10049.591189125,0.9307861328125,0.643829345703125,0.028778076171875,1,0.98
2020-05-16 12:23:23.007 -0400,10049.661036125,0.4785308837890625,0.4146575927734375,-0.0774078369140625,1,0.98
2020-05-16 12:23:23.077 -0400,10049.730883125,0.198638916015625,-0.049591064453125,-0.08441162109375,1,0.98
2020-05-16 12:23:23.147 -0400,10049.800724125,0.2685394287109375,0.138336181640625,-0.0508270263671875,1,0.98
2020-05-16 12:23:23.217 -0400,10049.870569125,0.94769287109375,0.579315185546875,-0.3424530029296875,1,0.98
2020-05-16 12:23:23.287 -0400,10049.940419125,1.5389404296875,0.63836669921875,-0.5182037353515625,1,0.98
2020-05-16 12:23:23.356 -0400,10050.010266125,1.750823974609375,0.675384521484375,-0.6132049560546875,1,0.98
2020-05-16 12:23:23.426 -0400,10050.080114125,1.313186645507812,0.8010101318359375,-0.2612152099609375,1,0.98
2020-05-16 12:23:23.496 -0400,10050.149965125,1.113571166992188,0.10400390625,-0.0606842041015625,1,0.98
2020-05-16 12:23:23.566 -0400,10050.219815125,0.505859375,0.2263031005859375,-0.2326202392578125,1,0.98
2020-05-16 12:23:23.636 -0400,10050.289664125,0.417724609375,0.3744354248046875,-0.064727783203125,1,0.98
2020-05-16 12:23:23.706 -0400,10050.359514125,1.1171875,0.4549102783203125,-0.063140869140625,1,0.98
2020-05-16 12:23:23.775 -0400,10050.429364125,1.743881225585938,0.2334747314453125,0.1707000732421875,1,0.98
2020-05-16 12:23:23.845 -0400,10050.499211125,1.376068115234375,0.156097412109375,0.0593719482421875,1,0.98
2020-05-16 12:23:23.915 -0400,10050.569061125,1.009429931640625,0.5661468505859375,-0.2134552001953125,1,0.98
2020-05-16 12:23:23.985 -0400,10050.638912125,0.8807373046875,0.318756103515625,-0.168792724609375,1,0.98
2020-05-16 12:23:24.055 -0400,10050.708766125,0.6805419921875,0.3079681396484375,-0.3379364013671875,1,0.98
2020-05-16 12:23:24.125 -0400,10050.778616125,0.5750274658203125,0.31787109375,-0.2331390380859375,1,0.98
2020-05-16 12:23:24.195 -0400,10050.848470125,0.7834320068359375,0.6422119140625,-0.4027252197265625,1,0.98
2020-05-16 12:23:24.264 -0400,10050.918325125,1.33477783203125,0.8534393310546875,-0.57623291015625,1,0.98
2020-05-16 12:23:24.334 -0400,10050.988180125,1.835693359375,0.4692840576171875,-0.5247955322265625,1,0.98
2020-05-16 12:23:24.405 -0400,10051.058028125,1.4779052734375,0.510345458984375,-0.584381103515625,1,0.98
2020-05-16 12:23:24.474 -0400,10051.127877125,1.759323120117188,0.4090423583984375,-0.2453765869140625,1,0.98
2020-05-16 12:23:24.544 -0400,10051.197724125,1.17730712890625,0.1599578857421875,-0.11907958984375,1,0.98
2020-05-16 12:23:24.614 -0400,10051.267573125,0.6712493896484375,0.3212890625,-0.0870208740234375,1,0.98
2020-05-16 12:23:24.684 -0400,10051.337415125,0.64276123046875,0.37615966796875,0.0420379638671875,1,0.98
2020-05-16 12:23:24.753 -0400,10051.407258375,1.11016845703125,0.324554443359375,0.0506134033203125,1,0.98
2020-05-16 12:23:24.823 -0400,10051.477098375,1.237380981445312,0.1468505859375,0.06005859375,1,0.98
2020-05-16 12:23:24.893 -0400,10051.546945375,0.95050048828125,0.200958251953125,0.102691650390625,1,0.98
2020-05-16 12:23:24.963 -0400,10051.616790375,1.152481079101562,0.776611328125,-0.4276275634765625,1,0.98
2020-05-16 12:23:25.033 -0400,10051.686637375,1.115615844726562,0.295623779296875,0.0015716552734375,1,0.98
2020-05-16 12:23:25.103 -0400,10051.756479375,1.262298583984375,0.5750579833984375,-0.368927001953125,1,0.98
2020-05-16 12:23:25.172 -0400,10051.826323375,0.8098602294921875,0.705841064453125,-0.4439239501953125,1,0.98
2020-05-16 12:23:25.242 -0400,10051.896169375,1.08050537109375,0.6476898193359375,-0.5000762939453125,1,0.98
2020-05-16 12:23:25.312 -0400,10051.966011375,1.348312377929688,0.487548828125,-0.44451904296875,1,0.98
2020-05-16 12:23:25.382 -0400,10052.035859375,1.348052978515625,0.50146484375,-0.529144287109375,1,0.98
2020-05-16 12:23:25.452 -0400,10052.105706375,1.574676513671875,0.87371826171875,-0.6876678466796875,1,0.98
2020-05-16 12:23:25.522 -0400,10052.175551375,1.998687744140625,0.020416259765625,-0.0373992919921875,1,0.98
2020-05-16 12:23:25.591 -0400,10052.245398375,0.9544525146484375,0.240478515625,-0.2351531982421875,1,0.98
2020-05-16 12:23:25.661 -0400,10052.315246375,0.514678955078125,0.3748626708984375,-0.0879669189453125,1,0.98
2020-05-16 12:23:25.731 -0400,10052.38509425,0.370391845703125,0.2849578857421875,0.123687744140625,1,0.98
2020-05-16 12:23:25.801 -0400,10052.45494225,0.6723175048828125,0.236541748046875,0.106109619140625,1,0.98
2020-05-16 12:23:25.871 -0400,10052.52478825,1.173309326171875,0.2427520751953125,0.055023193359375,1,0.98
2020-05-16 12:23:25.941 -0400,10052.59463425,1.394927978515625,0.3423614501953125,0.0163726806640625,1,0.98
2020-05-16 12:23:26.011 -0400,10052.66448325,1.61859130859375,0.75006103515625,-0.56158447265625,1,0.98
2020-05-16 12:23:26.080 -0400,10052.73433125,1.383926391601562,0.17755126953125,-0.1864471435546875,1,0.98
2020-05-16 12:23:26.150 -0400,10052.80417825,0.9937286376953125,0.3228759765625,-0.445068359375,1,0.98
2020-05-16 12:23:26.220 -0400,10052.87402225,0.406097412109375,1.045806884765625,-0.71636962890625,1,0.98
2020-05-16 12:23:26.290 -0400,10052.94386625,0.3815155029296875,0.5730133056640625,-0.3894500732421875,1,0.98
2020-05-16 12:23:26.360 -0400,10053.01371025,1.316162109375,0.7806854248046875,-0.527862548828125,1,0.98
2020-05-16 12:23:26.430 -0400,10053.08355425,1.110458374023438,0.560455322265625,-0.42681884765625,1,0.98
2020-05-16 12:23:26.500 -0400,10053.15340025,1.447311401367188,0.72100830078125,-0.5496826171875,1,0.98
2020-05-16 12:23:26.569 -0400,10053.22324625,1.919357299804688,0.499267578125,-0.128509521484375,1,0.98
2020-05-16 12:23:26.639 -0400,10053.29309525,1.178451538085938,0.238250732421875,-0.2011871337890625,1,0.98
2020-05-16 12:23:26.709 -0400,10053.362942875,0.626953125,0.4202117919921875,-0.1540985107421875,1,0.98
2020-05-16 12:23:26.779 -0400,10053.432790875,0.7549591064453125,0.3425750732421875,-0.00262451171875,1,0.98
2020-05-16 12:23:26.849 -0400,10053.502639875,1.111465454101562,0.1483612060546875,-0.0308990478515625,1,0.98
2020-05-16 12:23:26.919 -0400,10053.572488875,0.846527099609375,-0.0024261474609375,0.0618133544921875,1,0.98
2020-05-16 12:23:26.988 -0400,10053.642329875,0.95556640625,0.4040679931640625,0.0615234375,1,0.98
2020-05-16 12:23:27.058 -0400,10053.712173875,1.299453735351562,0.9189300537109375,-0.262115478515625,1,0.98
2020-05-16 12:23:27.128 -0400,10053.782023875,1.233108520507812,0.4493255615234375,-0.19970703125,1,0.98
2020-05-16 12:23:27.198 -0400,10053.851867875,0.874359130859375,0.46990966796875,-0.48291015625,1,0.98
2020-05-16 12:23:27.268 -0400,10053.921712875,0.5747222900390625,0.4093170166015625,-0.390655517578125,1,0.98
2020-05-16 12:23:27.338 -0400,10053.991556875,0.8265838623046875,0.5667877197265625,-0.330535888671875,1,0.98
2020-05-16 12:23:27.407 -0400,10054.061405875,1.602279663085938,1.181869506835938,-0.7599029541015625,1,0.98
2020-05-16 12:23:27.477 -0400,10054.131251875,1.661148071289062,0.550201416015625,-0.6235809326171875,1,0.98
2020-05-16 12:23:27.547 -0400,10054.201094875,1.526962280273438,0.4567413330078125,-0.490447998046875,1,0.98
2020-05-16 12:23:27.617 -0400,10054.270935875,1.70147705078125,0.42474365234375,-0.235595703125,1,0.98
2020-05-16 12:23:27.687 -0400,10054.340777875,1.174118041992188,0.15997314453125,-0.217926025390625,1,0.98
2020-05-16 12:23:27.757 -0400,10054.410622,0.7284393310546875,0.3171844482421875,-0.0635833740234375,1,0.98
2020-05-16 12:23:27.826 -0400,10054.480463,0.7895050048828125,0.418060302734375,0.0548248291015625,1,0.98
2020-05-16 12:23:27.896 -0400,10054.550305,1.196578979492188,0.2859954833984375,0.096649169921875,1,0.98
2020-05-16 12:23:27.966 -0400,10054.620148,0.8988800048828125,0.1140899658203125,0.0976104736328125,1,0.98
2020-05-16 12:23:28.036 -0400,10054.689991,0.9622650146484375,0.2606353759765625,0.0760040283203125,1,0.98
2020-05-16 12:23:28.106 -0400,10054.759837,1.11383056640625,0.493743896484375,-0.28948974609375,1,0.98
2020-05-16 12:23:28.176 -0400,10054.829679,1.397979736328125,0.41259765625,-0.2639312744140625,1,0.98
2020-05-16 12:23:28.246 -0400,10054.89952,1.000656127929688,0.2198638916015625,-0.4603424072265625,1,0.98
2020-05-16 12:23:28.316 -0400,10054.969363,0.8296051025390625,0.3758392333984375,-0.5082855224609375,1,0.98
2020-05-16 12:23:28.385 -0400,10055.039202,0.923370361328125,0.5444488525390625,-0.4767303466796875,1,0.98
2020-05-16 12:23:28.455 -0400,10055.109043,1.089202880859375,0.6513671875,-0.7146148681640625,1,0.98
2020-05-16 12:23:28.525 -0400,10055.178885,1.43902587890625,0.541168212890625,-0.6290435791015625,1,0.98
2020-05-16 12:23:28.595 -0400,10055.248727,1.9154052734375,0.4923248291015625,-0.5873565673828125,1,0.98
2020-05-16 12:23:28.665 -0400,10055.31857,1.98516845703125,0.1390228271484375,-0.1033172607421875,1,0.98
2020-05-16 12:23:28.734 -0400,10055.38840741667,1.084014892578125,0.47119140625,-0.2617645263671875,1,0.98
2020-05-16 12:23:28.804 -0400,10055.45824441667,0.5302886962890625,0.36761474609375,-0.0415191650390625,1,0.98
2020-05-16 12:23:28.874 -0400,10055.52808241667,0.409881591796875,0.2578887939453125,0.1213226318359375,1,0.98
2020-05-16 12:23:28.944 -0400,10055.59792441667,0.7872161865234375,0.2459259033203125,0.076324462890625,1,0.98
2020-05-16 12:23:29.014 -0400,10055.66776541667,0.9416046142578125,0.114471435546875,0.173187255859375,1,0.98
2020-05-16 12:23:29.084 -0400,10055.73760741667,1.099761962890625,0.2385406494140625,0.0036163330078125,1,0.98
2020-05-16 12:23:29.154 -0400,10055.80744641667,1.47149658203125,0.6815643310546875,-0.3394622802734375,1,0.98
2020-05-16 12:23:29.223 -0400,10055.87728741667,1.533187866210938,0.565032958984375,-0.2552947998046875,1,0.98
2020-05-16 12:23:29.293 -0400,10055.94712641667,0.8864898681640625,0.119598388671875,-0.3819122314453125,1,0.98
2020-05-16 12:23:29.363 -0400,10056.01696541667,0.7122650146484375,0.3269500732421875,-0.424713134765625,1,0.98
2020-05-16 12:23:29.433 -0400,10056.08680441667,1.050949096679688,0.670867919921875,-0.5434112548828125,1,0.98
2020-05-16 12:23:29.503 -0400,10056.15664041667,1.246795654296875,0.3979034423828125,-0.802581787109375,1,0.98
2020-05-16 12:23:29.572 -0400,10056.22648041667,1.580734252929688,0.2264251708984375,-0.596221923828125,1,0.98
2020-05-16 12:23:29.642 -0400,10056.29631741667,1.583343505859375,0.4599456787109375,-0.397064208984375,1,0.98
2020-05-16 12:23:29.712 -0400,10056.366156125,1.460784912109375,0.3699951171875,-0.1828460693359375,1,0.98
2020-05-16 12:23:29.782 -0400,10056.435998125,1.205291748046875,0.4420928955078125,-0.1146697998046875,1,0.98
2020-05-16 12:23:29.852 -0400,10056.505843125,0.54644775390625,0.2898712158203125,-0.0052337646484375,1,0.98
2020-05-16 12:23:29.922 -0400,10056.575688125,0.41937255859375,0.346649169921875,0.0724334716796875,1,0.98
2020-05-16 12:23:29.992 -0400,10056.645532125,0.858673095703125,0.2913665771484375,0.0868072509765625,1,0.98
2020-05-16 12:23:30.061 -0400,10056.715375125,1.0045166015625,0.1923828125,0.0942230224609375,1,0.98
2020-05-16 12:23:30.131 -0400,10056.785216125,1.153762817382812,0.2786407470703125,-0.087615966796875,1,0.98
2020-05-16 12:23:30.201 -0400,10056.855061125,1.226119995117188,0.4272308349609375,-0.409881591796875,1,0.98
2020-05-16 12:23:30.271 -0400,10056.924902125,1.411956787109375,0.23895263671875,-0.32708740234375,1,0.98
2020-05-16 12:23:30.341 -0400,10056.994742125,0.985382080078125,0.191009521484375,-0.414093017578125,1,0.98
2020-05-16 12:23:30.411 -0400,10057.064583125,0.63262939453125,0.4380340576171875,-0.3699951171875,1,0.98
2020-05-16 12:23:30.480 -0400,10057.134423125,0.7205963134765625,0.5570526123046875,-0.29473876953125,1,0.98
2020-05-16 12:23:30.550 -0400,10057.204265125,1.10980224609375,0.639404296875,-0.5435028076171875,1,0.98
2020-05-16 12:23:30.620 -0400,10057.274107125,1.68939208984375,0.6226959228515625,-0.631317138671875,1,0.98
2020-05-16 12:23:30.690 -0400,10057.343945125,1.211532592773438,0.3402099609375,-0.375213623046875,1,0.98
2020-05-16 12:23:30.760 -0400,10057.41378504167,1.444061279296875,0.5301513671875,-0.2759857177734375,1,0.98
2020-05-16 12:23:30.830 -0400,10057.48362504167,1.25732421875,0.34375,-0.1593475341796875,1,0.98
2020-05-16 12:23:30.900 -0400,10057.55346704167,0.7093048095703125,0.26446533203125,-0.09088134765625,1,0.98
2020-05-16 12:23:30.970 -0400,10057.62330804167,0.531707763671875,0.3593597412109375,0.00347900390625,1,0.98
2020-05-16 12:23:31.039 -0400,10057.69315104167,0.913055419921875,0.2953948974609375,0.0018768310546875,1,0.98
2020-05-16 12:23:31.109 -0400,10057.76299504167,1.106781005859375,0.1967010498046875,0.0912933349609375,1,0.98
2020-05-16 12:23:31.179 -0400,10057.83283404167,1.122543334960938,0.2579803466796875,0.0367279052734375,1,0.98
2020-05-16 12:23:31.249 -0400,10057.90267504167,1.242095947265625,0.632598876953125,-0.35394287109375,1,0.98
2020-05-16 12:23:31.319 -0400,10057.97251804167,1.51300048828125,0.5244293212890625,-0.236480712890625,1,0.98
2020-05-16 12:23:31.389 -0400,10058.04235604167,0.8810272216796875,0.183868408203125,-0.3585968017578125,1,0.98
2020-05-16 12:23:31.458 -0400,10058.11219604167,0.6331024169921875,0.2585296630859375,-0.253326416015625,1,0.98
2020-05-16 12:23:31.528 -0400,10058.18203504167,0.7670745849609375,0.5508270263671875,-0.2770233154296875,1,0.98
2020-05-16 12:23:31.598 -0400,10058.25187504167,1.040725708007812,0.6287384033203125,-0.519439697265625,1,0.98
2020-05-16 12:23:31.668 -0400,10058.32171504167,1.365020751953125,0.430389404296875,-0.4709320068359375,1,0.98
2020-05-16 12:23:31.738 -0400,10058.39156054167,1.330841064453125,0.51007080078125,-0.4112091064453125,1,0.98
2020-05-16 12:23:31.807 -0400,10058.46140354167,1.418365478515625,0.441009521484375,-0.3379058837890625,1,0.98
2020-05-16 12:23:31.877 -0400,10058.53124654167,1.389175415039062,0.277587890625,-0.161224365234375,1,0.98
2020-05-16 12:23:31.948 -0400,10058.60108854167,0.74481201171875,0.3206939697265625,-0.1083526611328125,1,0.98
2020-05-16 12:23:32.017 -0400,10058.67093354167,0.5441741943359375,0.3647918701171875,-0.0157928466796875,1,0.98
2020-05-16 12:23:32.087 -0400,10058.74077854167,0.744171142578125,0.270111083984375,0.024749755859375,1,0.98
2020-05-16 12:23:32.157 -0400,10058.81061954167,1.06719970703125,0.1875,0.1094512939453125,1,0.98
2020-05-16 12:23:32.226 -0400,10058.88046154167,0.98870849609375,0.289154052734375,0.0247802734375,1,0.98
2020-05-16 12:23:32.297 -0400,10058.95030154167,1.219406127929688,0.4626922607421875,-0.1610565185546875,1,0.98
2020-05-16 12:23:32.366 -0400,10059.02013854167,1.527008056640625,0.489044189453125,-0.3509979248046875,1,0.98
2020-05-16 12:23:32.436 -0400,10059.08997154167,0.9904327392578125,0.13067626953125,-0.351806640625,1,0.98
2020-05-16 12:23:32.506 -0400,10059.15980854167,0.6902008056640625,0.1691131591796875,-0.4188079833984375,1,0.98
2020-05-16 12:23:32.576 -0400,10059.22964354167,0.641510009765625,0.6377105712890625,-0.274078369140625,1,0.98
2020-05-16 12:23:32.646 -0400,10059.29948154167,1.094833374023438,0.608428955078125,-0.4787139892578125,1,0.98
2020-05-16 12:23:32.715 -0400,10059.3693235,1.278045654296875,0.4540252685546875,-0.5257415771484375,1,0.98
2020-05-16 12:23:32.785 -0400,10059.4391625,1.66162109375,0.5575714111328125,-0.4088592529296875,1,0.98
2020-05-16 12:23:32.855 -0400,10059.5089995,1.036117553710938,0.5363311767578125,-0.4847412109375,1,0.98
2020-05-16 12:23:32.925 -0400,10059.5788365,1.441192626953125,0.4131317138671875,-0.1997833251953125,1,0.98
2020-05-16 12:23:32.995 -0400,10059.6486745,1.06182861328125,0.2302093505859375,-0.1274871826171875,1,0.98
2020-05-16 12:23:33.070 -0400,10059.7185125,0.6375274658203125,0.2972259521484375,-0.0679168701171875,1,0.98
2020-05-16 12:23:33.135 -0400,10059.7883495,0.636016845703125,0.335113525390625,0.02008056640625,1,0.98
2020-05-16 12:23:33.204 -0400,10059.8581895,0.816192626953125,0.2520904541015625,0.0557861328125,1,0.98
2020-05-16 12:23:33.274 -0400,10059.9280265,0.957733154296875,0.230926513671875,0.062713623046875,1,0.98
2020-05-16 12:23:33.344 -0400,10059.9978685,1.27362060546875,0.3885345458984375,-0.0240020751953125,1,0.98
2020-05-16 12:23:33.414 -0400,10060.0677065,1.325653076171875,0.577301025390625,-0.5500640869140625,1,0.98
2020-05-16 12:23:33.484 -0400,10060.1375485,1.56396484375,0.2899017333984375,-0.3347015380859375,1,0.98
2020-05-16 12:23:33.553 -0400,10060.2073935,0.9683837890625,0.185699462890625,-0.515777587890625,1,0.98
2020-05-16 12:23:33.623 -0400,10060.2772355,0.53375244140625,0.379974365234375,-0.3460845947265625,1,0.98
2020-05-16 12:23:33.693 -0400,10060.3470775,0.4945068359375,0.4595947265625,-0.266021728515625,1,0.98
2020-05-16 12:23:33.763 -0400,10060.416916625,0.970733642578125,0.6161041259765625,-0.4692535400390625,1,0.98
2020-05-16 12:23:33.833 -0400,10060.486762625,1.43798828125,0.4438934326171875,-0.32666015625,1,0.98
2020-05-16 12:23:33.903 -0400,10060.556608625,1.35980224609375,0.5649261474609375,-0.386749267578125,1,0.98
2020-05-16 12:23:33.972 -0400,10060.626454625,1.421707153320312,0.5018463134765625,-0.283172607421875,1,0.98
2020-05-16 12:23:34.042 -0400,10060.696298625,1.309463500976562,0.30841064453125,-0.1330108642578125,1,0.98
2020-05-16 12:23:34.112 -0400,10060.766146625,0.7448883056640625,0.306732177734375,-0.118927001953125,1,0.98
2020-05-16 12:23:34.182 -0400,10060.835988625,0.4199066162109375,0.3261566162109375,-0.0140228271484375,1,0.98
2020-05-16 12:23:34.252 -0400,10060.905832625,0.4528656005859375,0.2752532958984375,-0.0027313232421875,1,0.98
2020-05-16 12:23:34.322 -0400,10060.975676625,1.026809692382812,0.2403717041015625,-0.0411224365234375,1,0.98
2020-05-16 12:23:34.392 -0400,10061.045519625,1.161346435546875,0.1561126708984375,0.018035888671875,1,0.98
2020-05-16 12:23:34.461 -0400,10061.115364625,1.122894287109375,0.4132537841796875,-0.04248046875,1,0.98
2020-05-16 12:23:34.531 -0400,10061.185206625,1.553939819335938,0.6946258544921875,-0.5027923583984375,1,0.98
2020-05-16 12:23:34.601 -0400,10061.255045625,1.328018188476562,0.30517578125,-0.0838775634765625,1,0.98
2020-05-16 12:23:34.671 -0400,10061.324886625,0.6748199462890625,0.1873321533203125,-0.4342498779296875,1,0.98
2020-05-16 12:23:34.741 -0400,10061.39472625,0.4249420166015625,0.3347320556640625,-0.233673095703125,1,0.98
2020-05-16 12:23:34.811 -0400,10061.46457225,0.5443267822265625,0.464569091796875,-0.2630615234375,1,0.98
2020-05-16 12:23:34.880 -0400,10061.53441825,0.9482879638671875,0.5667266845703125,-0.458953857421875,1,0.98
2020-05-16 12:23:34.950 -0400,10061.60426125,1.398056030273438,0.4662017822265625,-0.3758697509765625,1,0.98
2020-05-16 12:23:35.020 -0400,10061.67410925,1.41802978515625,0.5920257568359375,-0.482696533203125,1,0.98
2020-05-16 12:23:35.090 -0400,10061.74395325,1.527023315429688,0.4936676025390625,-0.3669891357421875,1,0.98
2020-05-16 12:23:35.160 -0400,10061.81379725,1.39825439453125,0.1556854248046875,-0.1323089599609375,1,0.98
2020-05-16 12:23:35.230 -0400,10061.88364325,0.612335205078125,0.31988525390625,-0.1153717041015625,1,0.98
2020-05-16 12:23:35.300 -0400,10061.95348625,0.3493804931640625,0.32977294921875,-0.0145721435546875,1,0.98
2020-05-16 12:23:35.370 -0400,10062.02333025,0.5054779052734375,0.248992919921875,0.0332489013671875,1,0.98
2020-05-16 12:23:35.439 -0400,10062.09317125,1.14593505859375,0.2680206298828125,0.0491485595703125,1,0.98
2020-05-16 12:23:35.509 -0400,10062.16301325,1.118392944335938,0.273712158203125,-0.02545166015625,1,0.98
2020-05-16 12:23:35.579 -0400,10062.23285925,1.11810302734375,0.4671783447265625,-0.13446044921875,1,0.98
2020-05-16 12:23:35.649 -0400,10062.30270425,1.474365234375,0.622894287109375,-0.5365447998046875,1,0.98
2020-05-16 12:23:35.719 -0400,10062.37254216667,1.018234252929688,0.0768585205078125,-0.179290771484375,1,0.98
2020-05-16 12:23:35.788 -0400,10062.44238216667,0.5624847412109375,0.2776031494140625,-0.3946380615234375,1,0.98
2020-05-16 12:23:35.858 -0400,10062.51222116667,0.4093780517578125,0.508453369140625,-0.3108673095703125,1,0.98
2020-05-16 12:23:35.928 -0400,10062.58206216667,0.722930908203125,0.47052001953125,-0.4184722900390625,1,0.98
2020-05-16 12:23:35.998 -0400,10062.65190216667,1.28533935546875,0.383514404296875,-0.444732666015625,1,0.98
2020-05-16 12:23:36.068 -0400,10062.72174016667,1.538528442382812,0.477447509765625,-0.527191162109375,1,0.98
2020-05-16 12:23:36.138 -0400,10062.79158316667,1.461044311523438,0.6238555908203125,-0.6203155517578125,1,0.98
2020-05-16 12:23:36.207 -0400,10062.86143016667,1.708724975585938,0.1959686279296875,-0.0200653076171875,1,0.98
2020-05-16 12:23:36.282 -0400,10062.93127316667,0.9776763916015625,-0.3177642822265625,0.0591278076171875,1,0.98
2020-05-16 12:23:36.347 -0400,10063.00111916667,0.4549560546875,0.77520751953125,-0.053955078125,1,0.98
2020-05-16 12:23:36.417 -0400,10063.07096616667,0.37054443359375,0.3788299560546875,-0.040618896484375,1,0.98
2020-05-16 12:23:36.487 -0400,10063.14081316667,0.783477783203125,0.310333251953125,0.0407867431640625,1,0.98
2020-05-16 12:23:36.557 -0400,10063.21065916667,1.048873901367188,0.1734771728515625,0.156036376953125,1,0.98
2020-05-16 12:23:36.627 -0400,10063.28050216667,1.203475952148438,0.3873291015625,0.03515625,1,0.98
2020-05-16 12:23:36.696 -0400,10063.35034516667,1.273834228515625,0.702423095703125,-0.30682373046875,1,0.98
2020-05-16 12:23:36.766 -0400,10063.420189375,1.294570922851562,0.6673126220703125,-0.4304656982421875,1,0.98
2020-05-16 12:23:36.836 -0400,10063.490034375,0.8206024169921875,-0.3130035400390625,-0.43243408203125,1,0.98
2020-05-16 12:23:36.906 -0400,10063.559880375,0.506317138671875,0.1493377685546875,-0.292083740234375,1,0.98
2020-05-16 12:23:36.976 -0400,10063.629723375,0.5357208251953125,0.7266845703125,-0.3183135986328125,1,0.98
2020-05-16 12:23:37.046 -0400,10063.699570375,0.98577880859375,0.60430908203125,-0.470306396484375,1,0.98
2020-05-16 12:23:37.115 -0400,10063.769416375,1.323135375976562,0.4211273193359375,-0.46099853515625,1,0.98
2020-05-16 12:23:37.185 -0400,10063.839260375,1.598159790039062,0.5176849365234375,-0.43170166015625,1,0.98
2020-05-16 12:23:37.255 -0400,10063.909101375,1.272476196289062,0.3589019775390625,-0.3663787841796875,1,0.98
2020-05-16 12:23:37.325 -0400,10063.978948375,1.351776123046875,0.2978363037109375,-0.1514129638671875,1,0.98
2020-05-16 12:23:37.395 -0400,10064.048798375,0.661773681640625,0.2886199951171875,-0.1156005859375,1,0.98
2020-05-16 12:23:37.465 -0400,10064.118647375,0.3509674072265625,0.2993316650390625,-0.004547119140625,1,0.98
2020-05-16 12:23:37.535 -0400,10064.188501375,0.4611053466796875,0.3119354248046875,0.0081024169921875,1,0.98
2020-05-16 12:23:37.604 -0400,10064.258354375,1.157852172851562,0.32171630859375,-0.014129638671875,1,0.98
2020-05-16 12:23:37.674 -0400,10064.328206375,1.089614868164062,0.17156982421875,0.0032958984375,1,0.98
2020-05-16 12:23:37.744 -0400,10064.39805116667,1.137985229492188,0.4466400146484375,-0.034454345703125,1,0.98
2020-05-16 12:23:37.814 -0400,10064.46789916667,1.184539794921875,0.6940460205078125,-0.6498260498046875,1,0.98
2020-05-16 12:23:37.884 -0400,10064.53774816667,1.140396118164062,0.246551513671875,-0.226654052734375,1,0.98
2020-05-16 12:23:37.954 -0400,10064.60759416667,0.6565399169921875,0.1115570068359375,-0.4206695556640625,1,0.98
2020-05-16 12:23:38.024 -0400,10064.67744116667,0.48809814453125,0.451019287109375,-0.3264312744140625,1,0.98
2020-05-16 12:23:38.093 -0400,10064.74728916667,0.7701873779296875,0.4990234375,-0.36724853515625,1,0.98
2020-05-16 12:23:38.163 -0400,10064.81713716667,1.081283569335938,0.4827728271484375,-0.46331787109375,1,0.98
2020-05-16 12:23:38.233 -0400,10064.88698216667,1.839736938476562,0.61273193359375,-0.5981903076171875,1,0.98
2020-05-16 12:23:38.303 -0400,10064.95683016667,1.302978515625,0.34954833984375,-0.484710693359375,1,0.98
2020-05-16 12:23:38.373 -0400,10065.02667816667,1.408584594726562,0.3463134765625,-0.2116851806640625,1,0.98
2020-05-16 12:23:38.443 -0400,10065.09652816667,0.9120941162109375,0.3387603759765625,-0.1816558837890625,1,0.98
2020-05-16 12:23:38.512 -0400,10065.16637516667,0.50079345703125,0.3024749755859375,-0.076080322265625,1,0.98
2020-05-16 12:23:38.582 -0400,10065.23621816667,0.470947265625,0.3376007080078125,-0.0036468505859375,1,0.98
2020-05-16 12:23:38.652 -0400,10065.30606216667,0.960540771484375,0.304534912109375,-0.00726318359375,1,0.98
2020-05-16 12:23:38.722 -0400,10065.375904625,1.143951416015625,0.199066162109375,0.05364990234375,1,0.98
2020-05-16 12:23:38.792 -0400,10065.445748625,1.179473876953125,0.34368896484375,-0.0198211669921875,1,0.98
2020-05-16 12:23:38.862 -0400,10065.515595625,1.213180541992188,0.58251953125,-0.515045166015625,1,0.98
2020-05-16 12:23:38.932 -0400,10065.585437625,1.316696166992188,0.2598114013671875,-0.291473388671875,1,0.98
2020-05-16 12:23:39.001 -0400,10065.655284625,0.8019866943359375,0.148956298828125,-0.49346923828125,1,0.98
2020-05-16 12:23:39.071 -0400,10065.725131625,0.54766845703125,0.3867034912109375,-0.3491668701171875,1,0.98
2020-05-16 12:23:39.141 -0400,10065.794980625,0.659088134765625,0.4445648193359375,-0.3397216796875,1,0.98
2020-05-16 12:23:39.211 -0400,10065.864827625,0.9141693115234375,0.479156494140625,-0.417388916015625,1,0.98
2020-05-16 12:23:39.294 -0400,10065.934675625,1.220962524414062,0.47943115234375,-0.4175872802734375,1,0.98
2020-05-16 12:23:39.351 -0400,10066.004527625,1.485244750976562,0.6091156005859375,-0.47320556640625,1,0.98
2020-05-16 12:23:39.421 -0400,10066.074373625,1.008041381835938,0.4990234375,-0.436553955078125,1,0.98
2020-05-16 12:23:39.490 -0400,10066.144219625,1.376602172851562,0.4183807373046875,-0.21270751953125,1,0.98
2020-05-16 12:23:39.560 -0400,10066.214064625,0.8631744384765625,0.2330780029296875,-0.2220458984375,1,0.98
2020-05-16 12:23:39.630 -0400,10066.283913625,0.48248291015625,0.263519287109375,-0.1173553466796875,1,0.98
2020-05-16 12:23:39.700 -0400,10066.353762625,0.3759918212890625,0.28558349609375,-0.042724609375,1,0.98
2020-05-16 12:23:39.770 -0400,10066.423609125,0.6758575439453125,0.21636962890625,-0.022674560546875,1,0.98
2020-05-16 12:23:39.839 -0400,10066.493458125,1.2939453125,0.3345184326171875,-0.0218658447265625,1,0.98
2020-05-16 12:23:39.909 -0400,10066.563311125,1.425140380859375,0.42901611328125,-0.1084442138671875,1,0.98
2020-05-16 12:23:39.979 -0400,10066.633160125,1.251693725585938,0.6426544189453125,-0.5854644775390625,1,0.98
2020-05-16 12:23:40.049 -0400,10066.703008125,1.226470947265625,0.188018798828125,-0.1430206298828125,1,0.98
2020-05-16 12:23:40.119 -0400,10066.772855125,0.6894378662109375,0.2561798095703125,-0.33160400390625,1,0.98
2020-05-16 12:23:40.189 -0400,10066.842706125,0.36944580078125,0.5303955078125,-0.1807098388671875,1,0.98
2020-05-16 12:23:40.258 -0400,10066.912554125,0.486053466796875,0.488067626953125,-0.16436767578125,1,0.98
2020-05-16 12:23:40.329 -0400,10066.982398125,0.969085693359375,0.500152587890625,-0.285125732421875,1,0.98
2020-05-16 12:23:40.398 -0400,10067.052240125,1.33013916015625,0.518463134765625,-0.3442535400390625,1,0.98
2020-05-16 12:23:40.468 -0400,10067.122087125,1.352218627929688,0.6777801513671875,-0.4565582275390625,1,0.98
2020-05-16 12:23:40.538 -0400,10067.191933125,0.8908233642578125,0.4425506591796875,-0.3792266845703125,1,0.98
2020-05-16 12:23:40.608 -0400,10067.261780125,1.182113647460938,0.4244842529296875,-0.1705169677734375,1,0.98
2020-05-16 12:23:40.678 -0400,10067.331628125,0.7972259521484375,0.241302490234375,-0.1363983154296875,1,0.98
2020-05-16 12:23:40.748 -0400,10067.40147875,0.5201873779296875,0.323577880859375,-0.055023193359375,1,0.98
2020-05-16 12:23:40.817 -0400,10067.47132575,0.68597412109375,0.4091949462890625,-0.044677734375,1,0.98
2020-05-16 12:23:40.887 -0400,10067.54117475,1.371917724609375,0.2561798095703125,0.0384063720703125,1,0.98
2020-05-16 12:23:40.957 -0400,10067.61101875,1.549835205078125,0.233734130859375,0.1195220947265625,1,0.98
2020-05-16 12:23:41.027 -0400,10067.68086675,1.222457885742188,0.5939788818359375,-0.2191619873046875,1,0.98
2020-05-16 12:23:41.097 -0400,10067.75071075,0.6992340087890625,0.324493408203125,-0.255767822265625,1,0.98
2020-05-16 12:23:41.167 -0400,10067.82055775,0.7091522216796875,0.3054351806640625,-0.31146240234375,1,0.98
2020-05-16 12:23:41.236 -0400,10067.89040575,0.4845428466796875,0.24578857421875,-0.2874298095703125,1,0.98
2020-05-16 12:23:41.307 -0400,10067.96025675,0.5692291259765625,0.386138916015625,-0.3288421630859375,1,0.98
2020-05-16 12:23:41.376 -0400,10068.03010575,1.056472778320312,0.3822174072265625,-0.3574066162109375,1,0.98
2020-05-16 12:23:41.446 -0400,10068.09995575,1.335952758789062,0.3999176025390625,-0.391387939453125,1,0.98
2020-05-16 12:23:41.516 -0400,10068.16980775,1.71722412109375,0.726287841796875,-0.5308837890625,1,0.98
2020-05-16 12:23:41.586 -0400,10068.23965875,1.312606811523438,0.5293121337890625,-0.452728271484375,1,0.98
2020-05-16 12:23:41.656 -0400,10068.30950975,1.344757080078125,0.3640289306640625,-0.123748779296875,1,0.98
2020-05-16 12:23:41.725 -0400,10068.379358875,0.76025390625,0.3042144775390625,-0.1410980224609375,1,0.98
2020-05-16 12:23:41.795 -0400,10068.449207875,0.4199981689453125,0.31982421875,-0.041015625,1,0.98
2020-05-16 12:23:41.865 -0400,10068.519055875,0.5369873046875,0.3274993896484375,-0.012176513671875,1,0.98
2020-05-16 12:23:41.935 -0400,10068.588903875,1.3468017578125,0.2499847412109375,0.0860137939453125,1,0.98
2020-05-16 12:23:42.005 -0400,10068.658754875,1.190948486328125,0.2933349609375,-0.041046142578125,1,0.98
2020-05-16 12:23:42.075 -0400,10068.728608875,1.226699829101562,0.4597320556640625,-0.1686553955078125,1,0.98
2020-05-16 12:23:42.144 -0400,10068.798459875,1.25653076171875,0.493011474609375,-0.3978424072265625,1,0.98
2020-05-16 12:23:42.214 -0400,10068.868315875,0.9651031494140625,0.1511993408203125,-0.225616455078125,1,0.98
2020-05-16 12:23:42.284 -0400,10068.938169875,0.5910186767578125,0.268524169921875,-0.3002471923828125,1,0.98
2020-05-16 12:23:42.354 -0400,10069.008019875,0.455169677734375,0.4879608154296875,-0.219635009765625,1,0.98
2020-05-16 12:23:42.424 -0400,10069.077874875,0.730377197265625,0.500152587890625,-0.309906005859375,1,0.98
2020-05-16 12:23:42.494 -0400,10069.147729875,1.041854858398438,0.4817962646484375,-0.392242431640625,1,0.98
2020-05-16 12:23:42.564 -0400,10069.217585875,1.695037841796875,0.5328216552734375,-0.477203369140625,1,0.98
2020-05-16 12:23:42.633 -0400,10069.287443875,1.407073974609375,0.6170501708984375,-0.4736480712890625,1,0.98
2020-05-16 12:23:42.703 -0400,10069.357300875,1.406341552734375,0.4525909423828125,-0.292236328125,1,0.98
2020-05-16 12:23:42.773 -0400,10069.427153625,1.306640625,0.2819976806640625,-0.0957794189453125,1,0.98
2020-05-16 12:23:42.843 -0400,10069.497007625,0.7591552734375,0.294830322265625,-0.0451507568359375,1,0.98
2020-05-16 12:23:42.913 -0400,10069.566856625,0.466278076171875,0.3565826416015625,0.019866943359375,1,0.98
2020-05-16 12:23:42.983 -0400,10069.636703625,0.8581390380859375,0.3394927978515625,0.0369110107421875,1,0.98
2020-05-16 12:23:43.053 -0400,10069.706549625,1.209075927734375,0.230133056640625,0.0944061279296875,1,0.98
2020-05-16 12:23:43.122 -0400,10069.776395625,1.163772583007812,0.273895263671875,-0.0689239501953125,1,0.98
2020-05-16 12:23:43.192 -0400,10069.846240625,1.235855102539062,0.469818115234375,-0.2760467529296875,1,0.98
2020-05-16 12:23:43.262 -0400,10069.916084625,1.181716918945312,0.322174072265625,-0.3623199462890625,1,0.98
2020-05-16 12:23:43.332 -0400,10069.985928625,1.176651000976562,0.217315673828125,-0.39837646484375,1,0.98
2020-05-16 12:23:43.402 -0400,10070.055774625,0.7149658203125,0.3508758544921875,-0.414886474609375,1,0.98
2020-05-16 12:23:43.472 -0400,10070.125618625,0.613922119140625,0.4935150146484375,-0.364410400390625,1,0.98
