loggingTime(txt),accelerometerTimestamp_sinceReboot(s),accelerometerAccelerationX(G),accelerometerAccelerationY(G),accelerometerAccelerationZ(G),batteryState,batteryLevel
2020-05-16 12:41:03.991 -0400,11000.781127625,-0.0956268310546875,-0.011199951171875,-0.7232513427734375,1,0.96
2020-05-16 12:41:04.111 -0400,11000.900861625,-0.0552978515625,0.028594970703125,-0.9688262939453125,1,0.96
2020-05-16 12:41:04.231 -0400,11001.020596625,0.7667694091796875,-0.0572662353515625,-0.8689117431640625,1,0.96
2020-05-16 12:41:04.351 -0400,11001.140330625,0.8067474365234375,0.065399169921875,-0.4453277587890625,1,0.96
2020-05-16 12:41:04.471 -0400,11001.260063625,0.9993896484375,0.415435791015625,-0.1535491943359375,1,0.96
2020-05-16 12:41:04.591 -0400,11001.379793375,1.220611572265625,0.619476318359375,-0.10955810546875,1,0.96
2020-05-16 12:41:04.710 -0400,11001.499518375,1.144546508789062,0.75714111328125,-0.268707275390625,1,0.96
2020-05-16 12:41:04.780 -0400,11001.569360375,1.44744873046875,0.8988800048828125,-0.4068603515625,1,0.96
2020-05-16 12:41:04.856 -0400,11001.639201375,1.043685913085938,0.5068511962890625,-0.3681488037109375,1,0.96
2020-05-16 12:41:04.920 -0400,11001.709045375,1.422393798828125,0.4847259521484375,-0.321502685546875,1,0.96
2020-05-16 12:41:04.992 -0400,11001.778886375,1.117446899414062,0.3468475341796875,-0.276824951171875,1,0.96
2020-05-16 12:41:05.059 -0400,11001.848728375,0.6974945068359375,0.2555999755859375,-0.20501708984375,1,0.96
2020-05-16 12:41:05.147 -0400,11001.918572375,0.6281890869140625,0.272369384765625,-0.1215057373046875,1,0.96
2020-05-16 12:41:05.199 -0400,11001.988415375,0.8654022216796875,0.223602294921875,-0.10479736328125,1,0.96
2020-05-16 12:41:05.269 -0400,11002.058261375,1.213851928710938,0.2619171142578125,-0.108428955078125,1,0.96
2020-05-16 12:41:05.339 -0400,11002.128108375,1.494094848632812,0.3276824951171875,-0.0250701904296875,1,0.96
2020-05-16 12:41:05.408 -0400,11002.197952375,1.31219482421875,0.6112518310546875,-0.32672119140625,1,0.96
2020-05-16 12:41:05.478 -0400,11002.267796375,1.282623291015625,0.316864013671875,-0.038604736328125,1,0.96
2020-05-16 12:41:05.548 -0400,11002.337638375,0.95556640625,0.461578369140625,-0.2253265380859375,1,0.96
2020-05-16 12:41:05.618 -0400,11002.40748675,0.561309814453125,0.4203338623046875,-0.1385955810546875,1,0.96
2020-05-16 12:41:05.688 -0400,11002.47733175,0.5440826416015625,0.3933258056640625,-0.09521484375,1,0.96
2020-05-16 12:41:05.757 -0400,11002.54717575,0.9557342529296875,0.51129150390625,-0.2158660888671875,1,0.96
2020-05-16 12:41:05.827 -0400,11002.61701775,1.13470458984375,0.5701446533203125,-0.35772705078125,1,0.96
2020-05-16 12:41:05.897 -0400,11002.68686475,1.609115600585938,0.7181243896484375,-0.4708404541015625,1,0.96
2020-05-16 12:41:05.967 -0400,11002.75671075,1.163055419921875,0.546875,-0.4352569580078125,1,0.96
2020-05-16 12:41:06.037 -0400,11002.82654875,1.398452758789062,0.1779937744140625,-0.07098388671875,1,0.96
2020-05-16 12:41:06.107 -0400,11002.89639075,0.810791015625,0.1640625,-0.170074462890625,1,0.96
2020-05-16 12:41:06.177 -0400,11002.96623075,0.67822265625,0.371673583984375,-0.1108551025390625,1,0.96
2020-05-16 12:41:06.247 -0400,11003.03607575,0.88690185546875,0.361358642578125,0.059478759765625,1,0.96
2020-05-16 12:41:06.316 -0400,11003.10592275,1.466476440429688,0.2853851318359375,0.0777740478515625,1,0.96
2020-05-16 12:41:06.386 -0400,11003.17576475,1.452224731445312,0.2779693603515625,-0.047515869140625,1,0.96
2020-05-16 12:41:06.456 -0400,11003.24560975,1.173248291015625,0.342315673828125,-0.061309814453125,1,0.96
2020-05-16 12:41:06.526 -0400,11003.31545375,1.074020385742188,0.35504150390625,-0.209747314453125,1,0.96
2020-05-16 12:41:06.596 -0400,11003.38529579167,1.015640258789062,0.303466796875,-0.1428680419921875,1,0.96
2020-05-16 12:41:06.665 -0400,11003.45513879167,0.78094482421875,0.396820068359375,-0.2894134521484375,1,0.96
2020-05-16 12:41:06.735 -0400,11003.52498179167,0.441375732421875,0.39599609375,-0.2541961669921875,1,0.96
2020-05-16 12:41:06.805 -0400,11003.59482579167,0.315704345703125,0.4813079833984375,-0.3296966552734375,1,0.96
2020-05-16 12:41:06.875 -0400,11003.66466679167,1.190460205078125,0.515106201171875,-0.6030426025390625,1,0.96
2020-05-16 12:41:06.945 -0400,11003.73450979167,1.99835205078125,-0.03546142578125,-0.2689666748046875,1,0.96
2020-05-16 12:41:07.015 -0400,11003.80435079167,1.479095458984375,0.42974853515625,-0.563446044921875,1,0.96
2020-05-16 12:41:07.085 -0400,11003.87418779167,1.47393798828125,0.4346771240234375,-0.1470489501953125,1,0.96
2020-05-16 12:41:07.154 -0400,11003.94402879167,1.548431396484375,0.1662445068359375,0.335723876953125,1,0.96
2020-05-16 12:41:07.224 -0400,11004.01387279167,1.078475952148438,0.43780517578125,0.105133056640625,1,0.96
2020-05-16 12:41:07.294 -0400,11004.08371479167,0.6061553955078125,0.28179931640625,0.16217041015625,1,0.96
2020-05-16 12:41:07.364 -0400,11004.15355679167,0.4090423583984375,0.310516357421875,0.1491851806640625,1,0.96
2020-05-16 12:41:07.434 -0400,11004.22340379167,0.6533050537109375,0.299346923828125,0.0518798828125,1,0.96
2020-05-16 12:41:07.504 -0400,11004.29325179167,1.1746826171875,0.293792724609375,-0.002777099609375,1,0.96
2020-05-16 12:41:07.573 -0400,11004.36310179167,1.52789306640625,0.2402801513671875,-0.157440185546875,1,0.96
2020-05-16 12:41:07.643 -0400,11004.432949,1.343673706054688,0.3035736083984375,-0.0862579345703125,1,0.96
2020-05-16 12:41:07.713 -0400,11004.502793,1.02886962890625,0.5476226806640625,-0.3557586669921875,1,0.96
2020-05-16 12:41:07.783 -0400,11004.572638,1.050552368164062,0.486114501953125,-0.31219482421875,1,0.96
2020-05-16 12:41:07.853 -0400,11004.642478,0.9980010986328125,0.2865753173828125,-0.2851104736328125,1,0.96
2020-05-16 12:41:07.923 -0400,11004.712316,0.576995849609375,0.3851470947265625,-0.4067535400390625,1,0.96
2020-05-16 12:41:07.992 -0400,11004.782158,0.454803466796875,0.4478302001953125,-0.3374481201171875,1,0.96
2020-05-16 12:41:08.062 -0400,11004.852001,0.5945892333984375,0.3069305419921875,-0.3639678955078125,1,0.96
2020-05-16 12:41:08.132 -0400,11004.921845,0.875823974609375,0.247772216796875,-0.3659515380859375,1,0.96
2020-05-16 12:41:08.202 -0400,11004.991689,0.92236328125,0.2789459228515625,-0.3348388671875,1,0.96
2020-05-16 12:41:08.276 -0400,11005.061531,1.819931030273438,0.55230712890625,-0.45123291015625,1,0.96
2020-05-16 12:41:08.342 -0400,11005.131376,1.447860717773438,0.3567962646484375,-0.1724090576171875,1,0.96
2020-05-16 12:41:08.412 -0400,11005.201219,1.0853271484375,0.329132080078125,-0.1662139892578125,1,0.96
2020-05-16 12:41:08.481 -0400,11005.271064,0.743896484375,0.458648681640625,-0.05670166015625,1,0.96
2020-05-16 12:41:08.551 -0400,11005.340911,0.50006103515625,0.239898681640625,0.0127410888671875,1,0.96
2020-05-16 12:41:08.621 -0400,11005.410756375,0.6111602783203125,0.31536865234375,-0.0494537353515625,1,0.96
2020-05-16 12:41:08.691 -0400,11005.480605375,1.35430908203125,0.3040313720703125,-0.068756103515625,1,0.96
2020-05-16 12:41:08.761 -0400,11005.550458375,1.40911865234375,0.17529296875,-0.073150634765625,1,0.96
2020-05-16 12:41:08.831 -0400,11005.620311375,1.34814453125,0.4635162353515625,-0.2104034423828125,1,0.96
2020-05-16 12:41:08.900 -0400,11005.690162375,1.050827026367188,0.4617156982421875,-0.4901580810546875,1,0.96
2020-05-16 12:41:08.970 -0400,11005.760013375,0.950286865234375,0.0740509033203125,-0.216888427734375,1,0.96
2020-05-16 12:41:09.040 -0400,11005.829863375,0.6903076171875,-0.2657623291015625,-0.5134735107421875,1,0.96
2020-05-16 12:41:09.110 -0400,11005.899714375,0.4556427001953125,0.6942291259765625,-0.08526611328125,1,0.96
2020-05-16 12:41:09.180 -0400,11005.969560375,0.5460205078125,0.2664642333984375,-0.138336181640625,1,0.96
2020-05-16 12:41:09.250 -0400,11006.039409375,0.842559814453125,0.3751983642578125,-0.245635986328125,1,0.96
2020-05-16 12:41:09.320 -0400,11006.109262375,1.097442626953125,0.477081298828125,-0.45379638671875,1,0.96
2020-05-16 12:41:09.389 -0400,11006.179112375,1.32611083984375,0.3441925048828125,-0.3702392578125,1,0.96
2020-05-16 12:41:09.459 -0400,11006.248959375,1.6993408203125,0.511749267578125,-0.655181884765625,1,0.96
2020-05-16 12:41:09.529 -0400,11006.318811375,1.096099853515625,0.221527099609375,-0.2574615478515625,1,0.96
2020-05-16 12:41:09.599 -0400,11006.388666125,1.324234008789062,0.2734375,-0.119842529296875,1,0.96
2020-05-16 12:41:09.669 -0400,11006.458514125,0.853363037109375,0.3394012451171875,-0.05322265625,1,0.96
2020-05-16 12:41:09.739 -0400,11006.528363125,0.5950775146484375,0.373046875,-0.0006256103515625,1,0.96
2020-05-16 12:41:09.808 -0400,11006.598208125,0.5225372314453125,0.3275604248046875,0.1002655029296875,1,0.96
2020-05-16 12:41:09.878 -0400,11006.668057125,0.9051055908203125,0.3540802001953125,0.0540618896484375,1,0.96
2020-05-16 12:41:09.948 -0400,11006.737901125,1.217666625976562,0.342559814453125,-0.062835693359375,1,0.96
2020-05-16 12:41:10.018 -0400,11006.807749125,1.363327026367188,0.2555084228515625,-0.16510009765625,1,0.96
2020-05-16 12:41:10.088 -0400,11006.877595125,1.382705688476562,0.3006134033203125,-0.1580047607421875,1,0.96
2020-05-16 12:41:10.158 -0400,11006.947440125,1.155136108398438,0.342041015625,-0.3984375,1,0.96
2020-05-16 12:41:10.228 -0400,11007.017286125,1.115005493164062,0.268646240234375,-0.3244171142578125,1,0.96
2020-05-16 12:41:10.298 -0400,11007.087132125,0.7933807373046875,0.08514404296875,-0.6200408935546875,1,0.96
2020-05-16 12:41:10.367 -0400,11007.156978125,0.3778839111328125,0.32421875,-0.2575836181640625,1,0.96
2020-05-16 12:41:10.437 -0400,11007.226823125,0.3988800048828125,0.2437286376953125,-0.2377166748046875,1,0.96
2020-05-16 12:41:10.507 -0400,11007.296670125,0.961090087890625,0.4228973388671875,-0.378387451171875,1,0.96
2020-05-16 12:41:10.577 -0400,11007.366513125,1.153976440429688,0.333404541015625,-0.3408660888671875,1,0.96
2020-05-16 12:41:10.647 -0400,11007.43635875,1.580581665039062,0.3973236083984375,-0.3150482177734375,1,0.96
2020-05-16 12:41:10.717 -0400,11007.50620275,1.232589721679688,0.523284912109375,-0.426025390625,1,0.96
2020-05-16 12:41:10.787 -0400,11007.57604575,1.39471435546875,0.2550201416015625,-0.1566162109375,1,0.96
2020-05-16 12:41:10.856 -0400,11007.64589075,1.139022827148438,0.2555389404296875,-0.0847930908203125,1,0.96
2020-05-16 12:41:10.926 -0400,11007.71573675,0.559051513671875,0.277191162109375,-0.0075531005859375,1,0.96
2020-05-16 12:41:10.996 -0400,11007.78558675,0.3869781494140625,0.351776123046875,-0.004302978515625,1,0.96
2020-05-16 12:41:11.066 -0400,11007.85543375,0.6190338134765625,0.29815673828125,0.0505523681640625,1,0.96
2020-05-16 12:41:11.136 -0400,11007.92527575,0.9683074951171875,0.2630615234375,0.024322509765625,1,0.96
2020-05-16 12:41:11.205 -0400,11007.99512475,1.244125366210938,0.3330535888671875,-0.153167724609375,1,0.96
2020-05-16 12:41:11.275 -0400,11008.06497075,1.515380859375,0.3061676025390625,-0.0538330078125,1,0.96
2020-05-16 12:41:11.345 -0400,11008.13482075,1.285980224609375,0.580322265625,-0.5351715087890625,1,0.96
2020-05-16 12:41:11.415 -0400,11008.20466875,1.166778564453125,0.28656005859375,-0.313079833984375,1,0.96
2020-05-16 12:41:11.485 -0400,11008.27451475,0.9912109375,0.0647735595703125,-0.2523956298828125,1,0.96
2020-05-16 12:41:11.555 -0400,11008.34435975,0.5987091064453125,0.3539276123046875,-0.379180908203125,1,0.96
2020-05-16 12:41:11.624 -0400,11008.41420929167,0.34698486328125,0.3784332275390625,-0.207244873046875,1,0.96
2020-05-16 12:41:11.694 -0400,11008.48406229167,0.3750152587890625,0.3463897705078125,-0.19281005859375,1,0.96
2020-05-16 12:41:11.764 -0400,11008.55390929167,0.8036651611328125,0.4120941162109375,-0.264984130859375,1,0.96
2020-05-16 12:41:11.834 -0400,11008.62375329167,1.0242919921875,0.428314208984375,-0.3273468017578125,1,0.96
2020-05-16 12:41:11.904 -0400,11008.69359429167,1.608718872070312,0.55682373046875,-0.424896240234375,1,0.96
2020-05-16 12:41:11.974 -0400,11008.76343929167,1.551193237304688,0.459197998046875,-0.335784912109375,1,0.96
2020-05-16 12:41:12.044 -0400,11008.83328929167,1.34307861328125,0.210906982421875,-0.1504669189453125,1,0.96
2020-05-16 12:41:12.113 -0400,11008.90313529167,0.94537353515625,0.3841705322265625,-0.11370849609375,1,0.96
2020-05-16 12:41:12.183 -0400,11008.97298129167,0.5951995849609375,0.3696441650390625,-0.0611572265625,1,0.96
2020-05-16 12:41:12.253 -0400,11009.04283029167,0.4882965087890625,0.3388671875,0.0523834228515625,1,0.96
2020-05-16 12:41:12.323 -0400,11009.11267429167,0.757293701171875,0.3102569580078125,0.0171356201171875,1,0.96
2020-05-16 12:41:12.393 -0400,11009.18251729167,1.287124633789062,0.2391357421875,0.06134033203125,1,0.96
2020-05-16 12:41:12.463 -0400,11009.25236129167,1.319595336914062,0.317108154296875,-0.00775146484375,1,0.96
2020-05-16 12:41:12.532 -0400,11009.32220429167,0.9945831298828125,0.508331298828125,-0.1652069091796875,1,0.96
2020-05-16 12:41:12.602 -0400,11009.39204716667,1.233810424804688,0.5963592529296875,-0.7136993408203125,1,0.96
2020-05-16 12:41:12.672 -0400,11009.46189316667,0.8875579833984375,-0.133544921875,-0.181243896484375,1,0.96
2020-05-16 12:41:12.742 -0400,11009.53174016667,0.477325439453125,0.7236785888671875,-0.34979248046875,1,0.96
2020-05-16 12:41:12.812 -0400,11009.60158616667,0.436004638671875,0.8904266357421875,-0.2398529052734375,1,0.96
2020-05-16 12:41:12.882 -0400,11009.67142816667,0.9376068115234375,0.26275634765625,-0.362152099609375,1,0.96
2020-05-16 12:41:12.952 -0400,11009.74127516667,0.9579010009765625,0.5112152099609375,-0.237701416015625,1,0.96
2020-05-16 12:41:13.021 -0400,11009.81111816667,1.492324829101562,0.632568359375,-0.2905731201171875,1,0.96
2020-05-16 12:41:13.092 -0400,11009.88096416667,1.368637084960938,0.6352081298828125,-0.38031005859375,1,0.96
2020-05-16 12:41:13.161 -0400,11009.95080916667,1.562057495117188,0.248809814453125,-0.139251708984375,1,0.96
2020-05-16 12:41:13.231 -0400,11010.02065316667,1.131805419921875,0.3686981201171875,-0.1020355224609375,1,0.96
2020-05-16 12:41:13.301 -0400,11010.09049316667,0.6151580810546875,0.348541259765625,-0.0905914306640625,1,0.96
2020-05-16 12:41:13.371 -0400,11010.16033816667,0.501739501953125,0.3251190185546875,0.0388336181640625,1,0.96
2020-05-16 12:41:13.440 -0400,11010.23018116667,0.93536376953125,0.310211181640625,0.0149688720703125,1,0.96
2020-05-16 12:41:13.510 -0400,11010.30002716667,1.052932739257812,0.1662445068359375,0.1365203857421875,1,0.96
2020-05-16 12:41:13.580 -0400,11010.36987216667,0.880767822265625,0.28985595703125,-0.0906982421875,1,0.96
2020-05-16 12:41:13.650 -0400,11010.439722875,1.088455200195312,0.509552001953125,-0.173736572265625,1,0.96
2020-05-16 12:41:13.720 -0400,11010.509571875,1.373672485351562,0.52203369140625,-0.5774688720703125,1,0.96
2020-05-16 12:41:13.790 -0400,11010.579415875,0.863677978515625,0.1326751708984375,-0.2071685791015625,1,0.96
2020-05-16 12:41:13.860 -0400,11010.649259875,0.7052001953125,0.320770263671875,-0.3304290771484375,1,0.96
2020-05-16 12:41:13.929 -0400,11010.719103875,0.7723541259765625,0.8045806884765625,-0.336181640625,1,0.96
2020-05-16 12:41:13.999 -0400,11010.788944875,0.9594573974609375,0.832305908203125,-0.5988006591796875,1,0.96
2020-05-16 12:41:14.069 -0400,11010.858790875,1.090728759765625,0.59820556640625,-0.4983367919921875,1,0.96
2020-05-16 12:41:14.139 -0400,11010.928632875,1.577194213867188,0.5763702392578125,-0.338348388671875,1,0.96
2020-05-16 12:41:14.209 -0400,11010.998473875,1.746994018554688,0.348236083984375,0.20098876953125,1,0.96
2020-05-16 12:41:14.279 -0400,11011.068312875,1.369796752929688,0.354278564453125,0.0089569091796875,1,0.96
2020-05-16 12:41:14.349 -0400,11011.138156875,0.7453155517578125,0.3787841796875,0.1560516357421875,1,0.96
2020-05-16 12:41:14.418 -0400,11011.208001875,0.5292816162109375,0.1965484619140625,0.29156494140625,1,0.96
2020-05-16 12:41:14.488 -0400,11011.277849875,0.7100982666015625,0.2375640869140625,0.1317291259765625,1,0.96
2020-05-16 12:41:14.558 -0400,11011.347696875,0.8869476318359375,0.1518402099609375,0.1050872802734375,1,0.96
2020-05-16 12:41:14.628 -0400,11011.417539375,0.9369049072265625,0.3311004638671875,-0.1316680908203125,1,0.96
2020-05-16 12:41:14.698 -0400,11011.487381375,1.247589111328125,0.727020263671875,-0.306732177734375,1,0.96
2020-05-16 12:41:14.768 -0400,11011.557221375,1.43731689453125,0.56219482421875,-0.362274169921875,1,0.96
2020-05-16 12:41:14.838 -0400,11011.627061375,0.885986328125,0.4194183349609375,-0.335296630859375,1,0.96
2020-05-16 12:41:14.907 -0400,11011.696901375,0.541748046875,0.3336639404296875,-0.1722869873046875,1,0.96
2020-05-16 12:41:14.977 -0400,11011.766739375,0.5069732666015625,0.5289154052734375,-0.1718292236328125,1,0.96
2020-05-16 12:41:15.047 -0400,11011.836578375,0.93072509765625,0.841461181640625,-0.45794677734375,1,0.96
2020-05-16 12:41:15.117 -0400,11011.906418375,1.18988037109375,0.5528106689453125,-0.4236907958984375,1,0.96
2020-05-16 12:41:15.187 -0400,11011.976259375,1.323287963867188,0.348541259765625,-0.307220458984375,1,0.96
2020-05-16 12:41:15.256 -0400,11012.046095375,1.392715454101562,0.564178466796875,-0.25506591796875,1,0.96
2020-05-16 12:41:15.327 -0400,11012.115931375,1.202728271484375,0.477783203125,-0.2400360107421875,1,0.96
2020-05-16 12:41:15.396 -0400,11012.185770375,0.69781494140625,0.332183837890625,-0.1314544677734375,1,0.96
2020-05-16 12:41:15.466 -0400,11012.255608375,0.4653778076171875,0.2637176513671875,-0.0427703857421875,1,0.96
2020-05-16 12:41:15.536 -0400,11012.325445375,0.5110321044921875,0.2210845947265625,-0.0615692138671875,1,0.96
2020-05-16 12:41:15.606 -0400,11012.39528329167,1.018142700195312,0.2132110595703125,-0.020111083984375,1,0.96
2020-05-16 12:41:15.675 -0400,11012.46512129167,1.122726440429688,0.340911865234375,0.0260467529296875,1,0.96
2020-05-16 12:41:15.745 -0400,11012.53496229167,1.291046142578125,0.5985565185546875,-0.1411895751953125,1,0.96
2020-05-16 12:41:15.815 -0400,11012.60480129167,1.254287719726562,0.6565399169921875,-0.486785888671875,1,0.96
2020-05-16 12:41:15.885 -0400,11012.67464229167,0.931671142578125,0.2996826171875,-0.1209716796875,1,0.96
2020-05-16 12:41:15.955 -0400,11012.74448229167,0.49932861328125,0.138031005859375,-0.1971435546875,1,0.96
2020-05-16 12:41:16.025 -0400,11012.81432129167,0.5445556640625,0.511505126953125,-0.1829376220703125,1,0.96
2020-05-16 12:41:16.095 -0400,11012.88416329167,1.096038818359375,0.7086944580078125,-0.4403076171875,1,0.96
2020-05-16 12:41:16.165 -0400,11012.95400429167,1.111053466796875,0.5381317138671875,-0.5245361328125,1,0.96
2020-05-16 12:41:16.234 -0400,11013.02384729167,1.632003784179688,0.538177490234375,-0.5539398193359375,1,0.96
2020-05-16 12:41:16.304 -0400,11013.09369029167,1.3182373046875,0.357269287109375,-0.402862548828125,1,0.96
2020-05-16 12:41:16.374 -0400,11013.16353229167,1.326858520507812,0.3286895751953125,-0.1857452392578125,1,0.96
2020-05-16 12:41:16.444 -0400,11013.23337729167,0.799285888671875,0.295135498046875,-0.2144927978515625,1,0.96
2020-05-16 12:41:16.514 -0400,11013.30322229167,0.5189208984375,0.408416748046875,-0.02435302734375,1,0.96
2020-05-16 12:41:16.583 -0400,11013.37306529167,0.6491546630859375,0.2830352783203125,0.0261688232421875,1,0.96
2020-05-16 12:41:16.653 -0400,11013.44290675,1.118148803710938,0.2464447021484375,0.0397491455078125,1,0.96
2020-05-16 12:41:16.723 -0400,11013.51274875,1.186798095703125,0.3446807861328125,0.01898193359375,1,0.96
2020-05-16 12:41:16.793 -0400,11013.58259475,1.03973388671875,0.508697509765625,-0.23809814453125,1,0.96
2020-05-16 12:41:16.863 -0400,11013.65243975,1.273056030273438,0.4485015869140625,-0.3766326904296875,1,0.96
2020-05-16 12:41:16.932 -0400,11013.72228575,0.8606109619140625,0.015869140625,-0.2633056640625,1,0.96
2020-05-16 12:41:17.003 -0400,11013.79212875,0.442291259765625,0.205535888671875,-0.3107452392578125,1,0.96
2020-05-16 12:41:17.073 -0400,11013.86197575,0.3994140625,0.727752685546875,-0.1863861083984375,1,0.96
2020-05-16 12:41:17.142 -0400,11013.93182375,1.077301025390625,0.7332611083984375,-0.4501953125,1,0.96
2020-05-16 12:41:17.212 -0400,11014.00166975,1.142013549804688,0.478057861328125,-0.4569549560546875,1,0.96
2020-05-16 12:41:17.282 -0400,11014.07151675,1.559555053710938,0.4539031982421875,-0.3442535400390625,1,0.96
2020-05-16 12:41:17.352 -0400,11014.14136275,1.121368408203125,0.621063232421875,-0.4296722412109375,1,0.96
2020-05-16 12:41:17.421 -0400,11014.21120575,1.254623413085938,0.423187255859375,-0.2492523193359375,1,0.96
2020-05-16 12:41:17.491 -0400,11014.28104975,1.072784423828125,0.1833343505859375,-0.11419677734375,1,0.96
2020-05-16 12:41:17.561 -0400,11014.35089775,0.6433258056640625,0.29913330078125,-0.116363525390625,1,0.96
2020-05-16 12:41:17.631 -0400,11014.420739375,0.65191650390625,0.3794708251953125,-0.0467681884765625,1,0.96
2020-05-16 12:41:17.701 -0400,11014.490587375,1.065399169921875,0.30816650390625,-0.002227783203125,1,0.96
2020-05-16 12:41:17.771 -0400,11014.560434375,1.11761474609375,0.242034912109375,-0.020843505859375,1,0.96
2020-05-16 12:41:17.841 -0400,11014.630287375,1.403533935546875,0.387176513671875,-0.0563507080078125,1,0.96
2020-05-16 12:41:17.910 -0400,11014.700136375,0.94830322265625,0.4769134521484375,-0.334381103515625,1,0.96
2020-05-16 12:41:17.980 -0400,11014.769989375,1.15765380859375,0.362884521484375,-0.2421417236328125,1,0.96
2020-05-16 12:41:18.051 -0400,11014.839840375,0.8341064453125,0.22406005859375,-0.2716522216796875,1,0.96
2020-05-16 12:41:18.120 -0400,11014.909693375,0.450225830078125,0.32666015625,-0.2608795166015625,1,0.96
2020-05-16 12:41:18.190 -0400,11014.979542375,0.5158233642578125,0.4774017333984375,-0.2420654296875,1,0.96
2020-05-16 12:41:18.260 -0400,11015.049395375,0.9929962158203125,0.605804443359375,-0.412872314453125,1,0.96
2020-05-16 12:41:18.330 -0400,11015.119249375,1.236495971679688,0.531494140625,-0.48406982421875,1,0.96
2020-05-16 12:41:18.399 -0400,11015.189105375,1.621658325195312,0.5824432373046875,-0.55145263671875,1,0.96
2020-05-16 12:41:18.469 -0400,11015.258957375,1.357681274414062,0.357452392578125,-0.354949951171875,1,0.96
2020-05-16 12:41:18.539 -0400,11015.328811375,1.278518676757812,0.2566680908203125,-0.164520263671875,1,0.96
2020-05-16 12:41:18.609 -0400,11015.39866479167,0.7025604248046875,0.2951812744140625,-0.145599365234375,1,0.96
2020-05-16 12:41:18.679 -0400,11015.46851579167,0.5193023681640625,0.3577423095703125,-0.01153564453125,1,0.96
2020-05-16 12:41:18.749 -0400,11015.53836679167,0.6620025634765625,0.2955780029296875,0.0013275146484375,1,0.96
2020-05-16 12:41:18.818 -0400,11015.60821679167,1.031295776367188,0.249359130859375,0.009002685546875,1,0.96
2020-05-16 12:41:18.888 -0400,11015.67806679167,1.044464111328125,0.2834320068359375,-0.0043487548828125,1,0.96
2020-05-16 12:41:18.958 -0400,11015.74791379167,1.106582641601562,0.4897003173828125,-0.1204833984375,1,0.96
2020-05-16 12:41:19.028 -0400,11015.81776579167,0.9805755615234375,0.613250732421875,-0.6013336181640625,1,0.96
2020-05-16 12:41:19.098 -0400,11015.88761279167,1.261428833007812,0.245391845703125,-0.173980712890625,1,0.96
2020-05-16 12:41:19.168 -0400,11015.95746079167,0.70947265625,0.18426513671875,-0.4252471923828125,1,0.96
2020-05-16 12:41:19.238 -0400,11016.02730979167,0.507354736328125,0.5475311279296875,-0.3232269287109375,1,0.96
2020-05-16 12:41:19.307 -0400,11016.09715979167,0.6794891357421875,0.59552001953125,-0.4263916015625,1,0.96
2020-05-16 12:41:19.377 -0400,11016.16700679167,1.046890258789062,0.5288543701171875,-0.563140869140625,1,0.96
2020-05-16 12:41:19.447 -0400,11016.23685479167,1.307342529296875,0.3448486328125,-0.360443115234375,1,0.96
2020-05-16 12:41:19.517 -0400,11016.30670779167,1.262771606445312,0.49395751953125,-0.45166015625,1,0.96
2020-05-16 12:41:19.587 -0400,11016.37655979167,1.180038452148438,0.451263427734375,-0.229278564453125,1,0.96
2020-05-16 12:41:19.657 -0400,11016.44641275,1.067245483398438,0.38409423828125,-0.1666717529296875,1,0.96
2020-05-16 12:41:19.726 -0400,11016.51626875,0.615997314453125,0.3330535888671875,-0.1070556640625,1,0.96
2020-05-16 12:41:19.796 -0400,11016.58612175,0.6104736328125,0.306671142578125,-0.0083770751953125,1,0.96
2020-05-16 12:41:19.866 -0400,11016.65597875,0.782135009765625,0.2058868408203125,0.06085205078125,1,0.96
2020-05-16 12:41:19.936 -0400,11016.72583275,0.9380645751953125,0.288330078125,0.06048583984375,1,0.96
2020-05-16 12:41:20.006 -0400,11016.79568575,0.9811859130859375,0.3999176025390625,-0.1495208740234375,1,0.96
2020-05-16 12:41:20.076 -0400,11016.86553975,1.290283203125,0.4919586181640625,-0.2943115234375,1,0.96
2020-05-16 12:41:20.146 -0400,11016.93539575,1.311111450195312,0.5196533203125,-0.62054443359375,1,0.96
2020-05-16 12:41:20.216 -0400,11017.00524975,0.7848663330078125,0.100677490234375,-0.2763519287109375,1,0.96
2020-05-16 12:41:20.286 -0400,11017.07509975,0.545623779296875,0.1633453369140625,-0.16876220703125,1,0.96
2020-05-16 12:41:20.355 -0400,11017.14495175,0.62152099609375,0.532989501953125,-0.262420654296875,1,0.96
2020-05-16 12:41:20.425 -0400,11017.21480975,0.7441864013671875,0.564300537109375,-0.3927001953125,1,0.96
2020-05-16 12:41:20.495 -0400,11017.28466575,1.026473999023438,0.4600067138671875,-0.35101318359375,1,0.96
2020-05-16 12:41:20.565 -0400,11017.35452675,1.703140258789062,0.551177978515625,-0.3990478515625,1,0.96
2020-05-16 12:41:20.635 -0400,11017.424384125,1.376190185546875,0.4217681884765625,-0.280517578125,1,0.96
2020-05-16 12:41:20.704 -0400,11017.494242125,1.157821655273438,0.3243255615234375,-0.143280029296875,1,0.96
2020-05-16 12:41:20.774 -0400,11017.564100125,0.7191009521484375,0.2924652099609375,-0.1339569091796875,1,0.96
2020-05-16 12:41:20.844 -0400,11017.633958125,0.4522247314453125,0.2727203369140625,-0.06256103515625,1,0.96
2020-05-16 12:41:20.914 -0400,11017.703814125,0.432525634765625,0.2032470703125,-0.0246429443359375,1,0.96
2020-05-16 12:41:20.984 -0400,11017.773673125,0.69384765625,0.1896820068359375,-0.0089111328125,1,0.96
2020-05-16 12:41:21.054 -0400,11017.843531125,0.9736480712890625,0.3460693359375,-0.0108642578125,1,0.96
2020-05-16 12:41:21.124 -0400,11017.913385125,1.646957397460938,0.6046600341796875,-0.2250213623046875,1,0.96
2020-05-16 12:41:21.194 -0400,11017.983240125,1.450912475585938,0.52752685546875,-0.5737457275390625,1,0.96
2020-05-16 12:41:21.263 -0400,11018.053100125,0.9698638916015625,0.1966552734375,-0.1478118896484375,1,0.96
2020-05-16 12:41:21.333 -0400,11018.122961125,0.5384979248046875,0.2406463623046875,-0.248077392578125,1,0.96
2020-05-16 12:41:21.403 -0400,11018.192818125,0.4674224853515625,0.5764617919921875,-0.3258056640625,1,0.96
2020-05-16 12:41:21.473 -0400,11018.262674125,0.5463714599609375,0.5260009765625,-0.374755859375,1,0.96
2020-05-16 12:41:21.543 -0400,11018.332529125,0.9636688232421875,0.5042724609375,-0.3729705810546875,1,0.96
2020-05-16 12:41:21.613 -0400,11018.40238425,1.755294799804688,0.598663330078125,-0.273101806640625,1,0.96
2020-05-16 12:41:21.683 -0400,11018.47224225,1.459152221679688,0.4491119384765625,-0.2173614501953125,1,0.96
2020-05-16 12:41:21.752 -0400,11018.54210225,1.512710571289062,0.3939056396484375,-0.032073974609375,1,0.96
2020-05-16 12:41:21.822 -0400,11018.61196025,0.9032135009765625,0.356658935546875,-0.129241943359375,1,0.96
2020-05-16 12:41:21.892 -0400,11018.68181225,0.5545806884765625,0.268035888671875,-0.0585479736328125,1,0.96
2020-05-16 12:41:21.962 -0400,11018.75166625,0.48931884765625,0.1612701416015625,0.0263214111328125,1,0.96
2020-05-16 12:41:22.032 -0400,11018.82152225,0.62164306640625,0.1341552734375,0.032989501953125,1,0.96
2020-05-16 12:41:22.102 -0400,11018.89137025,0.7547607421875,0.3044586181640625,0.0195159912109375,1,0.96
2020-05-16 12:41:22.171 -0400,11018.96122025,1.795867919921875,0.5450592041015625,-0.1175384521484375,1,0.96
2020-05-16 12:41:22.242 -0400,11019.03106325,1.454513549804688,0.6904754638671875,-0.6898651123046875,1,0.96
2020-05-16 12:41:22.311 -0400,11019.10090925,1.076004028320312,0.3488006591796875,-0.1779327392578125,1,0.96
2020-05-16 12:41:22.381 -0400,11019.17075525,0.736968994140625,0.2228851318359375,-0.1641693115234375,1,0.96
2020-05-16 12:41:22.451 -0400,11019.24060525,0.6199493408203125,0.6099395751953125,-0.177642822265625,1,0.96
2020-05-16 12:41:22.521 -0400,11019.31045425,0.5694427490234375,0.6468963623046875,-0.232940673828125,1,0.96
2020-05-16 12:41:22.591 -0400,11019.38029725,1.017684936523438,0.70111083984375,-0.2983856201171875,1,0.96
2020-05-16 12:41:22.660 -0400,11019.450142625,1.8892822265625,0.572967529296875,-0.380218505859375,1,0.96
2020-05-16 12:41:22.730 -0400,11019.519992625,1.341659545898438,0.3831787109375,-0.2548980712890625,1,0.96
2020-05-16 12:41:22.800 -0400,11019.589846625,1.421539306640625,0.2286224365234375,-0.1636962890625,1,0.96
2020-05-16 12:41:22.870 -0400,11019.659698625,0.8853607177734375,0.2953338623046875,-0.22967529296875,1,0.96
2020-05-16 12:41:22.940 -0400,11019.729551625,0.55340576171875,0.22576904296875,-0.0549774169921875,1,0.96
2020-05-16 12:41:23.010 -0400,11019.799399625,0.4415740966796875,0.1510467529296875,0.059844970703125,1,0.96
2020-05-16 12:41:23.080 -0400,11019.869247625,0.5627593994140625,0.1602935791015625,0.167572021484375,1,0.96
2020-05-16 12:41:23.150 -0400,11019.939095625,0.7169647216796875,0.4353179931640625,0.036895751953125,1,0.96
2020-05-16 12:41:23.219 -0400,11020.008945625,1.71527099609375,0.5195465087890625,-0.048431396484375,1,0.96
2020-05-16 12:41:23.289 -0400,11020.078791625,1.616806030273438,0.74505615234375,-0.6702117919921875,1,0.96
2020-05-16 12:41:23.359 -0400,11020.148640625,1.08673095703125,0.2595062255859375,-0.2321014404296875,1,0.96
2020-05-16 12:41:23.429 -0400,11020.218487625,0.7249755859375,0.2753143310546875,-0.3111419677734375,1,0.96
2020-05-16 12:41:23.499 -0400,11020.288332625,0.4957122802734375,0.6016082763671875,-0.2899169921875,1,0.96
2020-05-16 12:41:23.568 -0400,11020.358175625,0.55902099609375,0.789306640625,-0.396881103515625,1,0.96
2020-05-16 12:41:23.638 -0400,11020.4280205,1.163360595703125,0.8518829345703125,-0.4057769775390625,1,0.96
2020-05-16 12:41:23.708 -0400,11020.4978685,1.66802978515625,0.2808685302734375,-0.3250732421875,1,0.96
2020-05-16 12:41:23.778 -0400,11020.5677105,1.334121704101562,0.4034423828125,-0.26312255859375,1,0.96
2020-05-16 12:41:23.848 -0400,11020.6375555,1.315078735351562,0.6468505859375,-0.2036895751953125,1,0.96
2020-05-16 12:41:23.918 -0400,11020.7074005,0.8265838623046875,0.25341796875,-0.1119384765625,1,0.96
2020-05-16 12:41:23.988 -0400,11020.7772495,0.7105255126953125,0.325897216796875,-0.0244598388671875,1,0.96
2020-05-16 12:41:24.057 -0400,11020.8470965,0.6959991455078125,0.228515625,0.0170135498046875,1,0.96
2020-05-16 12:41:24.127 -0400,11020.9169455,0.84063720703125,0.22589111328125,0.057159423828125,1,0.96
2020-05-16 12:41:24.197 -0400,11020.9867925,0.8097381591796875,0.312744140625,0.0682220458984375,1,0.96
2020-05-16 12:41:24.267 -0400,11021.0566365,1.04046630859375,0.4984130859375,-0.1196136474609375,1,0.96
2020-05-16 12:41:24.337 -0400,11021.1264855,1.432418823242188,0.7234954833984375,-0.6772308349609375,1,0.96
2020-05-16 12:41:24.407 -0400,11021.1963365,0.9411773681640625,0.2524261474609375,-0.374755859375,1,0.96
2020-05-16 12:41:24.476 -0400,11021.2661825,0.6026611328125,0.0676727294921875,-0.34332275390625,1,0.96
2020-05-16 12:41:24.546 -0400,11021.3360295,0.6527252197265625,0.498382568359375,-0.3983306884765625,1,0.96
2020-05-16 12:41:24.616 -0400,11021.40587791667,0.8028106689453125,0.6371612548828125,-0.636688232421875,1,0.96
2020-05-16 12:41:24.686 -0400,11021.47572391667,0.9367218017578125,0.4321441650390625,-0.55377197265625,1,0.96
2020-05-16 12:41:24.756 -0400,11021.54557191667,1.534149169921875,0.3706512451171875,-0.33880615234375,1,0.96
2020-05-16 12:41:24.826 -0400,11021.61542191667,1.232986450195312,0.447357177734375,-0.310760498046875,1,0.96
2020-05-16 12:41:24.895 -0400,11021.68526891667,1.42303466796875,0.477569580078125,-0.253326416015625,1,0.96
2020-05-16 12:41:24.965 -0400,11021.75511691667,0.8671722412109375,0.3941192626953125,-0.25238037109375,1,0.96
2020-05-16 12:41:25.035 -0400,11021.82496091667,0.564056396484375,0.2845611572265625,-0.1424713134765625,1,0.96
2020-05-16 12:41:25.105 -0400,11021.89480691667,0.5259246826171875,0.2002410888671875,-0.0832672119140625,1,0.96
2020-05-16 12:41:25.175 -0400,11021.96465491667,0.6346435546875,0.191009521484375,-0.0467987060546875,1,0.96
2020-05-16 12:41:25.245 -0400,11022.03450391667,0.7963104248046875,0.2949066162109375,0.008087158203125,1,0.96
2020-05-16 12:41:25.316 -0400,11022.10435391667,1.410873413085938,0.5264129638671875,-0.1569671630859375,1,0.96
2020-05-16 12:41:25.385 -0400,11022.17420491667,1.197906494140625,0.6955108642578125,-0.6783294677734375,1,0.96
2020-05-16 12:41:25.454 -0400,11022.24405291667,1.352813720703125,0.281829833984375,-0.245880126953125,1,0.96
2020-05-16 12:41:25.524 -0400,11022.31389691667,0.69757080078125,0.1277618408203125,-0.253814697265625,1,0.96
2020-05-16 12:41:25.594 -0400,11022.38373691667,0.4747772216796875,0.49114990234375,-0.2766265869140625,1,0.96
2020-05-16 12:41:25.664 -0400,11022.45357829167,0.555267333984375,0.623687744140625,-0.3267822265625,1,0.96
2020-05-16 12:41:25.734 -0400,11022.52341929167,0.7813568115234375,0.59405517578125,-0.412109375,1,0.96
2020-05-16 12:41:25.803 -0400,11022.59326129167,1.33770751953125,0.605865478515625,-0.4489898681640625,1,0.96
2020-05-16 12:41:25.873 -0400,11022.66311229167,1.375137329101562,0.291778564453125,-0.387664794921875,1,0.96
2020-05-16 12:41:25.943 -0400,11022.73296029167,1.427001953125,0.444244384765625,-0.296600341796875,1,0.96
2020-05-16 12:41:26.013 -0400,11022.80280629167,1.240127563476562,0.4620361328125,-0.2769012451171875,1,0.96
2020-05-16 12:41:26.083 -0400,11022.87265729167,0.6405181884765625,0.2851104736328125,-0.2194671630859375,1,0.96
2020-05-16 12:41:26.153 -0400,11022.94250629167,0.4368743896484375,0.2465362548828125,-0.0951995849609375,1,0.96
2020-05-16 12:41:26.222 -0400,11023.01235529167,0.4131622314453125,0.2042999267578125,-0.08575439453125,1,0.96
2020-05-16 12:41:26.292 -0400,11023.08220129167,0.7519683837890625,0.2960357666015625,-0.1191864013671875,1,0.96
2020-05-16 12:41:26.362 -0400,11023.15204629167,1.019302368164062,0.3024749755859375,-0.082733154296875,1,0.96
2020-05-16 12:41:26.432 -0400,11023.22188929167,1.452896118164062,0.5794525146484375,-0.2701568603515625,1,0.96
2020-05-16 12:41:26.502 -0400,11023.29173529167,1.307693481445312,0.69390869140625,-0.5921173095703125,1,0.96
2020-05-16 12:41:26.572 -0400,11023.36158129167,1.210800170898438,0.3003082275390625,-0.311767578125,1,0.96
2020-05-16 12:41:26.642 -0400,11023.43142729167,0.626678466796875,0.15472412109375,-0.222015380859375,1,0.96
2020-05-16 12:41:26.711 -0400,11023.50127329167,0.4378509521484375,0.543487548828125,-0.1510009765625,1,0.96
2020-05-16 12:41:26.782 -0400,11023.57111829167,0.456512451171875,0.6326446533203125,-0.2488555908203125,1,0.96
2020-05-16 12:41:26.851 -0400,11023.64096129167,0.671295166015625,0.61102294921875,-0.43536376953125,1,0.96
2020-05-16 12:41:26.921 -0400,11023.71080529167,1.408279418945312,0.6497955322265625,-0.4615325927734375,1,0.96
2020-05-16 12:41:26.991 -0400,11023.78065029167,1.368988037109375,0.2655029296875,-0.365142822265625,1,0.96
2020-05-16 12:41:27.061 -0400,11023.85049529167,1.55810546875,0.282440185546875,-0.2167205810546875,1,0.96
2020-05-16 12:41:27.131 -0400,11023.92033829167,1.017593383789062,0.498443603515625,-0.3767852783203125,1,0.96
2020-05-16 12:41:27.200 -0400,11023.99017829167,0.538970947265625,0.336090087890625,-0.2160797119140625,1,0.96
2020-05-16 12:41:27.270 -0400,11024.06002029167,0.4764556884765625,0.227691650390625,-0.089599609375,1,0.96
2020-05-16 12:41:27.340 -0400,11024.12986829167,0.615234375,0.097869873046875,-0.00457763671875,1,0.96
2020-05-16 12:41:27.410 -0400,11024.19971829167,0.744598388671875,0.2160797119140625,0.097686767578125,1,0.96
2020-05-16 12:41:27.480 -0400,11024.26956429167,0.9397125244140625,0.523223876953125,-0.1002197265625,1,0.96
2020-05-16 12:41:27.550 -0400,11024.33941329167,1.376708984375,0.9507598876953125,-0.6141204833984375,1,0.96
2020-05-16 12:41:27.619 -0400,11024.4092625,1.370025634765625,0.5414276123046875,-0.1812591552734375,1,0.96
2020-05-16 12:41:27.689 -0400,11024.4791085,0.858551025390625,-0.1388702392578125,-0.2532806396484375,1,0.96
2020-05-16 12:41:27.759 -0400,11024.5489585,0.43377685546875,0.4076995849609375,-0.2732391357421875,1,0.96
2020-05-16 12:41:27.829 -0400,11024.6188055,0.4316558837890625,0.6839447021484375,-0.28814697265625,1,0.96
2020-05-16 12:41:27.899 -0400,11024.6886555,0.726593017578125,0.5849761962890625,-0.3817596435546875,1,0.96
2020-05-16 12:41:27.969 -0400,11024.7585065,1.216690063476562,0.49566650390625,-0.432769775390625,1,0.96
2020-05-16 12:41:28.039 -0400,11024.8283575,1.5152587890625,0.366180419921875,-0.3053436279296875,1,0.96
2020-05-16 12:41:28.108 -0400,11024.8982015,1.162765502929688,0.4402618408203125,-0.32293701171875,1,0.96
2020-05-16 12:41:28.178 -0400,11024.9680515,1.220550537109375,0.5400238037109375,-0.1945953369140625,1,0.96
2020-05-16 12:41:28.248 -0400,11025.0379015,0.79290771484375,0.2997894287109375,-0.1707763671875,1,0.96
2020-05-16 12:41:28.318 -0400,11025.1077495,0.52606201171875,0.330078125,-0.096405029296875,1,0.96
2020-05-16 12:41:28.388 -0400,11025.1775995,0.502685546875,0.276275634765625,-0.042144775390625,1,0.96
2020-05-16 12:41:28.458 -0400,11025.2474475,0.8310394287109375,0.258453369140625,-0.05645751953125,1,0.96
2020-05-16 12:41:28.528 -0400,11025.3172935,1.149703979492188,0.303558349609375,-0.0089111328125,1,0.96
2020-05-16 12:41:28.597 -0400,11025.3871365,1.439376831054688,0.5825958251953125,-0.1737518310546875,1,0.96
2020-05-16 12:41:28.667 -0400,11025.45698425,1.063827514648438,0.6126861572265625,-0.577728271484375,1,0.96
2020-05-16 12:41:28.737 -0400,11025.52683125,1.09283447265625,0.3203887939453125,-0.261383056640625,1,0.96
2020-05-16 12:41:28.807 -0400,11025.59668325,0.5458984375,0.145660400390625,-0.265350341796875,1,0.96
2020-05-16 12:41:28.877 -0400,11025.66653325,0.3913726806640625,0.4155731201171875,-0.2385406494140625,1,0.96
2020-05-16 12:41:28.947 -0400,11025.73638025,0.72021484375,0.5605010986328125,-0.3126068115234375,1,0.96
2020-05-16 12:41:29.017 -0400,11025.80622725,0.9576568603515625,0.488311767578125,-0.359954833984375,1,0.96
2020-05-16 12:41:29.086 -0400,11025.87607125,1.456863403320312,0.4438018798828125,-0.3524169921875,1,0.96
2020-05-16 12:41:29.156 -0400,11025.94591425,1.305160522460938,0.40081787109375,-0.378448486328125,1,0.96
2020-05-16 12:41:29.226 -0400,11026.01576125,1.152511596679688,0.426239013671875,-0.1866455078125,1,0.96
2020-05-16 12:41:29.305 -0400,11026.08561525,1.014938354492188,0.312103271484375,-0.0815582275390625,1,0.96
2020-05-16 12:41:29.366 -0400,11026.15546525,0.6117401123046875,0.342926025390625,-0.0941314697265625,1,0.96
2020-05-16 12:41:29.436 -0400,11026.22531025,0.435943603515625,0.332611083984375,-0.02020263671875,1,0.96
2020-05-16 12:41:29.506 -0400,11026.29515525,0.6630096435546875,0.1909942626953125,-0.0128936767578125,1,0.96
2020-05-16 12:41:29.575 -0400,11026.36500125,1.682571411132812,-0.1715850830078125,-0.0518341064453125,1,0.96
2020-05-16 12:41:29.655 -0400,11026.43484966667,1.24835205078125,0.315032958984375,0.0164031982421875,1,0.96
2020-05-16 12:41:29.725 -0400,11026.51467366667,1.34490966796875,0.5854949951171875,-0.3921966552734375,1,0.96
2020-05-16 12:41:29.845 -0400,11026.63440966667,1.22613525390625,0.328521728515625,-0.270294189453125,1,0.96
2020-05-16 12:41:29.965 -0400,11026.75414466667,0.3424224853515625,0.3844146728515625,-0.2187042236328125,1,0.96
2020-05-16 12:41:30.084 -0400,11026.87387466667,0.749053955078125,0.394195556640625,-0.330657958984375,1,0.96
2020-05-16 12:41:30.204 -0400,11026.99360466667,1.443634033203125,0.4997406005859375,-0.1503753662109375,1,0.96
2020-05-16 12:41:30.324 -0400,11027.11333566667,1.208160400390625,0.4004364013671875,0.0285186767578125,1,0.96
2020-05-16 12:41:30.443 -0400,11027.23305766667,0.6683807373046875,0.39764404296875,-0.0309600830078125,1,0.96
2020-05-16 12:41:30.563 -0400,11027.35277966667,0.5552825927734375,0.2550201416015625,-0.0746002197265625,1,0.96
2020-05-16 12:41:30.683 -0400,11027.472506,0.92156982421875,0.2429351806640625,-0.0403289794921875,1,0.96
2020-05-16 12:41:30.803 -0400,11027.592229,1.721969604492188,0.7064361572265625,-0.1560211181640625,1,0.96
2020-05-16 12:41:30.922 -0400,11027.711955,1.173492431640625,0.3261871337890625,-0.1745758056640625,1,0.96
2020-05-16 12:41:31.042 -0400,11027.831685,0.4283294677734375,0.3919830322265625,-0.1378936767578125,1,0.96
2020-05-16 12:41:31.168 -0400,11027.951421,0.8130035400390625,0.5023040771484375,-0.2364501953125,1,0.96
2020-05-16 12:41:31.282 -0400,11028.071154,1.637954711914062,0.649658203125,-0.46453857421875,1,0.96
2020-05-16 12:41:31.401 -0400,11028.190882,0.8217620849609375,0.2923736572265625,-0.271148681640625,1,0.96
2020-05-16 12:41:31.521 -0400,11028.310619,1.029693603515625,0.3797149658203125,-0.1211090087890625,1,0.96
2020-05-16 12:41:31.641 -0400,11028.430346,0.573333740234375,0.3728790283203125,-0.111968994140625,1,0.96
2020-05-16 12:41:31.761 -0400,11028.550081,0.820648193359375,0.2328948974609375,-0.00933837890625,1,0.96
2020-05-16 12:41:31.880 -0400,11028.669819,1.266189575195312,0.4473114013671875,0.014923095703125,1,0.96
2020-05-16 12:41:32.000 -0400,11028.789558,1.030685424804688,0.4636688232421875,-0.434539794921875,1,0.96
2020-05-16 12:41:32.120 -0400,11028.909295,0.5282745361328125,0.17218017578125,-0.3206787109375,1,0.96
2020-05-16 12:41:32.240 -0400,11029.029042,0.534271240234375,0.5814666748046875,-0.4314117431640625,1,0.96
2020-05-16 12:41:32.359 -0400,11029.148788,0.98040771484375,0.2993927001953125,-0.28338623046875,1,0.96
2020-05-16 12:41:32.479 -0400,11029.268528,1.1654052734375,0.5999298095703125,-0.300018310546875,1,0.96
2020-05-16 12:41:32.599 -0400,11029.388269,1.27532958984375,0.49066162109375,-0.1699676513671875,1,0.96
2020-05-16 12:41:32.718 -0400,11029.508013375,0.5970916748046875,0.3364105224609375,-0.1435546875,1,0.96
2020-05-16 12:41:32.838 -0400,11029.627754375,0.692047119140625,0.230072021484375,-0.0804443359375,1,0.96
2020-05-16 12:41:32.958 -0400,11029.747494375,1.017349243164062,0.4301605224609375,-0.0692901611328125,1,0.96
2020-05-16 12:41:33.078 -0400,11029.867237375,0.977508544921875,0.453277587890625,-0.42987060546875,1,0.96
2020-05-16 12:41:33.197 -0400,11029.986982375,0.7592315673828125,0.2573699951171875,-0.3613433837890625,1,0.96
2020-05-16 12:41:33.317 -0400,11030.106724375,0.4135894775390625,0.3809356689453125,-0.262786865234375,1,0.96
2020-05-16 12:41:33.437 -0400,11030.226474375,0.9405975341796875,0.499267578125,-0.3357391357421875,1,0.96
2020-05-16 12:41:33.557 -0400,11030.346218375,1.573562622070312,0.483856201171875,-0.306182861328125,1,0.96
2020-05-16 12:41:33.679 -0400,11030.46595675,1.252777099609375,0.482635498046875,-0.2209930419921875,1,0.96
2020-05-16 12:41:33.796 -0400,11030.58569475,0.557952880859375,0.2819671630859375,-0.1331329345703125,1,0.96
2020-05-16 12:41:33.916 -0400,11030.70542975,0.483001708984375,0.241424560546875,-0.082794189453125,1,0.96
2020-05-16 12:41:34.035 -0400,11030.82517775,1.125579833984375,0.3685760498046875,-0.0013885498046875,1,0.96
2020-05-16 12:41:34.166 -0400,11030.94491375,0.8491058349609375,0.6328887939453125,-0.46917724609375,1,0.96
2020-05-16 12:41:34.275 -0400,11031.06465175,0.8493804931640625,0.15655517578125,-0.166168212890625,1,0.96
2020-05-16 12:41:34.395 -0400,11031.18438975,0.3626861572265625,0.433685302734375,-0.1968231201171875,1,0.96
2020-05-16 12:41:34.514 -0400,11031.30413475,1.00390625,0.37481689453125,-0.2243499755859375,1,0.96
2020-05-16 12:41:34.634 -0400,11031.423880875,1.546798706054688,0.64556884765625,-0.3361663818359375,1,0.96
2020-05-16 12:41:34.754 -0400,11031.543619875,1.216537475585938,0.4406890869140625,-0.2701416015625,1,0.96
2020-05-16 12:41:34.874 -0400,11031.663354875,0.5510711669921875,0.27886962890625,-0.1450347900390625,1,0.96
2020-05-16 12:41:34.994 -0400,11031.783090875,0.78082275390625,0.3072509765625,-0.062744140625,1,0.96
2020-05-16 12:41:35.113 -0400,11031.902824875,1.106002807617188,0.3561553955078125,-0.0489349365234375,1,0.96
2020-05-16 12:41:35.233 -0400,11032.022565875,0.9262542724609375,0.5048370361328125,-0.449737548828125,1,0.96
2020-05-16 12:41:35.353 -0400,11032.142306875,0.746337890625,0.09844970703125,-0.2914886474609375,1,0.96
2020-05-16 12:41:35.472 -0400,11032.262045875,0.5050506591796875,0.430755615234375,-0.2829132080078125,1,0.96
2020-05-16 12:41:35.592 -0400,11032.381781875,0.843994140625,0.4110870361328125,-0.4342803955078125,1,0.96
2020-05-16 12:41:35.712 -0400,11032.50151629167,1.447357177734375,0.5762786865234375,-0.41180419921875,1,0.96
2020-05-16 12:41:35.832 -0400,11032.62125529167,1.289642333984375,0.34466552734375,-0.2411346435546875,1,0.96
2020-05-16 12:41:35.952 -0400,11032.74098929167,0.4718170166015625,0.3063812255859375,-0.1893463134765625,1,0.96
2020-05-16 12:41:36.071 -0400,11032.86072329167,0.73321533203125,0.187225341796875,-0.06121826171875,1,0.96
2020-05-16 12:41:36.191 -0400,11032.98046029167,1.029296875,0.34320068359375,-0.0088348388671875,1,0.96
2020-05-16 12:41:36.311 -0400,11033.10019729167,1.319595336914062,0.602752685546875,-0.651611328125,1,0.96
2020-05-16 12:41:36.430 -0400,11033.21992729167,0.6754913330078125,-0.074920654296875,-0.2975616455078125,1,0.96
2020-05-16 12:41:36.550 -0400,11033.33966129167,0.4160919189453125,0.5648193359375,-0.2318878173828125,1,0.96
2020-05-16 12:41:36.679 -0400,11033.459397875,0.9169158935546875,0.5631256103515625,-0.36920166015625,1,0.96
2020-05-16 12:41:36.790 -0400,11033.579134875,1.421417236328125,0.3237762451171875,-0.3263397216796875,1,0.96
2020-05-16 12:41:36.909 -0400,11033.698862875,1.314620971679688,0.46942138671875,-0.1165618896484375,1,0.96
2020-05-16 12:41:37.029 -0400,11033.818595875,0.594207763671875,0.312591552734375,-0.0510101318359375,1,0.96
2020-05-16 12:41:37.149 -0400,11033.938333875,0.687255859375,0.16900634765625,0.0154266357421875,1,0.96
2020-05-16 12:41:37.269 -0400,11034.058072875,0.887176513671875,0.31854248046875,0.0064544677734375,1,0.96
2020-05-16 12:41:37.388 -0400,11034.177805875,1.278106689453125,0.7216339111328125,-0.632049560546875,1,0.96
2020-05-16 12:41:37.508 -0400,11034.297539875,0.8230133056640625,-0.0023040771484375,-0.24945068359375,1,0.96
2020-05-16 12:41:37.628 -0400,11034.41727375,0.5395965576171875,0.6377716064453125,-0.1150054931640625,1,0.96
2020-05-16 12:41:37.747 -0400,11034.53700775,0.875579833984375,0.499908447265625,-0.294921875,1,0.96
2020-05-16 12:41:37.867 -0400,11034.65674275,1.4459228515625,0.566131591796875,-0.431976318359375,1,0.96
2020-05-16 12:41:37.987 -0400,11034.77647375,1.349472045898438,0.26605224609375,-0.308349609375,1,0.96
2020-05-16 12:41:38.107 -0400,11034.89620475,0.6478424072265625,0.2656097412109375,-0.211517333984375,1,0.96
2020-05-16 12:41:38.226 -0400,11035.01593275,0.6086578369140625,0.2331390380859375,-0.087890625,1,0.96
2020-05-16 12:41:38.346 -0400,11035.13565575,0.9690704345703125,0.2857208251953125,0.0192718505859375,1,0.96
2020-05-16 12:41:38.466 -0400,11035.25537675,1.138442993164062,0.6640167236328125,-0.5338287353515625,1,0.96
2020-05-16 12:41:38.585 -0400,11035.37509675,0.80975341796875,0.074249267578125,-0.288177490234375,1,0.96
2020-05-16 12:41:38.705 -0400,11035.49482541667,0.5608978271484375,0.574249267578125,-0.4004058837890625,1,0.96
2020-05-16 12:41:38.825 -0400,11035.61455241667,0.7337188720703125,0.494537353515625,-0.3654632568359375,1,0.96
2020-05-16 12:41:38.945 -0400,11035.73428141667,1.204055786132812,0.446990966796875,-0.3512420654296875,1,0.96
2020-05-16 12:41:39.064 -0400,11035.85400641667,0.9285430908203125,0.360260009765625,-0.433380126953125,1,0.96
2020-05-16 12:41:39.184 -0400,11035.97372541667,1.242279052734375,0.2550201416015625,-0.316162109375,1,0.96
2020-05-16 12:41:39.304 -0400,11036.09344741667,0.57073974609375,0.2756500244140625,-0.2248687744140625,1,0.96
2020-05-16 12:41:39.424 -0400,11036.21317841667,0.5384063720703125,0.1875152587890625,-0.123138427734375,1,0.96
2020-05-16 12:41:39.543 -0400,11036.33290741667,1.692947387695312,0.4420318603515625,-0.217010498046875,1,0.96
2020-05-16 12:41:39.667 -0400,11036.452635,1.040145874023438,0.5009613037109375,-0.4508514404296875,1,0.96
2020-05-16 12:41:39.783 -0400,11036.572363,0.9742584228515625,0.21441650390625,-0.242279052734375,1,0.96
2020-05-16 12:41:39.902 -0400,11036.692092,0.43658447265625,0.4173736572265625,-0.2359771728515625,1,0.96
2020-05-16 12:41:40.022 -0400,11036.811827,0.321624755859375,0.3379364013671875,-0.1826324462890625,1,0.96
2020-05-16 12:41:40.142 -0400,11036.93157,1.0169677734375,0.4200897216796875,-0.285552978515625,1,0.96
2020-05-16 12:41:40.262 -0400,11037.051307,1.364181518554688,0.590667724609375,-0.391265869140625,1,0.96
2020-05-16 12:41:40.382 -0400,11037.17104,1.379486083984375,0.2445220947265625,-0.082244873046875,1,0.96
2020-05-16 12:41:40.501 -0400,11037.290768,0.59552001953125,0.3369903564453125,-0.03607177734375,1,0.96
2020-05-16 12:41:40.621 -0400,11037.410497,0.3240966796875,0.2603302001953125,0.0052032470703125,1,0.96
2020-05-16 12:41:40.741 -0400,11037.5302335,1.58856201171875,0.4051513671875,-0.009979248046875,1,0.96
2020-05-16 12:41:40.860 -0400,11037.6499685,1.206710815429688,0.792083740234375,-0.7556304931640625,1,0.96
2020-05-16 12:41:40.980 -0400,11037.7697015,1.005615234375,-0.083740234375,-0.2323455810546875,1,0.96
2020-05-16 12:41:41.100 -0400,11037.8894375,0.32958984375,0.430877685546875,-0.292236328125,1,0.96
2020-05-16 12:41:41.220 -0400,11038.0091755,0.7270050048828125,0.369842529296875,-0.2655181884765625,1,0.96
2020-05-16 12:41:41.339 -0400,11038.1289095,1.556289672851562,0.478668212890625,-0.241668701171875,1,0.96
2020-05-16 12:41:41.459 -0400,11038.2486365,1.431365966796875,0.40179443359375,-0.136138916015625,1,0.96
2020-05-16 12:41:41.579 -0400,11038.3683675,0.74951171875,0.340087890625,-0.2106170654296875,1,0.96
2020-05-16 12:41:41.698 -0400,11038.4880955,0.3857269287109375,0.2645263671875,-0.05120849609375,1,0.96
2020-05-16 12:41:41.818 -0400,11038.6078155,1.243499755859375,0.229888916015625,-0.0202178955078125,1,0.96
2020-05-16 12:41:41.938 -0400,11038.7275345,1.041336059570312,0.4855804443359375,-0.21087646484375,1,0.96
2020-05-16 12:41:42.057 -0400,11038.8472505,1.152786254882812,0.31707763671875,-0.2284698486328125,1,0.96
2020-05-16 12:41:42.178 -0400,11038.9669645,0.4512176513671875,0.29486083984375,-0.184356689453125,1,0.96
2020-05-16 12:41:42.297 -0400,11039.0866865,0.860931396484375,0.632965087890625,-0.3071136474609375,1,0.96
2020-05-16 12:41:42.417 -0400,11039.2064035,1.307113647460938,0.5255889892578125,-0.399688720703125,1,0.96
2020-05-16 12:41:42.536 -0400,11039.3261335,1.283798217773438,0.5375823974609375,-0.5174102783203125,1,0.96
2020-05-16 12:41:42.666 -0400,11039.44586175,0.9402008056640625,0.1686248779296875,-0.187286376953125,1,0.96
2020-05-16 12:41:42.776 -0400,11039.56558675,0.5977935791015625,0.3702850341796875,-0.0622100830078125,1,0.96
2020-05-16 12:41:42.896 -0400,11039.68531575,1.27349853515625,0.1875,0.02276611328125,1,0.96
2020-05-16 12:41:43.015 -0400,11039.80504575,1.140045166015625,0.375030517578125,-0.00469970703125,1,0.96
2020-05-16 12:41:43.135 -0400,11039.92477475,1.096954345703125,0.407684326171875,-0.3354339599609375,1,0.96
2020-05-16 12:41:43.255 -0400,11040.04450675,0.522247314453125,0.223358154296875,-0.230682373046875,1,0.96
2020-05-16 12:41:43.375 -0400,11040.16423875,0.9929962158203125,0.674835205078125,-0.339324951171875,1,0.96
2020-05-16 12:41:43.494 -0400,11040.28396575,1.820266723632812,0.7459259033203125,-0.5425872802734375,1,0.96
2020-05-16 12:41:43.614 -0400,11040.40369075,1.7698974609375,0.2014617919921875,-0.037384033203125,1,0.96
2020-05-16 12:41:43.734 -0400,11040.52341225,0.7581634521484375,0.3696746826171875,-0.0208740234375,1,0.96
2020-05-16 12:41:43.853 -0400,11040.64313325,0.3755645751953125,0.2126617431640625,0.0615997314453125,1,0.96
2020-05-16 12:41:43.973 -0400,11040.76285025,0.7423553466796875,0.176544189453125,0.0786895751953125,1,0.96
2020-05-16 12:41:44.093 -0400,11040.88256625,1.307662963867188,0.5302276611328125,0.060302734375,1,0.96
2020-05-16 12:41:44.213 -0400,11041.00228625,1.47430419921875,0.5452728271484375,-0.1932373046875,1,0.96
2020-05-16 12:41:44.332 -0400,11041.12200225,0.4975128173828125,0.3720855712890625,-0.262298583984375,1,0.96
2020-05-16 12:41:44.452 -0400,11041.24171625,0.7510833740234375,0.8573760986328125,-0.5432891845703125,1,0.96
2020-05-16 12:41:44.572 -0400,11041.36142825,1.377639770507812,0.4669036865234375,-0.3316497802734375,1,0.96
2020-05-16 12:41:44.692 -0400,11041.48114341667,1.767349243164062,0.620880126953125,-0.2230682373046875,1,0.96
2020-05-16 12:41:44.811 -0400,11041.60085841667,0.752716064453125,0.302886962890625,-0.1288909912109375,1,0.96
2020-05-16 12:41:44.971 -0400,11041.76048041667,0.96832275390625,0.2551727294921875,0.05560302734375,1,0.96
2020-05-16 12:41:45.041 -0400,11041.83031341667,0.9070281982421875,0.154937744140625,0.064361572265625,1,0.96
2020-05-16 12:41:45.110 -0400,11041.90015341667,1.134780883789062,0.31744384765625,-0.019012451171875,1,0.96
2020-05-16 12:41:45.180 -0400,11041.96999641667,1.174331665039062,0.5611724853515625,-0.4748992919921875,1,0.96
2020-05-16 12:41:45.250 -0400,11042.03983741667,1.379150390625,0.3455352783203125,-0.31402587890625,1,0.96
2020-05-16 12:41:45.320 -0400,11042.10967841667,0.773101806640625,0.20355224609375,-0.4561920166015625,1,0.96
2020-05-16 12:41:45.390 -0400,11042.17951641667,0.58367919921875,0.386566162109375,-0.4169464111328125,1,0.96
2020-05-16 12:41:45.460 -0400,11042.24935641667,0.8300018310546875,0.6281280517578125,-0.37139892578125,1,0.96
2020-05-16 12:41:45.529 -0400,11042.31919341667,1.067916870117188,0.6010894775390625,-0.5545654296875,1,0.96
2020-05-16 12:41:45.599 -0400,11042.38902941667,1.334091186523438,0.6209869384765625,-0.4610137939453125,1,0.96
2020-05-16 12:41:45.669 -0400,11042.45886679167,1.534652709960938,0.63946533203125,-0.4891204833984375,1,0.96
2020-05-16 12:41:45.739 -0400,11042.52870279167,1.541854858398438,0.2890167236328125,-0.10711669921875,1,0.96
2020-05-16 12:41:45.809 -0400,11042.59854479167,0.9466400146484375,0.3072967529296875,-0.22515869140625,1,0.96
2020-05-16 12:41:45.879 -0400,11042.66838379167,0.6184539794921875,0.3325042724609375,-0.0793609619140625,1,0.96
2020-05-16 12:41:45.948 -0400,11042.73822679167,0.6984710693359375,0.271270751953125,0.0190582275390625,1,0.96
2020-05-16 12:41:46.018 -0400,11042.80806679167,0.914825439453125,0.175537109375,0.03717041015625,1,0.96
2020-05-16 12:41:46.088 -0400,11042.87790679167,0.8489532470703125,0.23883056640625,0.0341644287109375,1,0.96
2020-05-16 12:41:46.158 -0400,11042.94774679167,1.040054321289062,0.4107208251953125,-0.054840087890625,1,0.96
2020-05-16 12:41:46.228 -0400,11043.01758779167,1.706466674804688,0.610687255859375,-0.4838104248046875,1,0.96
2020-05-16 12:41:46.298 -0400,11043.08742679167,1.062240600585938,0.3211517333984375,-0.2720947265625,1,0.96
2020-05-16 12:41:46.368 -0400,11043.15726579167,0.6702117919921875,0.1861572265625,-0.3097381591796875,1,0.96
2020-05-16 12:41:46.437 -0400,11043.22710779167,0.6930694580078125,0.6013336181640625,-0.28125,1,0.96
2020-05-16 12:41:46.507 -0400,11043.29694979167,0.8547210693359375,0.9769287109375,-0.340850830078125,1,0.96
2020-05-16 12:41:46.577 -0400,11043.36679179167,0.9576873779296875,0.8787384033203125,-0.4088897705078125,1,0.96
2020-05-16 12:41:46.647 -0400,11043.436636,2.02337646484375,1.044525146484375,-0.5452423095703125,1,0.96
2020-05-16 12:41:46.717 -0400,11043.50648,1.570098876953125,0.3298492431640625,-0.2806243896484375,1,0.96
2020-05-16 12:41:46.786 -0400,11043.576326,1.594619750976562,0.434814453125,-0.10699462890625,1,0.96
2020-05-16 12:41:46.857 -0400,11043.646172,1.116363525390625,0.3829345703125,-0.1347808837890625,1,0.96
2020-05-16 12:41:46.926 -0400,11043.71602,0.72320556640625,0.2580718994140625,0.0147857666015625,1,0.96
2020-05-16 12:41:46.996 -0400,11043.785863,0.72174072265625,0.21893310546875,0.0386962890625,1,0.96
2020-05-16 12:41:47.066 -0400,11043.855704,0.891937255859375,0.1794586181640625,0.070281982421875,1,0.96
2020-05-16 12:41:47.136 -0400,11043.925547,0.933563232421875,0.322418212890625,0.0241546630859375,1,0.96
2020-05-16 12:41:47.206 -0400,11043.995395,1.040313720703125,0.3755035400390625,-0.1322479248046875,1,0.96
2020-05-16 12:41:47.275 -0400,11044.065241,1.74822998046875,0.6336822509765625,-0.500457763671875,1,0.96
2020-05-16 12:41:47.345 -0400,11044.135085,1.043914794921875,0.44854736328125,-0.3712005615234375,1,0.96
2020-05-16 12:41:47.415 -0400,11044.204924,0.7627716064453125,0.323028564453125,-0.3290252685546875,1,0.96
2020-05-16 12:41:47.485 -0400,11044.274764,0.7030181884765625,0.552154541015625,-0.3306884765625,1,0.96
2020-05-16 12:41:47.555 -0400,11044.344609,0.772796630859375,0.8568878173828125,-0.3990936279296875,1,0.96
2020-05-16 12:41:47.625 -0400,11044.414452,0.9603271484375,0.997772216796875,-0.4029388427734375,1,0.96
2020-05-16 12:41:47.695 -0400,11044.484289,1.860061645507812,0.52392578125,-0.4794158935546875,1,0.96
2020-05-16 12:41:47.764 -0400,11044.554127,1.913375854492188,0.2471466064453125,-0.24603271484375,1,0.96
2020-05-16 12:41:47.834 -0400,11044.623966,1.380340576171875,0.573944091796875,-0.3700408935546875,1,0.96
2020-05-16 12:41:47.904 -0400,11044.693808,0.74639892578125,0.3299560546875,-0.122589111328125,1,0.96
2020-05-16 12:41:47.974 -0400,11044.763653,0.52587890625,0.1699066162109375,0.0147705078125,1,0.96
2020-05-16 12:41:48.044 -0400,11044.833496,0.5155181884765625,0.1011505126953125,-0.0115203857421875,1,0.96
2020-05-16 12:41:48.114 -0400,11044.903338,0.800384521484375,0.17431640625,0.082794189453125,1,0.96
2020-05-16 12:41:48.183 -0400,11044.973187,1.282684326171875,0.342132568359375,0.103729248046875,1,0.96
2020-05-16 12:41:48.253 -0400,11045.043032,1.625991821289062,0.8091888427734375,-0.6608734130859375,1,0.96
2020-05-16 12:41:48.325 -0400,11045.112876,1.9283447265625,0.619293212890625,-0.0709381103515625,1,0.96
2020-05-16 12:41:48.393 -0400,11045.182722,1.066238403320312,0.2814178466796875,-0.43780517578125,1,0.96
2020-05-16 12:41:48.463 -0400,11045.252569,0.720703125,0.5166015625,-0.20867919921875,1,0.96
2020-05-16 12:41:48.533 -0400,11045.322414,0.6898651123046875,0.775054931640625,-0.1050262451171875,1,0.96
2020-05-16 12:41:48.602 -0400,11045.392258,0.8076171875,0.8831634521484375,-0.2569580078125,1,0.96
2020-05-16 12:41:48.672 -0400,11045.46210091667,1.313858032226562,0.9341583251953125,-0.246734619140625,1,0.96
2020-05-16 12:41:48.742 -0400,11045.53194291667,1.4808349609375,0.6871337890625,-0.4804534912109375,1,0.96
2020-05-16 12:41:48.812 -0400,11045.60178791667,1.94305419921875,0.59014892578125,-0.186859130859375,1,0.96
2020-05-16 12:41:48.882 -0400,11045.67163191667,1.301116943359375,0.2549896240234375,-0.305908203125,1,0.96
2020-05-16 12:41:48.952 -0400,11045.74147591667,0.7621002197265625,0.2943878173828125,-0.1226654052734375,1,0.96
2020-05-16 12:41:49.022 -0400,11045.81132091667,0.7206573486328125,0.3339996337890625,-0.0407562255859375,1,0.96
2020-05-16 12:41:49.091 -0400,11045.88116591667,0.98052978515625,0.2169342041015625,-0.0088043212890625,1,0.96
2020-05-16 12:41:49.161 -0400,11045.95101191667,0.8654937744140625,0.0726165771484375,0.1265716552734375,1,0.96
2020-05-16 12:41:49.231 -0400,11046.02085591667,1.043869018554688,0.400360107421875,0.0071868896484375,1,0.96
2020-05-16 12:41:49.301 -0400,11046.09070291667,1.375350952148438,0.67852783203125,-0.401519775390625,1,0.96
2020-05-16 12:41:49.372 -0400,11046.16054891667,1.583114624023438,0.64581298828125,-0.403564453125,1,0.96
2020-05-16 12:41:49.441 -0400,11046.23039591667,0.81500244140625,0.150115966796875,-0.2654876708984375,1,0.96
2020-05-16 12:41:49.510 -0400,11046.30024091667,0.81292724609375,0.353515625,-0.18658447265625,1,0.96
2020-05-16 12:41:49.580 -0400,11046.37008491667,0.8302459716796875,0.816070556640625,-0.2185516357421875,1,0.96
2020-05-16 12:41:49.650 -0400,11046.439926125,0.9484710693359375,1.103164672851562,-0.3300933837890625,1,0.96
2020-05-16 12:41:49.720 -0400,11046.509766125,1.098037719726562,0.671173095703125,-0.2247467041015625,1,0.96
2020-05-16 12:41:49.790 -0400,11046.579606125,1.443435668945312,0.8578033447265625,-0.43121337890625,1,0.96
2020-05-16 12:41:49.860 -0400,11046.649446125,2.068084716796875,0.750457763671875,-0.2221832275390625,1,0.96
2020-05-16 12:41:49.930 -0400,11046.719285125,1.45916748046875,0.154693603515625,-0.1964263916015625,1,0.96
2020-05-16 12:41:49.999 -0400,11046.789127125,0.90576171875,0.26263427734375,-0.0935211181640625,1,0.96
2020-05-16 12:41:50.069 -0400,11046.858973125,0.8947906494140625,0.3625335693359375,0.019012451171875,1,0.96
2020-05-16 12:41:50.139 -0400,11046.928822125,0.9730377197265625,0.182342529296875,0.0561065673828125,1,0.96
2020-05-16 12:41:50.209 -0400,11046.998670125,0.7033233642578125,0.167694091796875,0.0671539306640625,1,0.96
2020-05-16 12:41:50.279 -0400,11047.068517125,0.62738037109375,0.315338134765625,-0.067138671875,1,0.96
2020-05-16 12:41:50.349 -0400,11047.138364125,0.81390380859375,0.716278076171875,-0.3453369140625,1,0.96
2020-05-16 12:41:50.419 -0400,11047.208213125,1.3348388671875,0.69781494140625,-0.413421630859375,1,0.96
2020-05-16 12:41:50.488 -0400,11047.278065125,1.233734130859375,0.578155517578125,-0.5196685791015625,1,0.96
2020-05-16 12:41:50.558 -0400,11047.347912125,0.818756103515625,0.460784912109375,-0.3323516845703125,1,0.96
2020-05-16 12:41:50.628 -0400,11047.417764125,0.655517578125,0.6808624267578125,-0.326263427734375,1,0.96
2020-05-16 12:41:50.698 -0400,11047.48761216667,0.800384521484375,0.9514007568359375,-0.3987274169921875,1,0.96
2020-05-16 12:41:50.768 -0400,11047.55745816667,1.190948486328125,0.898956298828125,-0.42950439453125,1,0.96
2020-05-16 12:41:50.838 -0400,11047.62730516667,1.426010131835938,0.38616943359375,-0.440338134765625,1,0.96
2020-05-16 12:41:50.907 -0400,11047.69715116667,1.944686889648438,0.6859588623046875,-0.28399658203125,1,0.96
2020-05-16 12:41:50.977 -0400,11047.76699616667,1.45220947265625,0.4632110595703125,-0.301177978515625,1,0.96
2020-05-16 12:41:51.047 -0400,11047.83684416667,0.8217315673828125,0.3284759521484375,-0.0656280517578125,1,0.96
2020-05-16 12:41:51.117 -0400,11047.90668716667,0.6831817626953125,0.3038787841796875,0.023712158203125,1,0.96
2020-05-16 12:41:51.187 -0400,11047.97653116667,0.6574859619140625,0.1968231201171875,0.01947021484375,1,0.96
2020-05-16 12:41:51.257 -0400,11048.04637716667,0.8304290771484375,0.1710357666015625,0.032073974609375,1,0.96
2020-05-16 12:41:51.327 -0400,11048.11622516667,0.7723388671875,0.229736328125,-0.089508056640625,1,0.96
2020-05-16 12:41:51.397 -0400,11048.18607616667,0.9207916259765625,0.5115509033203125,-0.3358001708984375,1,0.96
2020-05-16 12:41:51.466 -0400,11048.25592416667,1.536911010742188,0.5295257568359375,-0.45465087890625,1,0.96
2020-05-16 12:41:51.536 -0400,11048.32576916667,1.304412841796875,0.3875579833984375,-0.4658660888671875,1,0.96
2020-05-16 12:41:51.606 -0400,11048.39562216667,0.8617401123046875,0.4310302734375,-0.27008056640625,1,0.96
2020-05-16 12:41:51.676 -0400,11048.465472375,0.793243408203125,0.5987091064453125,-0.21124267578125,1,0.96
2020-05-16 12:41:51.745 -0400,11048.535324375,0.962890625,0.8174591064453125,-0.22943115234375,1,0.96
2020-05-16 12:41:51.815 -0400,11048.605170375,1.065780639648438,1.198318481445312,-0.298370361328125,1,0.96
2020-05-16 12:41:51.885 -0400,11048.675011375,1.545028686523438,1.034881591796875,-0.5138397216796875,1,0.96
2020-05-16 12:41:51.955 -0400,11048.744857375,1.471343994140625,0.6515960693359375,-0.33648681640625,1,0.96
2020-05-16 12:41:52.025 -0400,11048.814703375,1.947463989257812,0.4322052001953125,-0.1417236328125,1,0.96
2020-05-16 12:41:52.095 -0400,11048.884549375,0.92431640625,0.2523651123046875,-0.173583984375,1,0.96
2020-05-16 12:41:52.165 -0400,11048.954397375,0.6339569091796875,0.36572265625,-0.0248260498046875,1,0.96
2020-05-16 12:41:52.234 -0400,11049.024243375,0.4749298095703125,0.20281982421875,0.0976409912109375,1,0.96
2020-05-16 12:41:52.304 -0400,11049.094084375,1.009689331054688,0.3055877685546875,-0.0124664306640625,1,0.96
2020-05-16 12:41:52.376 -0400,11049.163925375,0.9169921875,0.22650146484375,-0.0033416748046875,1,0.96
2020-05-16 12:41:52.444 -0400,11049.233769375,1.538238525390625,0.51483154296875,-0.0998992919921875,1,0.96
2020-05-16 12:41:52.514 -0400,11049.303611375,1.595504760742188,0.7273406982421875,-0.910675048828125,1,0.96
2020-05-16 12:41:52.584 -0400,11049.373451375,0.9272613525390625,0.2602386474609375,-0.2232513427734375,1,0.96
2020-05-16 12:41:52.653 -0400,11049.44329475,0.810211181640625,0.10760498046875,-0.30169677734375,1,0.96
2020-05-16 12:41:52.723 -0400,11049.51314175,0.703155517578125,0.6982879638671875,-0.305938720703125,1,0.96
2020-05-16 12:41:52.794 -0400,11049.58298475,0.7210845947265625,0.7350616455078125,-0.5160369873046875,1,0.96
2020-05-16 12:41:52.863 -0400,11049.65282375,0.8610382080078125,0.640625,-0.5490264892578125,1,0.96
2020-05-16 12:41:52.933 -0400,11049.72266875,1.039718627929688,0.6430206298828125,-0.4861907958984375,1,0.96
2020-05-16 12:41:53.003 -0400,11049.79251475,1.833892822265625,0.68853759765625,-0.4925994873046875,1,0.96
2020-05-16 12:41:53.073 -0400,11049.86235675,2.292892456054688,0.5770721435546875,-0.3116455078125,1,0.96
2020-05-16 12:41:53.142 -0400,11049.93219475,1.073562622070312,0.3398895263671875,-0.1333770751953125,1,0.96
2020-05-16 12:41:53.212 -0400,11050.00203775,0.6501922607421875,0.3446197509765625,-0.1034088134765625,1,0.96
2020-05-16 12:41:53.282 -0400,11050.07188175,0.6697235107421875,0.4104766845703125,-0.189361572265625,1,0.96
2020-05-16 12:41:53.352 -0400,11050.14172175,0.657379150390625,0.2208709716796875,-0.5084686279296875,1,0.96
2020-05-16 12:41:53.422 -0400,11050.21156275,0.285430908203125,0.1362457275390625,-0.824951171875,1,0.96
2020-05-16 12:41:53.492 -0400,11050.28140375,0.0873870849609375,0.046966552734375,-1.09075927734375,1,0.96
2020-05-16 12:41:53.561 -0400,11050.35124275,0.4696807861328125,0.1890869140625,-1.343505859375,1,0.96
2020-05-16 12:41:53.632 -0400,11050.42108375,0.1804962158203125,0.0081939697265625,-0.99127197265625,1,0.96
2020-05-16 12:41:53.711 -0400,11050.50089766667,-0.1274261474609375,-0.185882568359375,-0.614410400390625,1,0.96
2020-05-16 12:41:53.831 -0400,11050.62062366667,-0.22418212890625,-0.22406005859375,-0.6712646484375,1,0.96
2020-05-16 12:41:53.951 -0400,11050.74035566667,-0.1018218994140625,-0.146331787109375,-1.247695922851562,1,0.96
2020-05-16 12:41:54.070 -0400,11050.86009366667,-0.0710601806640625,0.0276336669921875,-1.226516723632812,1,0.96
2020-05-16 12:41:54.190 -0400,11050.97982966667,0.0703582763671875,0.15081787109375,-0.98394775390625,1,0.96
2020-05-16 12:41:54.310 -0400,11051.09956466667,0.0144805908203125,-0.2874603271484375,-0.5139617919921875,1,0.96
2020-05-16 12:41:54.430 -0400,11051.21930066667,0.2564239501953125,-0.2768707275390625,-0.9911956787109375,1,0.96
2020-05-16 12:41:54.549 -0400,11051.33903766667,0.121063232421875,0.0507659912109375,-1.453109741210938,1,0.96
2020-05-16 12:41:54.669 -0400,11051.45877216667,0.1926727294921875,0.066070556640625,-0.8988037109375,1,0.96
2020-05-16 12:41:54.789 -0400,11051.57850216667,-0.0837554931640625,-0.12060546875,-0.6018524169921875,1,0.96
2020-05-16 12:41:54.909 -0400,11051.69824016667,-0.046630859375,-0.1290283203125,-0.9495697021484375,1,0.96
