loggingTime(txt),loggingSample(N),locationTimestamp_since1970(s),locationLatitude(WGS84),locationLongitude(WGS84),locationAltitude(m),locationSpeed(m/s),locationCourse(°),locationVerticalAccuracy(m),locationHorizontalAccuracy(m),locationFloor(Z),accelerometerTimestamp_sinceReboot(s),accelerometerAccelerationX(G),accelerometerAccelerationY(G),accelerometerAccelerationZ(G),batteryState,batteryLevel,label
2019-10-22 14:32:36.915 -0400,1,1571769155.544647,33.98847576707917,-81.02773745950249,65.24117,-1,-1,11.52660083770752,555,-9999,431830.90110325,-0.026275634765625,0.00250244140625,-0.6728363037109375,1,0.95,5
2019-10-22 14:32:36.945 -0400,2,1571769155.544647,33.98847576707917,-81.02773745950249,65.24117,-1,-1,11.52660083770752,555,-9999,431830.94108625,-0.2084197998046875,-0.176971435546875,-0.5599517822265625,1,0.95,5
2019-10-22 14:32:36.985 -0400,3,1571769155.544647,33.98847576707917,-81.02773745950249,65.24117,-1,-1,11.52660083770752,555,-9999,431830.98106925,-0.058990478515625,0.184478759765625,-0.459136962890625,1,0.95,5
2019-10-22 14:32:37.025 -0400,4,1571769155.544647,33.98847576707917,-81.02773745950249,65.24117,-1,-1,11.52660083770752,555,-9999,431831.0210525,0.1376495361328125,0.0183258056640625,-0.3892059326171875,1,0.95,5
2019-10-22 14:32:37.065 -0400,5,1571769155.544647,33.98847576707917,-81.02773745950249,65.24117,-1,-1,11.52660083770752,555,-9999,431831.0610355,0.174530029296875,0.0904693603515625,-0.5138092041015625,1,0.95,5
2019-10-22 14:32:37.105 -0400,6,1571769155.544647,33.98847576707917,-81.02773745950249,65.24117,-1,-1,11.52660083770752,555,-9999,431831.1010185,0.267242431640625,0.0216522216796875,-0.638397216796875,1,0.95,5
2019-10-22 14:32:37.145 -0400,7,1571769155.544647,33.98847576707917,-81.02773745950249,65.24117,-1,-1,11.52660083770752,555,-9999,431831.1410015,0.52117919921875,-0.02703857421875,-0.63543701171875,1,0.95,5
2019-10-22 14:32:37.185 -0400,8,1571769155.544647,33.98847576707917,-81.02773745950249,65.24117,-1,-1,11.52660083770752,555,-9999,431831.1809835,0.946075439453125,-0.065460205078125,-0.594451904296875,1,0.95,5
2019-10-22 14:32:37.225 -0400,9,1571769155.544647,33.98847576707917,-81.02773745950249,65.24117,-1,-1,11.52660083770752,555,-9999,431831.2209665,1.37353515625,0.4529571533203125,-0.7161712646484375,1,0.95,5
2019-10-22 14:32:37.265 -0400,10,1571769155.544647,33.98847576707917,-81.02773745950249,65.24117,-1,-1,11.52660083770752,555,-9999,431831.2609495,1.731353759765625,0.5916900634765625,-0.7421112060546875,1,0.95,5
2019-10-22 14:32:37.305 -0400,11,1571769155.544647,33.98847576707917,-81.02773745950249,65.24117,-1,-1,11.52660083770752,555,-9999,431831.3009325,1.566940307617188,0.7742156982421875,-0.6278533935546875,1,0.95,5
2019-10-22 14:32:37.345 -0400,12,1571769155.544647,33.98847576707917,-81.02773745950249,65.24117,-1,-1,11.52660083770752,555,-9999,431831.3409155,1.509841918945312,0.803680419921875,-0.5623626708984375,1,0.95,5
2019-10-22 14:32:37.385 -0400,13,1571769155.544647,33.98847576707917,-81.02773745950249,65.24117,-1,-1,11.52660083770752,555,-9999,431831.3808985,1.2117919921875,0.6664886474609375,-0.2716217041015625,1,0.95,5
2019-10-22 14:32:37.425 -0400,14,1571769155.544647,33.98847576707917,-81.02773745950249,65.24117,-1,-1,11.52660083770752,555,-9999,431831.4208815,0.914794921875,0.598236083984375,-0.2093963623046875,1,0.95,5
2019-10-22 14:32:37.464 -0400,15,1571769155.544647,33.98847576707917,-81.02773745950249,65.24117,-1,-1,11.52660083770752,555,-9999,431831.4608645,0.67535400390625,0.5871734619140625,-0.05267333984375,1,0.95,5
2019-10-22 14:32:37.505 -0400,16,1571769155.544647,33.98847576707917,-81.02773745950249,65.24117,-1,-1,11.52660083770752,555,-9999,431831.5008475001,0.5310821533203125,0.5647735595703125,-0.0043792724609375,1,0.95,5
2019-10-22 14:32:37.545 -0400,17,1571769155.544647,33.98847576707917,-81.02773745950249,65.24117,-1,-1,11.52660083770752,555,-9999,431831.5408305,0.4826507568359375,0.58843994140625,0.040283203125,1,0.95,5
2019-10-22 14:32:37.585 -0400,18,1571769155.544647,33.98847576707917,-81.02773745950249,65.24117,-1,-1,11.52660083770752,555,-9999,431831.5808135,0.5514678955078125,0.55181884765625,0.0347442626953125,1,0.95,5
2019-10-22 14:32:37.625 -0400,19,1571769155.544647,33.98847576707917,-81.02773745950249,65.24117,-1,-1,11.52660083770752,555,-9999,431831.6207965,0.76068115234375,0.6692352294921875,0.08831787109375,1,0.95,5
2019-10-22 14:32:37.665 -0400,20,1571769155.544647,33.98847576707917,-81.02773745950249,65.24117,-1,-1,11.52660083770752,555,-9999,431831.6607795,0.88983154296875,0.825653076171875,-0.005584716796875,1,0.95,5
2019-10-22 14:32:37.705 -0400,21,1571769155.544647,33.98847576707917,-81.02773745950249,65.24117,-1,-1,11.52660083770752,555,-9999,431831.7007625001,0.9992828369140625,0.76971435546875,0.001678466796875,1,0.95,5
2019-10-22 14:32:37.746 -0400,22,1571769155.544647,33.98847576707917,-81.02773745950249,65.24117,-1,-1,11.52660083770752,555,-9999,431831.7407445,1.32049560546875,0.989013671875,-0.10906982421875,1,0.95,5
2019-10-22 14:32:37.785 -0400,23,1571769155.544647,33.98847576707917,-81.02773745950249,65.24117,-1,-1,11.52660083770752,555,-9999,431831.7807275,1.02777099609375,0.810516357421875,-0.16741943359375,1,0.95,5
2019-10-22 14:32:37.832 -0400,24,1571769155.544647,33.98847576707917,-81.02773745950249,65.24117,-1,-1,11.52660083770752,555,-9999,431831.8207105,1.143539428710938,0.8429412841796875,-0.104766845703125,1,0.95,5
2019-10-22 14:32:37.865 -0400,25,1571769155.544647,33.98847576707917,-81.02773745950249,65.24117,-1,-1,11.52660083770752,555,-9999,431831.8606935,1.430679321289062,0.9035797119140625,-0.1195526123046875,1,0.95,5
2019-10-22 14:32:37.904 -0400,26,1571769155.544647,33.98847576707917,-81.02773745950249,65.24117,-1,-1,11.52660083770752,555,-9999,431831.9006765001,1.459121704101562,0.5627288818359375,-0.0723114013671875,1,0.95,5
2019-10-22 14:32:37.945 -0400,27,1571769155.544647,33.98847576707917,-81.02773745950249,65.24117,-1,-1,11.52660083770752,555,-9999,431831.9406595,1.346771240234375,0.3689727783203125,-0.133026123046875,1,0.95,5
2019-10-22 14:32:37.985 -0400,28,1571769155.544647,33.98847576707917,-81.02773745950249,65.24117,-1,-1,11.52660083770752,555,-9999,431831.9806425,1.13592529296875,0.2730712890625,-0.177734375,1,0.95,5
2019-10-22 14:32:38.025 -0400,29,1571769155.544647,33.98847576707917,-81.02773745950249,65.24117,-1,-1,11.52660083770752,555,-9999,431832.020625875,0.9703826904296875,0.230133056640625,-0.1064910888671875,1,0.95,5
2019-10-22 14:32:38.065 -0400,30,1571769155.544647,33.98847576707917,-81.02773745950249,65.24117,-1,-1,11.52660083770752,555,-9999,431832.060608875,0.786102294921875,0.27667236328125,-0.0523529052734375,1,0.95,5
2019-10-22 14:32:38.120 -0400,31,1571769155.544647,33.98847576707917,-81.02773745950249,65.24117,-1,-1,11.52660083770752,555,-9999,431832.100591875,0.6871795654296875,0.296417236328125,-0.052947998046875,1,0.95,5
2019-10-22 14:32:38.144 -0400,32,1571769155.544647,33.98847576707917,-81.02773745950249,65.24117,-1,-1,11.52660083770752,555,-9999,431832.1405748751,0.610992431640625,0.3045806884765625,-0.0765380859375,1,0.95,5
2019-10-22 14:32:38.184 -0400,33,1571769155.544647,33.98847576707917,-81.02773745950249,65.24117,-1,-1,11.52660083770752,555,-9999,431832.180557875,0.6501922607421875,0.296539306640625,-0.0862579345703125,1,0.95,5
2019-10-22 14:32:38.224 -0400,34,1571769155.544647,33.98847576707917,-81.02773745950249,65.24117,-1,-1,11.52660083770752,555,-9999,431832.220540875,0.8237762451171875,0.294403076171875,0.0132598876953125,1,0.95,5
2019-10-22 14:32:38.264 -0400,35,1571769155.544647,33.98847576707917,-81.02773745950249,65.24117,-1,-1,11.52660083770752,555,-9999,431832.260523875,1.0408935546875,0.311492919921875,-0.0194854736328125,1,0.95,5
2019-10-22 14:32:38.308 -0400,36,1571769155.544647,33.98847576707917,-81.02773745950249,65.24117,-1,-1,11.52660083770752,555,-9999,431832.300506875,1.407455444335938,0.381744384765625,0.046051025390625,1,0.95,5
2019-10-22 14:32:38.348 -0400,37,1571769155.544647,33.98847576707917,-81.02773745950249,65.24117,-1,-1,11.52660083770752,555,-9999,431832.340489875,1.08154296875,0.4120025634765625,-0.152099609375,1,0.95,5
2019-10-22 14:32:38.384 -0400,38,1571769155.544647,33.98847576707917,-81.02773745950249,65.24117,-1,-1,11.52660083770752,555,-9999,431832.380472875,1.301620483398438,0.4483184814453125,-0.3619537353515625,1,0.95,5
2019-10-22 14:32:38.424 -0400,39,1571769155.544647,33.98847576707917,-81.02773745950249,65.24117,-1,-1,11.52660083770752,555,-9999,431832.420455875,1.691802978515625,0.4786834716796875,-0.298004150390625,1,0.95,5
2019-10-22 14:32:38.464 -0400,40,1571769155.544647,33.98847576707917,-81.02773745950249,65.24117,-1,-1,11.52660083770752,555,-9999,431832.460438875,1.21502685546875,0.705474853515625,-0.3420867919921875,1,0.95,5
2019-10-22 14:32:38.505 -0400,41,1571769155.544647,33.98847576707917,-81.02773745950249,65.24117,-1,-1,11.52660083770752,555,-9999,431832.500421875,0.956451416015625,0.57269287109375,-0.275360107421875,1,0.95,5
2019-10-22 14:32:38.544 -0400,42,1571769155.544647,33.98847576707917,-81.02773745950249,65.24117,-1,-1,11.52660083770752,555,-9999,431832.540403875,0.7672576904296875,0.387359619140625,-0.0994415283203125,1,0.95,5
2019-10-22 14:32:38.584 -0400,43,1571769155.544647,33.98847576707917,-81.02773745950249,65.24117,-1,-1,11.52660083770752,555,-9999,431832.580386875,0.7336883544921875,0.451263427734375,-0.122467041015625,1,0.95,5
2019-10-22 14:32:38.624 -0400,44,1571769155.544647,33.98847576707917,-81.02773745950249,65.24117,-1,-1,11.52660083770752,555,-9999,431832.620369875,0.72711181640625,0.5361328125,-0.1556854248046875,1,0.95,5
2019-10-22 14:32:38.664 -0400,45,1571769155.544647,33.98847576707917,-81.02773745950249,65.24117,-1,-1,11.52660083770752,555,-9999,431832.660352875,0.7899627685546875,0.663482666015625,-0.1837005615234375,1,0.95,5
2019-10-22 14:32:38.704 -0400,46,1571769155.544647,33.98847576707917,-81.02773745950249,65.24117,-1,-1,11.52660083770752,555,-9999,431832.700335875,0.8476104736328125,0.6692962646484375,-0.140960693359375,1,0.95,5
2019-10-22 14:32:38.744 -0400,47,1571769155.544647,33.98847576707917,-81.02773745950249,65.24117,-1,-1,11.52660083770752,555,-9999,431832.740318875,0.99609375,0.729949951171875,-0.2226409912109375,1,0.95,5
2019-10-22 14:32:38.961 -0400,48,1571769155.544647,33.98847576707917,-81.02773745950249,65.24117,-1,-1,11.52660083770752,555,-9999,431832.780301875,1.2734375,0.766204833984375,-0.2373046875,1,0.95,5
2019-10-22 14:32:38.965 -0400,49,1571769155.544647,33.98847576707917,-81.02773745950249,65.24117,-1,-1,11.52660083770752,555,-9999,431832.8202848751,1.670486450195312,0.8635406494140625,-0.2895965576171875,1,0.95,5
2019-10-22 14:32:38.967 -0400,50,1571769155.544647,33.98847576707917,-81.02773745950249,65.24117,-1,-1,11.52660083770752,555,-9999,431832.860267875,1.163681030273438,0.47607421875,-0.2783050537109375,1,0.95,5
2019-10-22 14:32:38.969 -0400,51,1571769155.544647,33.98847576707917,-81.02773745950249,65.24117,-1,-1,11.52660083770752,555,-9999,431832.900250875,1.124664306640625,0.4398956298828125,-0.225677490234375,1,0.95,5
2019-10-22 14:32:38.972 -0400,52,1571769155.544647,33.98847576707917,-81.02773745950249,65.24117,-1,-1,11.52660083770752,555,-9999,431832.940233875,1.32647705078125,0.46270751953125,-0.1342926025390625,1,0.95,5
2019-10-22 14:32:38.984 -0400,53,1571769155.544647,33.98847576707917,-81.02773745950249,65.24117,-1,-1,11.52660083770752,555,-9999,431832.980216875,1.212753295898438,0.4577789306640625,-0.081817626953125,1,0.95,5
2019-10-22 14:32:39.024 -0400,54,1571769155.544647,33.98847576707917,-81.02773745950249,65.24117,-1,-1,11.52660083770752,555,-9999,431833.0201999167,0.9977569580078125,0.4179229736328125,-0.096588134765625,1,0.95,5
2019-10-22 14:32:39.064 -0400,55,1571769155.544647,33.98847576707917,-81.02773745950249,65.24117,-1,-1,11.52660083770752,555,-9999,431833.0601829167,0.881591796875,0.3642578125,-0.0832977294921875,1,0.95,5
2019-10-22 14:32:39.104 -0400,56,1571769155.544647,33.98847576707917,-81.02773745950249,65.24117,-1,-1,11.52660083770752,555,-9999,431833.1001659167,0.78729248046875,0.3645477294921875,-0.0344390869140625,1,0.95,5
2019-10-22 14:32:39.144 -0400,57,1571769155.544647,33.98847576707917,-81.02773745950249,65.24117,-1,-1,11.52660083770752,555,-9999,431833.1401489167,0.739227294921875,0.3814697265625,0.0087890625,1,0.95,5
2019-10-22 14:32:39.184 -0400,58,1571769155.544647,33.98847576707917,-81.02773745950249,65.24117,-1,-1,11.52660083770752,555,-9999,431833.1801319167,0.74786376953125,0.339202880859375,0.02056884765625,1,0.95,5
2019-10-22 14:32:39.224 -0400,59,1571769155.544647,33.98847576707917,-81.02773745950249,65.24117,-1,-1,11.52660083770752,555,-9999,431833.2201149167,0.6893310546875,0.2628631591796875,0.050384521484375,1,0.95,5
2019-10-22 14:32:39.264 -0400,60,1571769155.544647,33.98847576707917,-81.02773745950249,65.24117,-1,-1,11.52660083770752,555,-9999,431833.2600979167,0.7330169677734375,0.2518463134765625,0.050689697265625,1,0.95,5
2019-10-22 14:32:39.304 -0400,61,1571769155.544647,33.98847576707917,-81.02773745950249,65.24117,-1,-1,11.52660083770752,555,-9999,431833.3000809167,0.8905792236328125,0.2959442138671875,0.033294677734375,1,0.95,5
2019-10-22 14:32:39.347 -0400,62,1571769155.544647,33.98847576707917,-81.02773745950249,65.24117,-1,-1,11.52660083770752,555,-9999,431833.3400639167,0.99566650390625,0.3680267333984375,0.0006256103515625,1,0.95,5
2019-10-22 14:32:39.384 -0400,63,1571769155.544647,33.98847576707917,-81.02773745950249,65.24117,-1,-1,11.52660083770752,555,-9999,431833.3800469167,1.241592407226562,0.470428466796875,-0.1035614013671875,1,0.95,5
2019-10-22 14:32:39.424 -0400,64,1571769155.544647,33.98847576707917,-81.02773745950249,65.24117,-1,-1,11.52660083770752,555,-9999,431833.4200299167,1.230072021484375,0.4399566650390625,-0.149688720703125,1,0.95,5
2019-10-22 14:32:39.464 -0400,65,1571769155.544647,33.98847576707917,-81.02773745950249,65.24117,-1,-1,11.52660083770752,555,-9999,431833.4600129167,1.145339965820312,0.519439697265625,-0.3149566650390625,1,0.95,5
2019-10-22 14:32:39.504 -0400,66,1571769155.544647,33.98847576707917,-81.02773745950249,65.24117,-1,-1,11.52660083770752,555,-9999,431833.4999959167,1.537765502929688,0.4758148193359375,-0.3359222412109375,1,0.95,5
2019-10-22 14:32:39.544 -0400,67,1571769155.544647,33.98847576707917,-81.02773745950249,65.24117,-1,-1,11.52660083770752,555,-9999,431833.5399789167,1.34228515625,0.54248046875,-0.1961822509765625,1,0.95,5
2019-10-22 14:32:39.584 -0400,68,1571769155.544647,33.98847576707917,-81.02773745950249,65.24117,-1,-1,11.52660083770752,555,-9999,431833.5799619167,0.9161529541015625,0.387847900390625,-0.3069915771484375,1,0.95,5
2019-10-22 14:32:39.625 -0400,69,1571769155.544647,33.98847576707917,-81.02773745950249,65.24117,-1,-1,11.52660083770752,555,-9999,431833.6199449167,0.732757568359375,0.3773040771484375,-0.2438201904296875,1,0.95,5
2019-10-22 14:32:39.664 -0400,70,1571769159.375143,33.99190326825318,-81.02917172312006,60.00727,0.6096575,355.5530440142925,87.5585093996293,81.41678337314654,-9999,431833.6599279167,0.6389312744140625,0.3927154541015625,-0.1828460693359375,1,0.95,5
2019-10-22 14:32:39.704 -0400,71,1571769159.375143,33.99190326825318,-81.02917172312006,60.00727,0.6096575,355.5530440142925,87.5585093996293,81.41678337314654,-9999,431833.6999109167,0.5714263916015625,0.4989471435546875,-0.1799774169921875,1,0.95,5
2019-10-22 14:32:39.744 -0400,72,1571769159.375143,33.99190326825318,-81.02917172312006,60.00727,0.6096575,355.5530440142925,87.5585093996293,81.41678337314654,-9999,431833.7398939167,0.5775604248046875,0.562896728515625,-0.231048583984375,1,0.95,5
2019-10-22 14:32:39.784 -0400,73,1571769159.375143,33.99190326825318,-81.02917172312006,60.00727,0.6096575,355.5530440142925,87.5585093996293,81.41678337314654,-9999,431833.7798769167,0.72259521484375,0.579864501953125,-0.233642578125,1,0.95,5
2019-10-22 14:32:39.850 -0400,74,1571769159.375143,33.99190326825318,-81.02917172312006,60.00727,0.6096575,355.5530440142925,87.5585093996293,81.41678337314654,-9999,431833.8198599167,0.9909515380859375,0.6178436279296875,-0.2698974609375,1,0.95,5
2019-10-22 14:32:39.864 -0400,75,1571769159.375143,33.99190326825318,-81.02917172312006,60.00727,0.6096575,355.5530440142925,87.5585093996293,81.41678337314654,-9999,431833.8598429167,1.319625854492188,0.6231842041015625,-0.2455596923828125,1,0.95,5
2019-10-22 14:32:39.904 -0400,76,1571769159.375143,33.99190326825318,-81.02917172312006,60.00727,0.6096575,355.5530440142925,87.5585093996293,81.41678337314654,-9999,431833.8998259167,1.482330322265625,0.6537017822265625,-0.26690673828125,1,0.95,5
2019-10-22 14:32:39.944 -0400,77,1571769159.375143,33.99190326825318,-81.02917172312006,60.00727,0.6096575,355.5530440142925,87.5585093996293,81.41678337314654,-9999,431833.9398089167,1.341339111328125,0.5713348388671875,-0.320953369140625,1,0.95,5
2019-10-22 14:32:39.984 -0400,78,1571769159.375143,33.99190326825318,-81.02917172312006,60.00727,0.6096575,355.5530440142925,87.5585093996293,81.41678337314654,-9999,431833.9797919167,1.033294677734375,0.4978179931640625,-0.3038330078125,1,0.95,5
2019-10-22 14:32:40.024 -0400,79,1571769159.375143,33.99190326825318,-81.02917172312006,60.00727,0.6096575,355.5530440142925,87.5585093996293,81.41678337314654,-9999,431834.019774875,1.225509643554688,0.492523193359375,-0.224212646484375,1,0.95,5
2019-10-22 14:32:40.064 -0400,80,1571769159.375143,33.99190326825318,-81.02917172312006,60.00727,0.6096575,355.5530440142925,87.5585093996293,81.41678337314654,-9999,431834.059757875,1.242630004882812,0.3585357666015625,-0.0606536865234375,1,0.95,5
2019-10-22 14:32:40.104 -0400,81,1571769159.375143,33.99190326825318,-81.02917172312006,60.00727,0.6096575,355.5530440142925,87.5585093996293,81.41678337314654,-9999,431834.099740875,1.0625,0.281219482421875,-0.0672149658203125,1,0.95,5
2019-10-22 14:32:40.144 -0400,82,1571769159.375143,33.99190326825318,-81.02917172312006,60.00727,0.6096575,355.5530440142925,87.5585093996293,81.41678337314654,-9999,431834.139723875,0.868988037109375,0.2938690185546875,-0.0798492431640625,1,0.95,5
2019-10-22 14:32:40.184 -0400,83,1571769159.375143,33.99190326825318,-81.02917172312006,60.00727,0.6096575,355.5530440142925,87.5585093996293,81.41678337314654,-9999,431834.179706875,0.72210693359375,0.354278564453125,-0.0516204833984375,1,0.95,5
2019-10-22 14:32:40.224 -0400,84,1571769159.375143,33.99190326825318,-81.02917172312006,60.00727,0.6096575,355.5530440142925,87.5585093996293,81.41678337314654,-9999,431834.219689875,0.662811279296875,0.343719482421875,-0.0155792236328125,1,0.95,5
2019-10-22 14:32:40.264 -0400,85,1571769159.375143,33.99190326825318,-81.02917172312006,60.00727,0.6096575,355.5530440142925,87.5585093996293,81.41678337314654,-9999,431834.2596728751,0.7397613525390625,0.342254638671875,9.1552734375e-05,1,0.95,5
2019-10-22 14:32:40.304 -0400,86,1571769159.375143,33.99190326825318,-81.02917172312006,60.00727,0.6096575,355.5530440142925,87.5585093996293,81.41678337314654,-9999,431834.299655875,0.6889190673828125,0.2712249755859375,0.0401763916015625,1,0.95,5
2019-10-22 14:32:40.344 -0400,87,1571769159.375143,33.99190326825318,-81.02917172312006,60.00727,0.6096575,355.5530440142925,87.5585093996293,81.41678337314654,-9999,431834.339638875,0.78350830078125,0.2854461669921875,0.0280609130859375,1,0.95,5
2019-10-22 14:32:40.384 -0400,88,1571769159.375143,33.99190326825318,-81.02917172312006,60.00727,0.6096575,355.5530440142925,87.5585093996293,81.41678337314654,-9999,431834.379621875,1.014419555664062,0.302337646484375,0.0498199462890625,1,0.95,5
2019-10-22 14:32:40.424 -0400,89,1571769159.375143,33.99190326825318,-81.02917172312006,60.00727,0.6096575,355.5530440142925,87.5585093996293,81.41678337314654,-9999,431834.419604875,1.171600341796875,0.3609771728515625,0.0402679443359375,1,0.95,5
2019-10-22 14:32:40.464 -0400,90,1571769159.375143,33.99190326825318,-81.02917172312006,60.00727,0.6096575,355.5530440142925,87.5585093996293,81.41678337314654,-9999,431834.4595878751,1.371780395507812,0.4708099365234375,-0.0537109375,1,0.95,5
2019-10-22 14:32:40.504 -0400,91,1571769159.375143,33.99190326825318,-81.02917172312006,60.00727,0.6096575,355.5530440142925,87.5585093996293,81.41678337314654,-9999,431834.499570875,1.213211059570312,0.4847564697265625,-0.2238006591796875,1,0.95,5
2019-10-22 14:32:40.544 -0400,92,1571769159.375143,33.99190326825318,-81.02917172312006,60.00727,0.6096575,355.5530440142925,87.5585093996293,81.41678337314654,-9999,431834.539553875,1.035720825195312,0.509521484375,-0.3537139892578125,1,0.95,5
2019-10-22 14:32:40.584 -0400,93,1571769159.375143,33.99190326825318,-81.02917172312006,60.00727,0.6096575,355.5530440142925,87.5585093996293,81.41678337314654,-9999,431834.579536875,1.238800048828125,0.4341888427734375,-0.264312744140625,1,0.95,5
2019-10-22 14:32:40.623 -0400,94,1571769159.375143,33.99190326825318,-81.02917172312006,60.00727,0.6096575,355.5530440142925,87.5585093996293,81.41678337314654,-9999,431834.619519875,1.171157836914062,0.4940643310546875,-0.189849853515625,1,0.95,5
2019-10-22 14:32:40.664 -0400,95,1571769160.375142,33.99188721642021,-81.02915299020432,71.19488,1.261752,333.9511720701553,9.75973866227344,52.5680085511976,-9999,431834.659502875,0.8702850341796875,0.303436279296875,-0.324310302734375,1,0.95,5
2019-10-22 14:32:40.704 -0400,96,1571769160.375142,33.99188721642021,-81.02915299020432,71.19488,1.261752,333.9511720701553,9.75973866227344,52.5680085511976,-9999,431834.699485875,0.660858154296875,0.228057861328125,-0.288665771484375,1,0.95,5
2019-10-22 14:32:40.744 -0400,97,1571769160.375142,33.99188721642021,-81.02915299020432,71.19488,1.261752,333.9511720701553,9.75973866227344,52.5680085511976,-9999,431834.7394688751,0.576385498046875,0.2695159912109375,-0.2340850830078125,1,0.95,5
2019-10-22 14:32:40.783 -0400,98,1571769160.375142,33.99188721642021,-81.02915299020432,71.19488,1.261752,333.9511720701553,9.75973866227344,52.5680085511976,-9999,431834.779451875,0.60516357421875,0.3355865478515625,-0.26007080078125,1,0.95,5
2019-10-22 14:32:40.823 -0400,99,1571769160.375142,33.99188721642021,-81.02915299020432,71.19488,1.261752,333.9511720701553,9.75973866227344,52.5680085511976,-9999,431834.819434875,0.7034149169921875,0.4058380126953125,-0.285369873046875,1,0.95,5
2019-10-22 14:32:40.874 -0400,100,1571769160.375142,33.99188721642021,-81.02915299020432,71.19488,1.261752,333.9511720701553,9.75973866227344,52.5680085511976,-9999,431834.859417875,1.00250244140625,0.4390411376953125,-0.2941131591796875,1,0.95,5
2019-10-22 14:32:40.903 -0400,101,1571769160.375142,33.99188721642021,-81.02915299020432,71.19488,1.261752,333.9511720701553,9.75973866227344,52.5680085511976,-9999,431834.899400875,1.036224365234375,0.398162841796875,-0.2796173095703125,1,0.95,5
2019-10-22 14:32:40.943 -0400,102,1571769160.375142,33.99188721642021,-81.02915299020432,71.19488,1.261752,333.9511720701553,9.75973866227344,52.5680085511976,-9999,431834.9393838751,1.156723022460938,0.46612548828125,-0.31195068359375,1,0.95,5
2019-10-22 14:32:40.983 -0400,103,1571769160.375142,33.99188721642021,-81.02915299020432,71.19488,1.261752,333.9511720701553,9.75973866227344,52.5680085511976,-9999,431834.979366875,1.353958129882812,0.541656494140625,-0.3380584716796875,1,0.95,5
2019-10-22 14:32:41.023 -0400,104,1571769160.375142,33.99188721642021,-81.02915299020432,71.19488,1.261752,333.9511720701553,9.75973866227344,52.5680085511976,-9999,431835.019349875,1.3582763671875,0.5621185302734375,-0.3865966796875,1,0.95,5
2019-10-22 14:32:41.063 -0400,105,1571769160.375142,33.99188721642021,-81.02915299020432,71.19488,1.261752,333.9511720701553,9.75973866227344,52.5680085511976,-9999,431835.059332875,0.9472808837890625,0.468597412109375,-0.384307861328125,1,0.95,5
2019-10-22 14:32:41.103 -0400,106,1571769160.375142,33.99188721642021,-81.02915299020432,71.19488,1.261752,333.9511720701553,9.75973866227344,52.5680085511976,-9999,431835.099315875,1.026718139648438,0.39764404296875,-0.2123565673828125,1,0.95,5
2019-10-22 14:32:41.143 -0400,107,1571769160.375142,33.99188721642021,-81.02915299020432,71.19488,1.261752,333.9511720701553,9.75973866227344,52.5680085511976,-9999,431835.139298875,1.002334594726562,0.3362274169921875,-0.0799713134765625,1,0.95,5
2019-10-22 14:32:41.183 -0400,108,1571769160.375142,33.99188721642021,-81.02915299020432,71.19488,1.261752,333.9511720701553,9.75973866227344,52.5680085511976,-9999,431835.179281875,1.039932250976562,0.2692413330078125,-0.11785888671875,1,0.95,5
2019-10-22 14:32:41.223 -0400,109,1571769160.375142,33.99188721642021,-81.02915299020432,71.19488,1.261752,333.9511720701553,9.75973866227344,52.5680085511976,-9999,431835.219264875,0.85980224609375,0.26971435546875,-0.094818115234375,1,0.95,5
2019-10-22 14:32:41.263 -0400,110,1571769160.375142,33.99188721642021,-81.02915299020432,71.19488,1.261752,333.9511720701553,9.75973866227344,52.5680085511976,-9999,431835.259247875,0.7274932861328125,0.3372802734375,-0.07769775390625,1,0.95,5
2019-10-22 14:32:41.303 -0400,111,1571769160.375142,33.99188721642021,-81.02915299020432,71.19488,1.261752,333.9511720701553,9.75973866227344,52.5680085511976,-9999,431835.299230875,0.690093994140625,0.369171142578125,-0.053131103515625,1,0.95,5
2019-10-22 14:32:41.343 -0400,112,1571769160.375142,33.99188721642021,-81.02915299020432,71.19488,1.261752,333.9511720701553,9.75973866227344,52.5680085511976,-9999,431835.339213875,0.7671966552734375,0.3740997314453125,-0.02203369140625,1,0.95,5
2019-10-22 14:32:41.383 -0400,113,1571769160.375142,33.99188721642021,-81.02915299020432,71.19488,1.261752,333.9511720701553,9.75973866227344,52.5680085511976,-9999,431835.379196875,0.858123779296875,0.3183441162109375,-0.001556396484375,1,0.95,5
2019-10-22 14:32:41.423 -0400,114,1571769160.375142,33.99188721642021,-81.02915299020432,71.19488,1.261752,333.9511720701553,9.75973866227344,52.5680085511976,-9999,431835.4191798751,1.048049926757812,0.2991180419921875,0.0305328369140625,1,0.95,5
2019-10-22 14:32:41.463 -0400,115,1571769160.375142,33.99188721642021,-81.02915299020432,71.19488,1.261752,333.9511720701553,9.75973866227344,52.5680085511976,-9999,431835.459162875,1.229278564453125,0.338623046875,0.0222930908203125,1,0.95,5
2019-10-22 14:32:41.503 -0400,116,1571769160.375142,33.99188721642021,-81.02915299020432,71.19488,1.261752,333.9511720701553,9.75973866227344,52.5680085511976,-9999,431835.499145875,1.393783569335938,0.4098358154296875,-0.0601654052734375,1,0.95,5
2019-10-22 14:32:41.543 -0400,117,1571769160.375142,33.99188721642021,-81.02915299020432,71.19488,1.261752,333.9511720701553,9.75973866227344,52.5680085511976,-9999,431835.539128875,1.306533813476562,0.429168701171875,-0.12451171875,1,0.95,5
2019-10-22 14:32:41.583 -0400,118,1571769160.375142,33.99188721642021,-81.02915299020432,71.19488,1.261752,333.9511720701553,9.75973866227344,52.5680085511976,-9999,431835.579111875,1.23553466796875,0.3860931396484375,-0.125732421875,1,0.95,5
2019-10-22 14:32:41.623 -0400,119,1571769160.375142,33.99188721642021,-81.02915299020432,71.19488,1.261752,333.9511720701553,9.75973866227344,52.5680085511976,-9999,431835.619094875,1.030731201171875,0.3845367431640625,-0.2584381103515625,1,0.95,5
2019-10-22 14:32:41.663 -0400,120,1571769160.375142,33.99188721642021,-81.02915299020432,71.19488,1.261752,333.9511720701553,9.75973866227344,52.5680085511976,-9999,431835.659077875,0.99310302734375,0.3050689697265625,-0.2496185302734375,1,0.95,5
2019-10-22 14:32:41.711 -0400,121,1571769160.375142,33.99188721642021,-81.02915299020432,71.19488,1.261752,333.9511720701553,9.75973866227344,52.5680085511976,-9999,431835.699060875,0.943389892578125,0.1803131103515625,-0.1754608154296875,1,0.95,5
2019-10-22 14:32:41.743 -0400,122,1571769161.375141,33.99195918150875,-81.02922417498925,71.09069,1.261752,336.1214287536399,8.446770464114348,37.81583417832326,-9999,431835.739043875,0.8489990234375,0.278076171875,-0.241119384765625,1,0.95,5
2019-10-22 14:32:41.783 -0400,123,1571769161.375141,33.99195918150875,-81.02922417498925,71.09069,1.261752,336.1214287536399,8.446770464114348,37.81583417832326,-9999,431835.779027875,0.7146148681640625,0.34197998046875,-0.284698486328125,1,0.95,5
2019-10-22 14:32:41.823 -0400,124,1571769161.375141,33.99195918150875,-81.02922417498925,71.09069,1.261752,336.1214287536399,8.446770464114348,37.81583417832326,-9999,431835.819009875,0.6083984375,0.3836517333984375,-0.2912750244140625,1,0.95,5
2019-10-22 14:32:41.863 -0400,125,1571769161.375141,33.99195918150875,-81.02922417498925,71.09069,1.261752,336.1214287536399,8.446770464114348,37.81583417832326,-9999,431835.858993875,0.5644683837890625,0.358001708984375,-0.254058837890625,1,0.95,5
2019-10-22 14:32:41.904 -0400,126,1571769161.375141,33.99195918150875,-81.02922417498925,71.09069,1.261752,336.1214287536399,8.446770464114348,37.81583417832326,-9999,431835.898976875,0.6387939453125,0.369293212890625,-0.2119140625,1,0.95,5
2019-10-22 14:32:41.943 -0400,127,1571769161.375141,33.99195918150875,-81.02922417498925,71.09069,1.261752,336.1214287536399,8.446770464114348,37.81583417832326,-9999,431835.938959875,0.8970794677734375,0.3944244384765625,-0.201904296875,1,0.95,5
2019-10-22 14:32:41.983 -0400,128,1571769161.375141,33.99195918150875,-81.02922417498925,71.09069,1.261752,336.1214287536399,8.446770464114348,37.81583417832326,-9999,431835.9789428751,0.97747802734375,0.3736114501953125,-0.2085418701171875,1,0.95,5
2019-10-22 14:32:42.023 -0400,129,1571769161.375141,33.99195918150875,-81.02922417498925,71.09069,1.261752,336.1214287536399,8.446770464114348,37.81583417832326,-9999,431836.018926,0.9948883056640625,0.4112396240234375,-0.2409515380859375,1,0.95,5
2019-10-22 14:32:42.063 -0400,130,1571769161.375141,33.99195918150875,-81.02922417498925,71.09069,1.261752,336.1214287536399,8.446770464114348,37.81583417832326,-9999,431836.058909,1.2359619140625,0.497650146484375,-0.2835235595703125,1,0.95,5
2019-10-22 14:32:42.103 -0400,131,1571769161.375141,33.99195918150875,-81.02922417498925,71.09069,1.261752,336.1214287536399,8.446770464114348,37.81583417832326,-9999,431836.098892,1.356857299804688,0.5310516357421875,-0.26019287109375,1,0.95,5
2019-10-22 14:32:42.143 -0400,132,1571769161.375141,33.99195918150875,-81.02922417498925,71.09069,1.261752,336.1214287536399,8.446770464114348,37.81583417832326,-9999,431836.138875,1.102279663085938,0.5522918701171875,-0.3206329345703125,1,0.95,5
2019-10-22 14:32:42.183 -0400,133,1571769161.375141,33.99195918150875,-81.02922417498925,71.09069,1.261752,336.1214287536399,8.446770464114348,37.81583417832326,-9999,431836.178858,0.7036590576171875,0.567962646484375,-0.392364501953125,1,0.95,5
2019-10-22 14:32:42.223 -0400,134,1571769161.375141,33.99195918150875,-81.02922417498925,71.09069,1.261752,336.1214287536399,8.446770464114348,37.81583417832326,-9999,431836.2188410001,1.0194091796875,0.50286865234375,-0.2555999755859375,1,0.95,5
2019-10-22 14:32:42.263 -0400,135,1571769161.375141,33.99195918150875,-81.02922417498925,71.09069,1.261752,336.1214287536399,8.446770464114348,37.81583417832326,-9999,431836.258824,1.091217041015625,0.340240478515625,-0.0448760986328125,1,0.95,5
2019-10-22 14:32:42.303 -0400,136,1571769161.375141,33.99195918150875,-81.02922417498925,71.09069,1.261752,336.1214287536399,8.446770464114348,37.81583417832326,-9999,431836.298807,1.044403076171875,0.317352294921875,-0.1189422607421875,1,0.95,5
2019-10-22 14:32:42.345 -0400,137,1571769161.375141,33.99195918150875,-81.02922417498925,71.09069,1.261752,336.1214287536399,8.446770464114348,37.81583417832326,-9999,431836.33879,0.9846649169921875,0.255401611328125,-0.1097564697265625,1,0.95,5
2019-10-22 14:32:42.383 -0400,138,1571769161.375141,33.99195918150875,-81.02922417498925,71.09069,1.261752,336.1214287536399,8.446770464114348,37.81583417832326,-9999,431836.378773,0.9091644287109375,0.3432769775390625,-0.1175537109375,1,0.95,5
2019-10-22 14:32:42.423 -0400,139,1571769161.375141,33.99195918150875,-81.02922417498925,71.09069,1.261752,336.1214287536399,8.446770464114348,37.81583417832326,-9999,431836.418756,0.922393798828125,0.411346435546875,-0.1165771484375,1,0.95,5
2019-10-22 14:32:42.463 -0400,140,1571769161.375141,33.99195918150875,-81.02922417498925,71.09069,1.261752,336.1214287536399,8.446770464114348,37.81583417832326,-9999,431836.458739,0.973052978515625,0.4070281982421875,-0.053497314453125,1,0.95,5
2019-10-22 14:32:42.503 -0400,141,1571769161.375141,33.99195918150875,-81.02922417498925,71.09069,1.261752,336.1214287536399,8.446770464114348,37.81583417832326,-9999,431836.498722,0.922821044921875,0.338165283203125,-0.0274658203125,1,0.95,5
2019-10-22 14:32:42.543 -0400,142,1571769161.375141,33.99195918150875,-81.02922417498925,71.09069,1.261752,336.1214287536399,8.446770464114348,37.81583417832326,-9999,431836.538705,0.96820068359375,0.28759765625,-6.103515625e-05,1,0.95,5
2019-10-22 14:32:42.583 -0400,143,1571769161.375141,33.99195918150875,-81.02922417498925,71.09069,1.261752,336.1214287536399,8.446770464114348,37.81583417832326,-9999,431836.578688,1.022216796875,0.311309814453125,-0.003204345703125,1,0.95,5
2019-10-22 14:32:42.623 -0400,144,1571769162.375141,33.99195145183451,-81.02929348103343,71.54958,1.357073,348.8443982448581,7.032311150328713,28.88851795275138,-9999,431836.618671,1.13519287109375,0.3764495849609375,-0.0483856201171875,1,0.95,5
2019-10-22 14:32:42.663 -0400,145,1571769162.375141,33.99195145183451,-81.02929348103343,71.54958,1.357073,348.8443982448581,7.032311150328713,28.88851795275138,-9999,431836.658654,1.236160278320312,0.429595947265625,-0.09552001953125,1,0.95,5
2019-10-22 14:32:42.703 -0400,146,1571769162.375141,33.99195145183451,-81.02929348103343,71.54958,1.357073,348.8443982448581,7.032311150328713,28.88851795275138,-9999,431836.6986370001,1.02899169921875,0.3886871337890625,-0.18408203125,1,0.95,5
2019-10-22 14:32:42.743 -0400,147,1571769162.375141,33.99195145183451,-81.02929348103343,71.54958,1.357073,348.8443982448581,7.032311150328713,28.88851795275138,-9999,431836.73862,0.9174652099609375,0.4155731201171875,-0.322723388671875,1,0.95,5
2019-10-22 14:32:42.783 -0400,148,1571769162.375141,33.99195145183451,-81.02929348103343,71.54958,1.357073,348.8443982448581,7.032311150328713,28.88851795275138,-9999,431836.778603,1.109283447265625,0.3412322998046875,-0.316650390625,1,0.95,5
2019-10-22 14:32:42.823 -0400,149,1571769162.375141,33.99195145183451,-81.02929348103343,71.54958,1.357073,348.8443982448581,7.032311150328713,28.88851795275138,-9999,431836.818586,1.131927490234375,0.2336273193359375,-0.1571807861328125,1,0.95,5
2019-10-22 14:32:42.863 -0400,150,1571769162.375141,33.99195145183451,-81.02929348103343,71.54958,1.357073,348.8443982448581,7.032311150328713,28.88851795275138,-9999,431836.858569,0.9857177734375,0.1787872314453125,-0.1993408203125,1,0.95,5
2019-10-22 14:32:42.903 -0400,151,1571769162.375141,33.99195145183451,-81.02929348103343,71.54958,1.357073,348.8443982448581,7.032311150328713,28.88851795275138,-9999,431836.898552,0.8211212158203125,0.3209228515625,-0.3417510986328125,1,0.95,5
2019-10-22 14:32:42.942 -0400,152,1571769162.375141,33.99195145183451,-81.02929348103343,71.54958,1.357073,348.8443982448581,7.032311150328713,28.88851795275138,-9999,431836.938535,0.668731689453125,0.3210906982421875,-0.304962158203125,1,0.95,5
2019-10-22 14:32:42.982 -0400,153,1571769162.375141,33.99195145183451,-81.02929348103343,71.54958,1.357073,348.8443982448581,7.032311150328713,28.88851795275138,-9999,431836.978518,0.5714263916015625,0.35693359375,-0.2541351318359375,1,0.95,5
2019-10-22 14:32:43.023 -0400,154,1571769162.375141,33.99195145183451,-81.02929348103343,71.54958,1.357073,348.8443982448581,7.032311150328713,28.88851795275138,-9999,431837.018500625,0.6300506591796875,0.359771728515625,-0.221954345703125,1,0.95,5
2019-10-22 14:32:43.062 -0400,155,1571769162.375141,33.99195145183451,-81.02929348103343,71.54958,1.357073,348.8443982448581,7.032311150328713,28.88851795275138,-9999,431837.058483625,0.7739410400390625,0.3949432373046875,-0.2403564453125,1,0.95,5
2019-10-22 14:32:43.102 -0400,156,1571769162.375141,33.99195145183451,-81.02929348103343,71.54958,1.357073,348.8443982448581,7.032311150328713,28.88851795275138,-9999,431837.098466625,0.9015960693359375,0.4098663330078125,-0.2636871337890625,1,0.95,5
2019-10-22 14:32:43.143 -0400,157,1571769162.375141,33.99195145183451,-81.02929348103343,71.54958,1.357073,348.8443982448581,7.032311150328713,28.88851795275138,-9999,431837.1384496251,1.035491943359375,0.4780120849609375,-0.262451171875,1,0.95,5
2019-10-22 14:32:43.182 -0400,158,1571769162.375141,33.99195145183451,-81.02929348103343,71.54958,1.357073,348.8443982448581,7.032311150328713,28.88851795275138,-9999,431837.178432625,1.288787841796875,0.58197021484375,-0.345611572265625,1,0.95,5
2019-10-22 14:32:43.222 -0400,159,1571769162.375141,33.99195145183451,-81.02929348103343,71.54958,1.357073,348.8443982448581,7.032311150328713,28.88851795275138,-9999,431837.218415625,1.44757080078125,0.6491241455078125,-0.365264892578125,1,0.95,5
2019-10-22 14:32:43.262 -0400,160,1571769162.375141,33.99195145183451,-81.02929348103343,71.54958,1.357073,348.8443982448581,7.032311150328713,28.88851795275138,-9999,431837.258398625,0.9188385009765625,0.54193115234375,-0.39874267578125,1,0.95,5
2019-10-22 14:32:43.302 -0400,161,1571769162.375141,33.99195145183451,-81.02929348103343,71.54958,1.357073,348.8443982448581,7.032311150328713,28.88851795275138,-9999,431837.298381625,0.9850616455078125,0.4788818359375,-0.2607879638671875,1,0.95,5
2019-10-22 14:32:43.347 -0400,162,1571769162.375141,33.99195145183451,-81.02929348103343,71.54958,1.357073,348.8443982448581,7.032311150328713,28.88851795275138,-9999,431837.338364625,1.16046142578125,0.3986358642578125,-0.13800048828125,1,0.95,5
2019-10-22 14:32:43.382 -0400,163,1571769162.375141,33.99195145183451,-81.02929348103343,71.54958,1.357073,348.8443982448581,7.032311150328713,28.88851795275138,-9999,431837.378347625,1.1971435546875,0.2532958984375,-0.1229095458984375,1,0.95,5
2019-10-22 14:32:43.422 -0400,164,1571769162.375141,33.99195145183451,-81.02929348103343,71.54958,1.357073,348.8443982448581,7.032311150328713,28.88851795275138,-9999,431837.418330625,1.040008544921875,0.2212677001953125,-0.0968780517578125,1,0.95,5
2019-10-22 14:32:43.462 -0400,165,1571769162.375141,33.99195145183451,-81.02929348103343,71.54958,1.357073,348.8443982448581,7.032311150328713,28.88851795275138,-9999,431837.458313625,0.97247314453125,0.3186798095703125,-0.120697021484375,1,0.95,5
2019-10-22 14:32:43.502 -0400,166,1571769162.375141,33.99195145183451,-81.02929348103343,71.54958,1.357073,348.8443982448581,7.032311150328713,28.88851795275138,-9999,431837.498296625,0.8881378173828125,0.392730712890625,-0.0871734619140625,1,0.95,5
2019-10-22 14:32:43.542 -0400,167,1571769162.375141,33.99195145183451,-81.02929348103343,71.54958,1.357073,348.8443982448581,7.032311150328713,28.88851795275138,-9999,431837.538280625,0.892852783203125,0.40228271484375,-0.035980224609375,1,0.95,5
2019-10-22 14:32:43.582 -0400,168,1571769162.375141,33.99195145183451,-81.02929348103343,71.54958,1.357073,348.8443982448581,7.032311150328713,28.88851795275138,-9999,431837.578263625,0.8928680419921875,0.352783203125,0.015350341796875,1,0.95,5
2019-10-22 14:32:43.631 -0400,169,1571769162.375141,33.99195145183451,-81.02929348103343,71.54958,1.357073,348.8443982448581,7.032311150328713,28.88851795275138,-9999,431837.618246625,0.92742919921875,0.31396484375,0.0280609130859375,1,0.95,5
2019-10-22 14:32:43.662 -0400,170,1571769163.37514,33.99194206424676,-81.02931959108284,71.78841,1.363847,345.2112302109689,7.050682973657048,23.7521803779829,-9999,431837.658229625,0.935882568359375,0.2962799072265625,0.0146942138671875,1,0.95,5
2019-10-22 14:32:43.702 -0400,171,1571769163.37514,33.99194206424676,-81.02931959108284,71.78841,1.363847,345.2112302109689,7.050682973657048,23.7521803779829,-9999,431837.6982126251,0.998077392578125,0.3147430419921875,-0.011199951171875,1,0.95,5
2019-10-22 14:32:43.742 -0400,172,1571769163.37514,33.99194206424676,-81.02931959108284,71.78841,1.363847,345.2112302109689,7.050682973657048,23.7521803779829,-9999,431837.738195625,1.0888671875,0.3457183837890625,-0.041534423828125,1,0.95,5
2019-10-22 14:32:43.782 -0400,173,1571769163.37514,33.99194206424676,-81.02931959108284,71.78841,1.363847,345.2112302109689,7.050682973657048,23.7521803779829,-9999,431837.778178625,1.15948486328125,0.376434326171875,-0.07440185546875,1,0.95,5
2019-10-22 14:32:43.822 -0400,174,1571769163.37514,33.99194206424676,-81.02931959108284,71.78841,1.363847,345.2112302109689,7.050682973657048,23.7521803779829,-9999,431837.818161625,0.96893310546875,0.3769683837890625,-0.202301025390625,1,0.95,5
2019-10-22 14:32:43.862 -0400,175,1571769163.37514,33.99194206424676,-81.02931959108284,71.78841,1.363847,345.2112302109689,7.050682973657048,23.7521803779829,-9999,431837.858144625,1.088516235351562,0.38934326171875,-0.26617431640625,1,0.95,5
2019-10-22 14:32:43.902 -0400,176,1571769163.37514,33.99194206424676,-81.02931959108284,71.78841,1.363847,345.2112302109689,7.050682973657048,23.7521803779829,-9999,431837.898127625,1.142501831054688,0.33551025390625,-0.2327117919921875,1,0.95,5
2019-10-22 14:32:43.942 -0400,177,1571769163.37514,33.99194206424676,-81.02931959108284,71.78841,1.363847,345.2112302109689,7.050682973657048,23.7521803779829,-9999,431837.938110625,1.118499755859375,0.252410888671875,-0.2203521728515625,1,0.95,5
2019-10-22 14:32:43.982 -0400,178,1571769163.37514,33.99194206424676,-81.02931959108284,71.78841,1.363847,345.2112302109689,7.050682973657048,23.7521803779829,-9999,431837.978093625,1.012054443359375,0.234771728515625,-0.2708587646484375,1,0.95,5
2019-10-22 14:32:44.022 -0400,179,1571769163.37514,33.99194206424676,-81.02931959108284,71.78841,1.363847,345.2112302109689,7.050682973657048,23.7521803779829,-9999,431838.0180765,0.784027099609375,0.30340576171875,-0.3443603515625,1,0.95,5
2019-10-22 14:32:44.062 -0400,180,1571769163.37514,33.99194206424676,-81.02931959108284,71.78841,1.363847,345.2112302109689,7.050682973657048,23.7521803779829,-9999,431838.0580595,0.66778564453125,0.3309326171875,-0.32177734375,1,0.95,5
2019-10-22 14:32:44.102 -0400,181,1571769163.37514,33.99194206424676,-81.02931959108284,71.78841,1.363847,345.2112302109689,7.050682973657048,23.7521803779829,-9999,431838.0980425,0.656494140625,0.40777587890625,-0.3037109375,1,0.95,5
2019-10-22 14:32:44.142 -0400,182,1571769163.37514,33.99194206424676,-81.02931959108284,71.78841,1.363847,345.2112302109689,7.050682973657048,23.7521803779829,-9999,431838.1380255001,0.6360626220703125,0.34771728515625,-0.284576416015625,1,0.95,5
2019-10-22 14:32:44.182 -0400,183,1571769163.37514,33.99194206424676,-81.02931959108284,71.78841,1.363847,345.2112302109689,7.050682973657048,23.7521803779829,-9999,431838.1780085,0.7242889404296875,0.3695068359375,-0.29119873046875,1,0.95,5
2019-10-22 14:32:44.222 -0400,184,1571769163.37514,33.99194206424676,-81.02931959108284,71.78841,1.363847,345.2112302109689,7.050682973657048,23.7521803779829,-9999,431838.2179915,0.7865753173828125,0.3585662841796875,-0.27593994140625,1,0.95,5
2019-10-22 14:32:44.262 -0400,185,1571769163.37514,33.99194206424676,-81.02931959108284,71.78841,1.363847,345.2112302109689,7.050682973657048,23.7521803779829,-9999,431838.2579745,0.9708404541015625,0.45257568359375,-0.2889556884765625,1,0.95,5
2019-10-22 14:32:44.302 -0400,186,1571769163.37514,33.99194206424676,-81.02931959108284,71.78841,1.363847,345.2112302109689,7.050682973657048,23.7521803779829,-9999,431838.2979575,1.200210571289062,0.5194854736328125,-0.2912750244140625,1,0.95,5
2019-10-22 14:32:44.348 -0400,187,1571769163.37514,33.99194206424676,-81.02931959108284,71.78841,1.363847,345.2112302109689,7.050682973657048,23.7521803779829,-9999,431838.3379405,1.49163818359375,0.628143310546875,-0.3002166748046875,1,0.95,5
2019-10-22 14:32:44.382 -0400,188,1571769163.37514,33.99194206424676,-81.02931959108284,71.78841,1.363847,345.2112302109689,7.050682973657048,23.7521803779829,-9999,431838.3779235,1.257095336914062,0.6405792236328125,-0.4294281005859375,1,0.95,5
2019-10-22 14:32:44.422 -0400,189,1571769163.37514,33.99194206424676,-81.02931959108284,71.78841,1.363847,345.2112302109689,7.050682973657048,23.7521803779829,-9999,431838.4179065,0.9665069580078125,0.44952392578125,-0.259613037109375,1,0.95,5
2019-10-22 14:32:44.462 -0400,190,1571769163.37514,33.99194206424676,-81.02931959108284,71.78841,1.363847,345.2112302109689,7.050682973657048,23.7521803779829,-9999,431838.4578895,1.2362060546875,0.3257598876953125,-0.164581298828125,1,0.95,5
2019-10-22 14:32:44.502 -0400,191,1571769163.37514,33.99194206424676,-81.02931959108284,71.78841,1.363847,345.2112302109689,7.050682973657048,23.7521803779829,-9999,431838.4978725,1.343399047851562,0.2418365478515625,-0.0516357421875,1,0.95,5
2019-10-22 14:32:44.542 -0400,192,1571769163.37514,33.99194206424676,-81.02931959108284,71.78841,1.363847,345.2112302109689,7.050682973657048,23.7521803779829,-9999,431838.5378555,1.162948608398438,0.204620361328125,-0.046905517578125,1,0.95,5
2019-10-22 14:32:44.582 -0400,193,1571769163.37514,33.99194206424676,-81.02931959108284,71.78841,1.363847,345.2112302109689,7.050682973657048,23.7521803779829,-9999,431838.5778385,0.9131317138671875,0.2861480712890625,-0.1087646484375,1,0.95,5
2019-10-22 14:32:44.624 -0400,194,1571769163.37514,33.99194206424676,-81.02931959108284,71.78841,1.363847,345.2112302109689,7.050682973657048,23.7521803779829,-9999,431838.6178215001,0.7851104736328125,0.3795928955078125,-0.1064605712890625,1,0.95,5
2019-10-22 14:32:44.662 -0400,195,1571769164.375139,33.99201318734634,-81.02925239430168,71.8604,1.202382,344.6104586680379,7.860163858327413,16.18739024052588,-9999,431838.6578045,0.6769561767578125,0.3638763427734375,-0.04583740234375,1,0.95,5
2019-10-22 14:32:44.702 -0400,196,1571769164.375139,33.99201318734634,-81.02925239430168,71.8604,1.202382,344.6104586680379,7.860163858327413,16.18739024052588,-9999,431838.6977875,0.636383056640625,0.318450927734375,0.0183563232421875,1,0.95,5
2019-10-22 14:32:44.742 -0400,197,1571769164.375139,33.99201318734634,-81.02925239430168,71.8604,1.202382,344.6104586680379,7.860163858327413,16.18739024052588,-9999,431838.7377705,0.64959716796875,0.26318359375,0.024749755859375,1,0.95,5
2019-10-22 14:32:44.782 -0400,198,1571769164.375139,33.99201318734634,-81.02925239430168,71.8604,1.202382,344.6104586680379,7.860163858327413,16.18739024052588,-9999,431838.7777535,0.742950439453125,0.276702880859375,0.039093017578125,1,0.95,5
2019-10-22 14:32:44.822 -0400,199,1571769164.375139,33.99201318734634,-81.02925239430168,71.8604,1.202382,344.6104586680379,7.860163858327413,16.18739024052588,-9999,431838.8177365,0.9525604248046875,0.3502960205078125,0.0007781982421875,1,0.95,5
2019-10-22 14:32:44.869 -0400,200,1571769164.375139,33.99201318734634,-81.02925239430168,71.8604,1.202382,344.6104586680379,7.860163858327413,16.18739024052588,-9999,431838.8577195,1.136474609375,0.3797760009765625,-0.0406951904296875,1,0.95,5
2019-10-22 14:32:44.902 -0400,201,1571769164.375139,33.99201318734634,-81.02925239430168,71.8604,1.202382,344.6104586680379,7.860163858327413,16.18739024052588,-9999,431838.8977025,1.42901611328125,0.447418212890625,-0.0562591552734375,1,0.95,5
2019-10-22 14:32:44.942 -0400,202,1571769164.375139,33.99201318734634,-81.02925239430168,71.8604,1.202382,344.6104586680379,7.860163858327413,16.18739024052588,-9999,431838.9376855,1.229904174804688,0.450439453125,-0.1559906005859375,1,0.95,5
2019-10-22 14:32:44.982 -0400,203,1571769164.375139,33.99201318734634,-81.02925239430168,71.8604,1.202382,344.6104586680379,7.860163858327413,16.18739024052588,-9999,431838.9776685,1.105178833007812,0.502685546875,-0.3359527587890625,1,0.95,5
2019-10-22 14:32:45.022 -0400,204,1571769164.375139,33.99201318734634,-81.02925239430168,71.8604,1.202382,344.6104586680379,7.860163858327413,16.18739024052588,-9999,431839.01765275,1.157272338867188,0.3824310302734375,-0.2881317138671875,1,0.95,5
2019-10-22 14:32:45.062 -0400,205,1571769164.375139,33.99201318734634,-81.02925239430168,71.8604,1.202382,344.6104586680379,7.860163858327413,16.18739024052588,-9999,431839.05763575,1.126983642578125,0.2423858642578125,-0.145751953125,1,0.95,5
2019-10-22 14:32:45.102 -0400,206,1571769164.375139,33.99201318734634,-81.02925239430168,71.8604,1.202382,344.6104586680379,7.860163858327413,16.18739024052588,-9999,431839.09761875,1.048126220703125,0.1717987060546875,-0.2374420166015625,1,0.95,5
2019-10-22 14:32:45.142 -0400,207,1571769164.375139,33.99201318734634,-81.02925239430168,71.8604,1.202382,344.6104586680379,7.860163858327413,16.18739024052588,-9999,431839.13760175,0.8062286376953125,0.2287750244140625,-0.33087158203125,1,0.95,5
2019-10-22 14:32:45.182 -0400,208,1571769164.375139,33.99201318734634,-81.02925239430168,71.8604,1.202382,344.6104586680379,7.860163858327413,16.18739024052588,-9999,431839.17758575,0.6065673828125,0.338836669921875,-0.2869873046875,1,0.95,5
2019-10-22 14:32:45.221 -0400,209,1571769164.375139,33.99201318734634,-81.02925239430168,71.8604,1.202382,344.6104586680379,7.860163858327413,16.18739024052588,-9999,431839.21756875,0.551666259765625,0.395111083984375,-0.281463623046875,1,0.95,5
2019-10-22 14:32:45.261 -0400,210,1571769164.375139,33.99201318734634,-81.02925239430168,71.8604,1.202382,344.6104586680379,7.860163858327413,16.18739024052588,-9999,431839.2575517501,0.5921478271484375,0.40093994140625,-0.262908935546875,1,0.95,5
2019-10-22 14:32:45.302 -0400,211,1571769164.375139,33.99201318734634,-81.02925239430168,71.8604,1.202382,344.6104586680379,7.860163858327413,16.18739024052588,-9999,431839.29753475,0.752960205078125,0.42340087890625,-0.3060150146484375,1,0.95,5
2019-10-22 14:32:45.348 -0400,212,1571769164.375139,33.99201318734634,-81.02925239430168,71.8604,1.202382,344.6104586680379,7.860163858327413,16.18739024052588,-9999,431839.33751775,0.90283203125,0.3921966552734375,-0.300872802734375,1,0.95,5
2019-10-22 14:32:45.381 -0400,213,1571769164.375139,33.99201318734634,-81.02925239430168,71.8604,1.202382,344.6104586680379,7.860163858327413,16.18739024052588,-9999,431839.37750075,1.062911987304688,0.4446563720703125,-0.2967071533203125,1,0.95,5
2019-10-22 14:32:45.421 -0400,214,1571769164.375139,33.99201318734634,-81.02925239430168,71.8604,1.202382,344.6104586680379,7.860163858327413,16.18739024052588,-9999,431839.41748375,1.19696044921875,0.487457275390625,-0.28570556640625,1,0.95,5
2019-10-22 14:32:45.461 -0400,215,1571769164.375139,33.99201318734634,-81.02925239430168,71.8604,1.202382,344.6104586680379,7.860163858327413,16.18739024052588,-9999,431839.45746675,1.331710815429688,0.5932159423828125,-0.359100341796875,1,0.95,5
2019-10-22 14:32:45.501 -0400,216,1571769164.375139,33.99201318734634,-81.02925239430168,71.8604,1.202382,344.6104586680379,7.860163858327413,16.18739024052588,-9999,431839.49744975,0.9624176025390625,0.5426025390625,-0.4111785888671875,1,0.95,5
2019-10-22 14:32:45.559 -0400,217,1571769164.375139,33.99201318734634,-81.02925239430168,71.8604,1.202382,344.6104586680379,7.860163858327413,16.18739024052588,-9999,431839.53743275,1.234130859375,0.5979766845703125,-0.3433074951171875,1,0.95,5
2019-10-22 14:32:45.581 -0400,218,1571769165.324785,33.99201535629902,-81.02926015056654,71.95853,1.202382,346.1183730307709,11.10679674579127,20.22133106251409,-9999,431839.57741575,1.495361328125,0.39862060546875,-0.0155792236328125,1,0.95,5
2019-10-22 14:32:45.621 -0400,219,1571769165.324785,33.99201535629902,-81.02926015056654,71.95853,1.202382,346.1183730307709,11.10679674579127,20.22133106251409,-9999,431839.61739875,1.19580078125,0.1916961669921875,-0.04095458984375,1,0.95,5
2019-10-22 14:32:45.662 -0400,220,1571769165.324785,33.99201535629902,-81.02926015056654,71.95853,1.202382,346.1183730307709,11.10679674579127,20.22133106251409,-9999,431839.65738175,1.021026611328125,0.1378021240234375,-0.0867462158203125,1,0.95,5
2019-10-22 14:32:45.701 -0400,221,1571769165.324785,33.99201535629902,-81.02926015056654,71.95853,1.202382,346.1183730307709,11.10679674579127,20.22133106251409,-9999,431839.69736475,0.8544464111328125,0.2902374267578125,-0.059814453125,1,0.95,5
2019-10-22 14:32:45.741 -0400,222,1571769165.324785,33.99201535629902,-81.02926015056654,71.95853,1.202382,346.1183730307709,11.10679674579127,20.22133106251409,-9999,431839.7373477501,0.7961273193359375,0.4577484130859375,-0.044708251953125,1,0.95,5
2019-10-22 14:32:45.781 -0400,223,1571769165.324785,33.99201535629902,-81.02926015056654,71.95853,1.202382,346.1183730307709,11.10679674579127,20.22133106251409,-9999,431839.77733075,0.7259674072265625,0.43829345703125,-0.032501220703125,1,0.95,5
2019-10-22 14:32:45.821 -0400,224,1571769165.324785,33.99201535629902,-81.02926015056654,71.95853,1.202382,346.1183730307709,11.10679674579127,20.22133106251409,-9999,431839.81731375,0.7339935302734375,0.354156494140625,0.0153350830078125,1,0.95,5
2019-10-22 14:32:45.870 -0400,225,1571769165.324785,33.99201535629902,-81.02926015056654,71.95853,1.202382,346.1183730307709,11.10679674579127,20.22133106251409,-9999,431839.85729675,0.7832183837890625,0.3030242919921875,0.0333251953125,1,0.95,5
2019-10-22 14:32:45.901 -0400,226,1571769165.324785,33.99201535629902,-81.02926015056654,71.95853,1.202382,346.1183730307709,11.10679674579127,20.22133106251409,-9999,431839.89727975,0.9149169921875,0.28411865234375,0.041839599609375,1,0.95,5
2019-10-22 14:32:45.941 -0400,227,1571769165.324785,33.99201535629902,-81.02926015056654,71.95853,1.202382,346.1183730307709,11.10679674579127,20.22133106251409,-9999,431839.93726275,0.9993743896484375,0.3022308349609375,0.00616455078125,1,0.95,5
2019-10-22 14:32:45.981 -0400,228,1571769165.324785,33.99201535629902,-81.02926015056654,71.95853,1.202382,346.1183730307709,11.10679674579127,20.22133106251409,-9999,431839.97724575,1.142776489257812,0.4024200439453125,-0.0472564697265625,1,0.95,5
2019-10-22 14:32:46.021 -0400,229,1571769165.324785,33.99201535629902,-81.02926015056654,71.95853,1.202382,346.1183730307709,11.10679674579127,20.22133106251409,-9999,431840.017228625,1.174362182617188,0.43603515625,-0.11456298828125,1,0.95,5
2019-10-22 14:32:46.061 -0400,230,1571769165.324785,33.99201535629902,-81.02926015056654,71.95853,1.202382,346.1183730307709,11.10679674579127,20.22133106251409,-9999,431840.057211625,0.8904266357421875,0.440093994140625,-0.2343292236328125,1,0.95,5
2019-10-22 14:32:46.101 -0400,231,1571769165.324785,33.99201535629902,-81.02926015056654,71.95853,1.202382,346.1183730307709,11.10679674579127,20.22133106251409,-9999,431840.097194625,1.041839599609375,0.377685546875,-0.283782958984375,1,0.95,5
2019-10-22 14:32:46.141 -0400,232,1571769165.324785,33.99201535629902,-81.02926015056654,71.95853,1.202382,346.1183730307709,11.10679674579127,20.22133106251409,-9999,431840.137177625,1.3287353515625,0.4690399169921875,-0.24169921875,1,0.95,5
2019-10-22 14:32:46.181 -0400,233,1571769165.324785,33.99201535629902,-81.02926015056654,71.95853,1.202382,346.1183730307709,11.10679674579127,20.22133106251409,-9999,431840.1771606251,1.056777954101562,0.313934326171875,-0.2809295654296875,1,0.95,5
2019-10-22 14:32:46.221 -0400,234,1571769165.324785,33.99201535629902,-81.02926015056654,71.95853,1.202382,346.1183730307709,11.10679674579127,20.22133106251409,-9999,431840.217143625,0.8142547607421875,0.22735595703125,-0.3378143310546875,1,0.95,5
2019-10-22 14:32:46.261 -0400,235,1571769165.324785,33.99201535629902,-81.02926015056654,71.95853,1.202382,346.1183730307709,11.10679674579127,20.22133106251409,-9999,431840.257126625,0.770721435546875,0.4104461669921875,-0.3108978271484375,1,0.95,5
2019-10-22 14:32:46.301 -0400,236,1571769165.324785,33.99201535629902,-81.02926015056654,71.95853,1.202382,346.1183730307709,11.10679674579127,20.22133106251409,-9999,431840.297109625,0.77294921875,0.3250274658203125,-0.3193817138671875,1,0.95,5
2019-10-22 14:32:46.341 -0400,237,1571769165.324785,33.99201535629902,-81.02926015056654,71.95853,1.202382,346.1183730307709,11.10679674579127,20.22133106251409,-9999,431840.337092625,0.7670745849609375,0.4177093505859375,-0.3651580810546875,1,0.95,5
2019-10-22 14:32:46.381 -0400,238,1571769165.324785,33.99201535629902,-81.02926015056654,71.95853,1.202382,346.1183730307709,11.10679674579127,20.22133106251409,-9999,431840.377075625,0.7991943359375,0.4176177978515625,-0.35546875,1,0.95,5
2019-10-22 14:32:46.421 -0400,239,1571769165.324785,33.99201535629902,-81.02926015056654,71.95853,1.202382,346.1183730307709,11.10679674579127,20.22133106251409,-9999,431840.417058625,0.8745880126953125,0.4037017822265625,-0.3306884765625,1,0.95,5
2019-10-22 14:32:46.461 -0400,240,1571769165.324785,33.99201535629902,-81.02926015056654,71.95853,1.202382,346.1183730307709,11.10679674579127,20.22133106251409,-9999,431840.457041625,1.010757446289062,0.4484405517578125,-0.3267364501953125,1,0.95,5
2019-10-22 14:32:46.501 -0400,241,1571769165.324785,33.99201535629902,-81.02926015056654,71.95853,1.202382,346.1183730307709,11.10679674579127,20.22133106251409,-9999,431840.497024625,1.262344360351562,0.5028533935546875,-0.3321990966796875,1,0.95,5
2019-10-22 14:32:46.541 -0400,242,1571769165.324785,33.99201535629902,-81.02926015056654,71.95853,1.202382,346.1183730307709,11.10679674579127,20.22133106251409,-9999,431840.537007625,1.472686767578125,0.5754852294921875,-0.3491058349609375,1,0.95,5
2019-10-22 14:32:46.581 -0400,243,1571769165.324785,33.99201535629902,-81.02926015056654,71.95853,1.202382,346.1183730307709,11.10679674579127,20.22133106251409,-9999,431840.576990625,0.9816131591796875,0.48382568359375,-0.319122314453125,1,0.95,5
2019-10-22 14:32:46.621 -0400,244,1571769166.274785,33.99202308954661,-81.02927476201766,72.03374,1.202382,333.1905662119444,11.39981504600143,19.1135513160183,-9999,431840.616973625,1.02978515625,0.4174957275390625,-0.219879150390625,1,0.95,5
2019-10-22 14:32:46.661 -0400,245,1571769166.274785,33.99202308954661,-81.02927476201766,72.03374,1.202382,333.1905662119444,11.39981504600143,19.1135513160183,-9999,431840.6569566251,1.393417358398438,0.3915252685546875,-0.125885009765625,1,0.95,5
2019-10-22 14:32:46.701 -0400,246,1571769166.274785,33.99202308954661,-81.02927476201766,72.03374,1.202382,333.1905662119444,11.39981504600143,19.1135513160183,-9999,431840.696940625,1.201705932617188,0.2659454345703125,-0.0720062255859375,1,0.95,5
2019-10-22 14:32:46.742 -0400,247,1571769166.274785,33.99202308954661,-81.02927476201766,72.03374,1.202382,333.1905662119444,11.39981504600143,19.1135513160183,-9999,431840.7369236251,1.001968383789062,0.265228271484375,-0.068328857421875,1,0.95,5
2019-10-22 14:32:46.781 -0400,248,1571769166.274785,33.99202308954661,-81.02927476201766,72.03374,1.202382,333.1905662119444,11.39981504600143,19.1135513160183,-9999,431840.776906625,0.861724853515625,0.324127197265625,-0.0457000732421875,1,0.95,5
2019-10-22 14:32:46.821 -0400,249,1571769166.274785,33.99202308954661,-81.02927476201766,72.03374,1.202382,333.1905662119444,11.39981504600143,19.1135513160183,-9999,431840.816889625,0.76055908203125,0.382080078125,-0.0534515380859375,1,0.95,5
2019-10-22 14:32:46.861 -0400,250,1571769166.274785,33.99202308954661,-81.02927476201766,72.03374,1.202382,333.1905662119444,11.39981504600143,19.1135513160183,-9999,431840.856872625,0.737701416015625,0.3548126220703125,-0.009185791015625,1,0.95,5
2019-10-22 14:32:46.901 -0400,251,1571769166.274785,33.99202308954661,-81.02927476201766,72.03374,1.202382,333.1905662119444,11.39981504600143,19.1135513160183,-9999,431840.896855625,0.68505859375,0.2954254150390625,0.0231170654296875,1,0.95,5
2019-10-22 14:32:46.941 -0400,252,1571769166.274785,33.99202308954661,-81.02927476201766,72.03374,1.202382,333.1905662119444,11.39981504600143,19.1135513160183,-9999,431840.936838625,0.7198028564453125,0.2602386474609375,0.0319976806640625,1,0.95,5
2019-10-22 14:32:46.981 -0400,253,1571769166.274785,33.99202308954661,-81.02927476201766,72.03374,1.202382,333.1905662119444,11.39981504600143,19.1135513160183,-9999,431840.976821625,0.9145660400390625,0.2972412109375,0.0013275146484375,1,0.95,5
2019-10-22 14:32:47.021 -0400,254,1571769166.274785,33.99202308954661,-81.02927476201766,72.03374,1.202382,333.1905662119444,11.39981504600143,19.1135513160183,-9999,431841.0168041667,1.101577758789062,0.3399810791015625,-0.018035888671875,1,0.95,5
2019-10-22 14:32:47.061 -0400,255,1571769166.274785,33.99202308954661,-81.02927476201766,72.03374,1.202382,333.1905662119444,11.39981504600143,19.1135513160183,-9999,431841.0567871667,1.238449096679688,0.40283203125,-0.0714111328125,1,0.95,5
2019-10-22 14:32:47.101 -0400,256,1571769166.274785,33.99202308954661,-81.02927476201766,72.03374,1.202382,333.1905662119444,11.39981504600143,19.1135513160183,-9999,431841.0967701667,1.334030151367188,0.4449920654296875,-0.1233367919921875,1,0.95,5
2019-10-22 14:32:47.141 -0400,257,1571769166.274785,33.99202308954661,-81.02927476201766,72.03374,1.202382,333.1905662119444,11.39981504600143,19.1135513160183,-9999,431841.1367531667,0.998321533203125,0.4320526123046875,-0.2544097900390625,1,0.95,5
2019-10-22 14:32:47.181 -0400,258,1571769166.274785,33.99202308954661,-81.02927476201766,72.03374,1.202382,333.1905662119444,11.39981504600143,19.1135513160183,-9999,431841.1767361667,1.142410278320312,0.4139862060546875,-0.3358917236328125,1,0.95,5
2019-10-22 14:32:47.221 -0400,259,1571769166.274785,33.99202308954661,-81.02927476201766,72.03374,1.202382,333.1905662119444,11.39981504600143,19.1135513160183,-9999,431841.2167191667,1.173385620117188,0.414825439453125,-0.29803466796875,1,0.95,5
2019-10-22 14:32:47.261 -0400,260,1571769166.274785,33.99202308954661,-81.02927476201766,72.03374,1.202382,333.1905662119444,11.39981504600143,19.1135513160183,-9999,431841.2567021667,1.016998291015625,0.2745208740234375,-0.2642059326171875,1,0.95,5
2019-10-22 14:32:47.301 -0400,261,1571769166.274785,33.99202308954661,-81.02927476201766,72.03374,1.202382,333.1905662119444,11.39981504600143,19.1135513160183,-9999,431841.2966851667,0.8164215087890625,0.1943511962890625,-0.2734375,1,0.95,5
2019-10-22 14:32:47.350 -0400,262,1571769166.274785,33.99202308954661,-81.02927476201766,72.03374,1.202382,333.1905662119444,11.39981504600143,19.1135513160183,-9999,431841.3366681667,0.6844024658203125,0.334686279296875,-0.2687225341796875,1,0.95,5
2019-10-22 14:32:47.381 -0400,263,1571769166.274785,33.99202308954661,-81.02927476201766,72.03374,1.202382,333.1905662119444,11.39981504600143,19.1135513160183,-9999,431841.3766511667,0.632904052734375,0.3464508056640625,-0.2721710205078125,1,0.95,5
2019-10-22 14:32:47.421 -0400,264,1571769166.274785,33.99202308954661,-81.02927476201766,72.03374,1.202382,333.1905662119444,11.39981504600143,19.1135513160183,-9999,431841.4166341667,0.692169189453125,0.4431915283203125,-0.277801513671875,1,0.95,5
2019-10-22 14:32:47.461 -0400,265,1571769166.274785,33.99202308954661,-81.02927476201766,72.03374,1.202382,333.1905662119444,11.39981504600143,19.1135513160183,-9999,431841.4566171667,0.868804931640625,0.4938812255859375,-0.33953857421875,1,0.95,5
2019-10-22 14:32:47.501 -0400,266,1571769166.274785,33.99202308954661,-81.02927476201766,72.03374,1.202382,333.1905662119444,11.39981504600143,19.1135513160183,-9999,431841.4966001667,0.9005279541015625,0.4298553466796875,-0.32598876953125,1,0.95,5
2019-10-22 14:32:47.540 -0400,267,1571769166.274785,33.99202308954661,-81.02927476201766,72.03374,1.202382,333.1905662119444,11.39981504600143,19.1135513160183,-9999,431841.5365831667,0.966583251953125,0.441253662109375,-0.3319854736328125,1,0.95,5
2019-10-22 14:32:47.581 -0400,268,1571769167.224852,33.99204367132349,-81.02927606338319,72.07556,1.228503,346.5426498345715,6.838525968937265,10.72405086274785,-9999,431841.5765661667,1.076431274414062,0.4939727783203125,-0.338897705078125,1,0.95,5
2019-10-22 14:32:47.621 -0400,269,1571769167.224852,33.99204367132349,-81.02927606338319,72.07556,1.228503,346.5426498345715,6.838525968937265,10.72405086274785,-9999,431841.6165491667,1.236007690429688,0.510223388671875,-0.3316192626953125,1,0.95,5
2019-10-22 14:32:47.661 -0400,270,1571769167.224852,33.99204367132349,-81.02927606338319,72.07556,1.228503,346.5426498345715,6.838525968937265,10.72405086274785,-9999,431841.6565321667,1.143310546875,0.570892333984375,-0.3694000244140625,1,0.95,5
2019-10-22 14:32:47.701 -0400,271,1571769167.224852,33.99204367132349,-81.02927606338319,72.07556,1.228503,346.5426498345715,6.838525968937265,10.72405086274785,-9999,431841.6965151667,0.8671112060546875,0.5105438232421875,-0.3497772216796875,1,0.95,5
2019-10-22 14:32:47.740 -0400,272,1571769167.224852,33.99204367132349,-81.02927606338319,72.07556,1.228503,346.5426498345715,6.838525968937265,10.72405086274785,-9999,431841.7364981667,1.394943237304688,0.5238037109375,-0.279205322265625,1,0.95,5
2019-10-22 14:32:47.780 -0400,273,1571769167.224852,33.99204367132349,-81.02927606338319,72.07556,1.228503,346.5426498345715,6.838525968937265,10.72405086274785,-9999,431841.7764811667,1.399383544921875,0.302032470703125,-0.1199493408203125,1,0.95,5
2019-10-22 14:32:47.820 -0400,274,1571769167.224852,33.99204367132349,-81.02927606338319,72.07556,1.228503,346.5426498345715,6.838525968937265,10.72405086274785,-9999,431841.8164641667,1.2271728515625,0.194976806640625,-0.150604248046875,1,0.95,5
2019-10-22 14:32:47.875 -0400,275,1571769167.224852,33.99204367132349,-81.02927606338319,72.07556,1.228503,346.5426498345715,6.838525968937265,10.72405086274785,-9999,431841.8564471667,1.019805908203125,0.1783599853515625,-0.1190338134765625,1,0.95,5
2019-10-22 14:32:47.900 -0400,276,1571769167.224852,33.99204367132349,-81.02927606338319,72.07556,1.228503,346.5426498345715,6.838525968937265,10.72405086274785,-9999,431841.8964301667,0.8636016845703125,0.354400634765625,-0.0906982421875,1,0.95,5
2019-10-22 14:32:47.941 -0400,277,1571769167.224852,33.99204367132349,-81.02927606338319,72.07556,1.228503,346.5426498345715,6.838525968937265,10.72405086274785,-9999,431841.9364131667,0.7472076416015625,0.3958587646484375,-0.1083984375,1,0.95,5
2019-10-22 14:32:47.980 -0400,278,1571769167.224852,33.99204367132349,-81.02927606338319,72.07556,1.228503,346.5426498345715,6.838525968937265,10.72405086274785,-9999,431841.9763961667,0.6661834716796875,0.34552001953125,-0.066009521484375,1,0.95,5
2019-10-22 14:32:48.020 -0400,279,1571769167.224852,33.99204367132349,-81.02927606338319,72.07556,1.228503,346.5426498345715,6.838525968937265,10.72405086274785,-9999,431842.016378875,0.625885009765625,0.2634429931640625,-0.0408935546875,1,0.95,5
2019-10-22 14:32:48.060 -0400,280,1571769167.224852,33.99204367132349,-81.02927606338319,72.07556,1.228503,346.5426498345715,6.838525968937265,10.72405086274785,-9999,431842.056361875,0.6772003173828125,0.23797607421875,-0.0239715576171875,1,0.95,5
2019-10-22 14:32:48.100 -0400,281,1571769167.224852,33.99204367132349,-81.02927606338319,72.07556,1.228503,346.5426498345715,6.838525968937265,10.72405086274785,-9999,431842.096344875,0.7835693359375,0.2706146240234375,-0.035736083984375,1,0.95,5
2019-10-22 14:32:48.140 -0400,282,1571769167.224852,33.99204367132349,-81.02927606338319,72.07556,1.228503,346.5426498345715,6.838525968937265,10.72405086274785,-9999,431842.136327875,1.002838134765625,0.3418121337890625,-0.0882720947265625,1,0.95,5
2019-10-22 14:32:48.180 -0400,283,1571769167.224852,33.99204367132349,-81.02927606338319,72.07556,1.228503,346.5426498345715,6.838525968937265,10.72405086274785,-9999,431842.176310875,1.0772705078125,0.387115478515625,-0.162933349609375,1,0.95,5
2019-10-22 14:32:48.220 -0400,284,1571769167.224852,33.99204367132349,-81.02927606338319,72.07556,1.228503,346.5426498345715,6.838525968937265,10.72405086274785,-9999,431842.216293875,1.285980224609375,0.4374542236328125,-0.2149200439453125,1,0.95,5
2019-10-22 14:32:48.260 -0400,285,1571769167.224852,33.99204367132349,-81.02927606338319,72.07556,1.228503,346.5426498345715,6.838525968937265,10.72405086274785,-9999,431842.256276875,1.183029174804688,0.4260711669921875,-0.286895751953125,1,0.95,5
2019-10-22 14:32:48.300 -0400,286,1571769167.224852,33.99204367132349,-81.02927606338319,72.07556,1.228503,346.5426498345715,6.838525968937265,10.72405086274785,-9999,431842.296259875,1.323013305664062,0.41241455078125,-0.33251953125,1,0.95,5
2019-10-22 14:32:48.340 -0400,287,1571769167.224852,33.99204367132349,-81.02927606338319,72.07556,1.228503,346.5426498345715,6.838525968937265,10.72405086274785,-9999,431842.336243875,1.456329345703125,0.4874114990234375,-0.322723388671875,1,0.95,5
2019-10-22 14:32:48.380 -0400,288,1571769167.224852,33.99204367132349,-81.02927606338319,72.07556,1.228503,346.5426498345715,6.838525968937265,10.72405086274785,-9999,431842.376226875,1.098876953125,0.27606201171875,-0.2520294189453125,1,0.95,5
2019-10-22 14:32:48.420 -0400,289,1571769168.174851,33.99207220714641,-81.02927474885431,72.15921,1.228503,343.1627738378187,7.329179223106549,10.88274199795146,-9999,431842.416209875,0.8407135009765625,0.232025146484375,-0.24951171875,1,0.95,5
2019-10-22 14:32:48.460 -0400,290,1571769168.174851,33.99207220714641,-81.02927474885431,72.15921,1.228503,343.1627738378187,7.329179223106549,10.88274199795146,-9999,431842.456192875,0.761444091796875,0.295806884765625,-0.2254180908203125,1,0.95,5
2019-10-22 14:32:48.500 -0400,291,1571769168.174851,33.99207220714641,-81.02927474885431,72.15921,1.228503,343.1627738378187,7.329179223106549,10.88274199795146,-9999,431842.496175875,0.6573638916015625,0.46978759765625,-0.2088623046875,1,0.95,5
2019-10-22 14:32:48.540 -0400,292,1571769168.174851,33.99207220714641,-81.02927474885431,72.15921,1.228503,343.1627738378187,7.329179223106549,10.88274199795146,-9999,431842.536158875,0.620391845703125,0.5740966796875,-0.1979217529296875,1,0.95,5
2019-10-22 14:32:48.580 -0400,293,1571769168.174851,33.99207220714641,-81.02927474885431,72.15921,1.228503,343.1627738378187,7.329179223106549,10.88274199795146,-9999,431842.576141875,0.7039794921875,0.5899505615234375,-0.2370452880859375,1,0.95,5
2019-10-22 14:32:48.620 -0400,294,1571769168.174851,33.99207220714641,-81.02927474885431,72.15921,1.228503,343.1627738378187,7.329179223106549,10.88274199795146,-9999,431842.616124875,0.8492889404296875,0.5513458251953125,-0.3207855224609375,1,0.95,5
2019-10-22 14:32:48.660 -0400,295,1571769168.174851,33.99207220714641,-81.02927474885431,72.15921,1.228503,343.1627738378187,7.329179223106549,10.88274199795146,-9999,431842.6561078751,0.9392852783203125,0.5033416748046875,-0.32000732421875,1,0.95,5
2019-10-22 14:32:48.700 -0400,296,1571769168.174851,33.99207220714641,-81.02927474885431,72.15921,1.228503,343.1627738378187,7.329179223106549,10.88274199795146,-9999,431842.696090875,1.147872924804688,0.477325439453125,-0.3431854248046875,1,0.95,5
2019-10-22 14:32:48.740 -0400,297,1571769168.174851,33.99207220714641,-81.02927474885431,72.15921,1.228503,343.1627738378187,7.329179223106549,10.88274199795146,-9999,431842.736073875,1.44744873046875,0.53826904296875,-0.355743408203125,1,0.95,5
2019-10-22 14:32:48.780 -0400,298,1571769168.174851,33.99207220714641,-81.02927474885431,72.15921,1.228503,343.1627738378187,7.329179223106549,10.88274199795146,-9999,431842.776056875,1.284912109375,0.5306243896484375,-0.389129638671875,1,0.95,5
2019-10-22 14:32:48.820 -0400,299,1571769168.174851,33.99207220714641,-81.02927474885431,72.15921,1.228503,343.1627738378187,7.329179223106549,10.88274199795146,-9999,431842.816039875,1.037643432617188,0.3521575927734375,-0.245361328125,1,0.95,5
2019-10-22 14:32:48.865 -0400,300,1571769168.174851,33.99207220714641,-81.02927474885431,72.15921,1.228503,343.1627738378187,7.329179223106549,10.88274199795146,-9999,431842.856022875,1.270416259765625,0.3680572509765625,-0.18798828125,1,0.95,5
2019-10-22 14:32:48.902 -0400,301,1571769168.174851,33.99207220714641,-81.02927474885431,72.15921,1.228503,343.1627738378187,7.329179223106549,10.88274199795146,-9999,431842.896005875,1.455825805664062,0.3409271240234375,-0.1114959716796875,1,0.95,5
2019-10-22 14:32:48.940 -0400,302,1571769168.174851,33.99207220714641,-81.02927474885431,72.15921,1.228503,343.1627738378187,7.329179223106549,10.88274199795146,-9999,431842.935988875,1.200958251953125,0.2769012451171875,-0.096221923828125,1,0.95,5
2019-10-22 14:32:48.980 -0400,303,1571769168.174851,33.99207220714641,-81.02927474885431,72.15921,1.228503,343.1627738378187,7.329179223106549,10.88274199795146,-9999,431842.975971875,0.9637908935546875,0.2730560302734375,-0.089385986328125,1,0.95,5
2019-10-22 14:32:49.020 -0400,304,1571769168.174851,33.99207220714641,-81.02927474885431,72.15921,1.228503,343.1627738378187,7.329179223106549,10.88274199795146,-9999,431843.01595375,0.74603271484375,0.3223419189453125,-0.0737152099609375,1,0.95,5
2019-10-22 14:32:49.060 -0400,305,1571769168.174851,33.99207220714641,-81.02927474885431,72.15921,1.228503,343.1627738378187,7.329179223106549,10.88274199795146,-9999,431843.05593675,0.6151580810546875,0.345855712890625,-0.0466766357421875,1,0.95,5
2019-10-22 14:32:49.100 -0400,306,1571769168.174851,33.99207220714641,-81.02927474885431,72.15921,1.228503,343.1627738378187,7.329179223106549,10.88274199795146,-9999,431843.09591975,0.56353759765625,0.3235321044921875,-0.0192108154296875,1,0.95,5
2019-10-22 14:32:49.140 -0400,307,1571769168.174851,33.99207220714641,-81.02927474885431,72.15921,1.228503,343.1627738378187,7.329179223106549,10.88274199795146,-9999,431843.13590275,0.585540771484375,0.2845001220703125,-0.0029449462890625,1,0.95,5
2019-10-22 14:32:49.180 -0400,308,1571769168.174851,33.99207220714641,-81.02927474885431,72.15921,1.228503,343.1627738378187,7.329179223106549,10.88274199795146,-9999,431843.17588575,0.700408935546875,0.27337646484375,0.00299072265625,1,0.95,5
2019-10-22 14:32:49.220 -0400,309,1571769168.174851,33.99207220714641,-81.02927474885431,72.15921,1.228503,343.1627738378187,7.329179223106549,10.88274199795146,-9999,431843.21586875,0.940948486328125,0.3128509521484375,-0.042938232421875,1,0.95,5
2019-10-22 14:32:49.260 -0400,310,1571769168.174851,33.99207220714641,-81.02927474885431,72.15921,1.228503,343.1627738378187,7.329179223106549,10.88274199795146,-9999,431843.25585175,1.163421630859375,0.358612060546875,-0.0603790283203125,1,0.95,5
2019-10-22 14:32:49.300 -0400,311,1571769168.174851,33.99207220714641,-81.02927474885431,72.15921,1.228503,343.1627738378187,7.329179223106549,10.88274199795146,-9999,431843.2958347501,1.366256713867188,0.3804168701171875,-0.0774078369140625,1,0.95,5
2019-10-22 14:32:49.340 -0400,312,1571769168.174851,33.99207220714641,-81.02927474885431,72.15921,1.228503,343.1627738378187,7.329179223106549,10.88274199795146,-9999,431843.33581775,1.403533935546875,0.4073028564453125,-0.130279541015625,1,0.95,5
2019-10-22 14:32:49.380 -0400,313,1571769168.174851,33.99207220714641,-81.02927474885431,72.15921,1.228503,343.1627738378187,7.329179223106549,10.88274199795146,-9999,431843.37580075,1.06402587890625,0.4876708984375,-0.304351806640625,1,0.95,5
2019-10-22 14:32:49.422 -0400,314,1571769169.124447,33.9920873809192,-81.02927315376051,72.24728,1.144517,338.6764843853301,11.84842299245128,17.22863132935887,-9999,431843.41578375,1.154693603515625,0.46929931640625,-0.379302978515625,1,0.95,5
2019-10-22 14:32:49.460 -0400,315,1571769169.124447,33.9920873809192,-81.02927315376051,72.24728,1.144517,338.6764843853301,11.84842299245128,17.22863132935887,-9999,431843.45576675,1.189056396484375,0.4682464599609375,-0.298858642578125,1,0.95,5
2019-10-22 14:32:49.500 -0400,316,1571769169.124447,33.9920873809192,-81.02927315376051,72.24728,1.144517,338.6764843853301,11.84842299245128,17.22863132935887,-9999,431843.49574975,1.007415771484375,0.2816162109375,-0.270263671875,1,0.95,5
2019-10-22 14:32:49.540 -0400,317,1571769169.124447,33.9920873809192,-81.02927315376051,72.24728,1.144517,338.6764843853301,11.84842299245128,17.22863132935887,-9999,431843.53573275,0.763824462890625,0.203643798828125,-0.27215576171875,1,0.95,5
2019-10-22 14:32:49.580 -0400,318,1571769169.124447,33.9920873809192,-81.02927315376051,72.24728,1.144517,338.6764843853301,11.84842299245128,17.22863132935887,-9999,431843.57571575,0.6548309326171875,0.268096923828125,-0.2745513916015625,1,0.95,5
2019-10-22 14:32:49.620 -0400,319,1571769169.124447,33.9920873809192,-81.02927315376051,72.24728,1.144517,338.6764843853301,11.84842299245128,17.22863132935887,-9999,431843.61569875,0.5970306396484375,0.341552734375,-0.2657928466796875,1,0.95,5
2019-10-22 14:32:49.660 -0400,320,1571769169.124447,33.9920873809192,-81.02927315376051,72.24728,1.144517,338.6764843853301,11.84842299245128,17.22863132935887,-9999,431843.65568175,0.662994384765625,0.434539794921875,-0.290130615234375,1,0.95,5
2019-10-22 14:32:49.700 -0400,321,1571769169.124447,33.9920873809192,-81.02927315376051,72.24728,1.144517,338.6764843853301,11.84842299245128,17.22863132935887,-9999,431843.69566475,0.7830963134765625,0.4471435546875,-0.32421875,1,0.95,5
2019-10-22 14:32:49.740 -0400,322,1571769169.124447,33.9920873809192,-81.02927315376051,72.24728,1.144517,338.6764843853301,11.84842299245128,17.22863132935887,-9999,431843.73564775,0.8692474365234375,0.4288330078125,-0.3410186767578125,1,0.95,5
2019-10-22 14:32:49.780 -0400,323,1571769169.124447,33.9920873809192,-81.02927315376051,72.24728,1.144517,338.6764843853301,11.84842299245128,17.22863132935887,-9999,431843.7756307501,1.01373291015625,0.4159393310546875,-0.336944580078125,1,0.95,5
2019-10-22 14:32:49.828 -0400,324,1571769169.124447,33.9920873809192,-81.02927315376051,72.24728,1.144517,338.6764843853301,11.84842299245128,17.22863132935887,-9999,431843.81561375,1.120941162109375,0.451812744140625,-0.338409423828125,1,0.95,5
2019-10-22 14:32:49.860 -0400,325,1571769169.124447,33.9920873809192,-81.02927315376051,72.24728,1.144517,338.6764843853301,11.84842299245128,17.22863132935887,-9999,431843.85559675,1.336441040039062,0.4810333251953125,-0.309539794921875,1,0.95,5
2019-10-22 14:32:49.900 -0400,326,1571769169.124447,33.9920873809192,-81.02927315376051,72.24728,1.144517,338.6764843853301,11.84842299245128,17.22863132935887,-9999,431843.89557975,1.264617919921875,0.5295257568359375,-0.3925933837890625,1,0.95,5
2019-10-22 14:32:49.940 -0400,327,1571769169.124447,33.9920873809192,-81.02927315376051,72.24728,1.144517,338.6764843853301,11.84842299245128,17.22863132935887,-9999,431843.93556375,1.056488037109375,0.4076385498046875,-0.2532806396484375,1,0.95,5
2019-10-22 14:32:49.979 -0400,328,1571769169.124447,33.9920873809192,-81.02927315376051,72.24728,1.144517,338.6764843853301,11.84842299245128,17.22863132935887,-9999,431843.97554675,1.167251586914062,0.3121490478515625,-0.1139678955078125,1,0.95,5
2019-10-22 14:32:50.020 -0400,329,1571769169.124447,33.9920873809192,-81.02927315376051,72.24728,1.144517,338.6764843853301,11.84842299245128,17.22863132935887,-9999,431844.015531,1.25701904296875,0.3180694580078125,-0.100677490234375,1,0.95,5
2019-10-22 14:32:50.059 -0400,330,1571769169.124447,33.9920873809192,-81.02927315376051,72.24728,1.144517,338.6764843853301,11.84842299245128,17.22863132935887,-9999,431844.055514,1.092849731445312,0.281707763671875,-0.0650482177734375,1,0.95,5
2019-10-22 14:32:50.100 -0400,331,1571769169.124447,33.9920873809192,-81.02927315376051,72.24728,1.144517,338.6764843853301,11.84842299245128,17.22863132935887,-9999,431844.095497,0.9294586181640625,0.3309326171875,-0.066162109375,1,0.95,5
2019-10-22 14:32:50.139 -0400,332,1571769169.124447,33.9920873809192,-81.02927315376051,72.24728,1.144517,338.6764843853301,11.84842299245128,17.22863132935887,-9999,431844.13548,0.8794708251953125,0.3694000244140625,-0.056640625,1,0.95,5
2019-10-22 14:32:50.179 -0400,333,1571769169.124447,33.9920873809192,-81.02927315376051,72.24728,1.144517,338.6764843853301,11.84842299245128,17.22863132935887,-9999,431844.175463,0.7745513916015625,0.344024658203125,0.0045166015625,1,0.95,5
2019-10-22 14:32:50.219 -0400,334,1571769169.124447,33.9920873809192,-81.02927315376051,72.24728,1.144517,338.6764843853301,11.84842299245128,17.22863132935887,-9999,431844.215446,0.797088623046875,0.3094635009765625,0.022796630859375,1,0.95,5
2019-10-22 14:32:50.259 -0400,335,1571769169.124447,33.9920873809192,-81.02927315376051,72.24728,1.144517,338.6764843853301,11.84842299245128,17.22863132935887,-9999,431844.255429,0.781402587890625,0.271881103515625,0.0350341796875,1,0.95,5
2019-10-22 14:32:50.299 -0400,336,1571769169.124447,33.9920873809192,-81.02927315376051,72.24728,1.144517,338.6764843853301,11.84842299245128,17.22863132935887,-9999,431844.295412,0.813079833984375,0.2794342041015625,0.02459716796875,1,0.95,5
2019-10-22 14:32:50.339 -0400,337,1571769170.074446,33.99210129003776,-81.0292776543205,72.34723,1.30163,324.0866753470398,15.08128833986046,21.64637693427772,-9999,431844.335395,0.9413299560546875,0.320770263671875,-0.003814697265625,1,0.95,5
2019-10-22 14:32:50.379 -0400,338,1571769170.074446,33.99210129003776,-81.0292776543205,72.34723,1.30163,324.0866753470398,15.08128833986046,21.64637693427772,-9999,431844.375378,1.104339599609375,0.3934783935546875,-0.0462188720703125,1,0.95,5
2019-10-22 14:32:50.419 -0400,339,1571769170.074446,33.99210129003776,-81.0292776543205,72.34723,1.30163,324.0866753470398,15.08128833986046,21.64637693427772,-9999,431844.4153610001,1.162460327148438,0.43426513671875,-0.1253509521484375,1,0.95,5
2019-10-22 14:32:50.459 -0400,340,1571769170.074446,33.99210129003776,-81.0292776543205,72.34723,1.30163,324.0866753470398,15.08128833986046,21.64637693427772,-9999,431844.455344,1.231552124023438,0.407989501953125,-0.1599578857421875,1,0.95,5
2019-10-22 14:32:50.499 -0400,341,1571769170.074446,33.99210129003776,-81.0292776543205,72.34723,1.30163,324.0866753470398,15.08128833986046,21.64637693427772,-9999,431844.495327,1.022659301757812,0.4215240478515625,-0.3028564453125,1,0.95,5
2019-10-22 14:32:50.539 -0400,342,1571769170.074446,33.99210129003776,-81.0292776543205,72.34723,1.30163,324.0866753470398,15.08128833986046,21.64637693427772,-9999,431844.53531,1.142913818359375,0.359588623046875,-0.34185791015625,1,0.95,5
2019-10-22 14:32:50.579 -0400,343,1571769170.074446,33.99210129003776,-81.0292776543205,72.34723,1.30163,324.0866753470398,15.08128833986046,21.64637693427772,-9999,431844.575293,1.183334350585938,0.363525390625,-0.27984619140625,1,0.95,5
2019-10-22 14:32:50.619 -0400,344,1571769170.074446,33.99210129003776,-81.0292776543205,72.34723,1.30163,324.0866753470398,15.08128833986046,21.64637693427772,-9999,431844.6152760001,0.9904632568359375,0.22802734375,-0.2719573974609375,1,0.95,5
2019-10-22 14:32:50.659 -0400,345,1571769170.074446,33.99210129003776,-81.0292776543205,72.34723,1.30163,324.0866753470398,15.08128833986046,21.64637693427772,-9999,431844.655259,0.775726318359375,0.1824951171875,-0.358551025390625,1,0.95,5
2019-10-22 14:32:50.699 -0400,346,1571769170.074446,33.99210129003776,-81.0292776543205,72.34723,1.30163,324.0866753470398,15.08128833986046,21.64637693427772,-9999,431844.695242,0.6916046142578125,0.4367218017578125,-0.2998504638671875,1,0.95,5
2019-10-22 14:32:50.739 -0400,347,1571769170.074446,33.99210129003776,-81.0292776543205,72.34723,1.30163,324.0866753470398,15.08128833986046,21.64637693427772,-9999,431844.735225,0.661865234375,0.327484130859375,-0.2677764892578125,1,0.95,5
2019-10-22 14:32:50.779 -0400,348,1571769170.074446,33.99210129003776,-81.0292776543205,72.34723,1.30163,324.0866753470398,15.08128833986046,21.64637693427772,-9999,431844.775208,0.6879730224609375,0.4223480224609375,-0.323760986328125,1,0.95,5
2019-10-22 14:32:50.823 -0400,349,1571769170.074446,33.99210129003776,-81.0292776543205,72.34723,1.30163,324.0866753470398,15.08128833986046,21.64637693427772,-9999,431844.815191,0.7058563232421875,0.4183349609375,-0.3200836181640625,1,0.95,5
2019-10-22 14:32:50.859 -0400,350,1571769170.074446,33.99210129003776,-81.0292776543205,72.34723,1.30163,324.0866753470398,15.08128833986046,21.64637693427772,-9999,431844.855174,0.8448638916015625,0.3740692138671875,-0.3114776611328125,1,0.95,5
2019-10-22 14:32:50.899 -0400,351,1571769170.074446,33.99210129003776,-81.0292776543205,72.34723,1.30163,324.0866753470398,15.08128833986046,21.64637693427772,-9999,431844.895157,1.00390625,0.38128662109375,-0.304443359375,1,0.95,5
2019-10-22 14:32:50.939 -0400,352,1571769170.074446,33.99210129003776,-81.0292776543205,72.34723,1.30163,324.0866753470398,15.08128833986046,21.64637693427772,-9999,431844.93514,1.155105590820312,0.424835205078125,-0.274383544921875,1,0.95,5
2019-10-22 14:32:50.979 -0400,353,1571769170.074446,33.99210129003776,-81.0292776543205,72.34723,1.30163,324.0866753470398,15.08128833986046,21.64637693427772,-9999,431844.975123,1.278411865234375,0.48480224609375,-0.2919158935546875,1,0.95,5
2019-10-22 14:32:51.019 -0400,354,1571769170.074446,33.99210129003776,-81.0292776543205,72.34723,1.30163,324.0866753470398,15.08128833986046,21.64637693427772,-9999,431845.0151056667,1.059921264648438,0.5379180908203125,-0.3376922607421875,1,0.95,5
2019-10-22 14:32:51.059 -0400,355,1571769170.074446,33.99210129003776,-81.0292776543205,72.34723,1.30163,324.0866753470398,15.08128833986046,21.64637693427772,-9999,431845.0550886667,0.8205413818359375,0.5136566162109375,-0.3008880615234375,1,0.95,5
2019-10-22 14:32:51.099 -0400,356,1571769170.074446,33.99210129003776,-81.0292776543205,72.34723,1.30163,324.0866753470398,15.08128833986046,21.64637693427772,-9999,431845.0950716667,1.013473510742188,0.5095977783203125,-0.2778167724609375,1,0.95,5
2019-10-22 14:32:51.139 -0400,357,1571769170.074446,33.99210129003776,-81.0292776543205,72.34723,1.30163,324.0866753470398,15.08128833986046,21.64637693427772,-9999,431845.1350546667,1.233901977539062,0.3592376708984375,-0.116455078125,1,0.95,5
2019-10-22 14:32:51.179 -0400,358,1571769170.074446,33.99210129003776,-81.0292776543205,72.34723,1.30163,324.0866753470398,15.08128833986046,21.64637693427772,-9999,431845.1750376667,1.077423095703125,0.252593994140625,-0.092803955078125,1,0.95,5
2019-10-22 14:32:51.219 -0400,359,1571769170.074446,33.99210129003776,-81.0292776543205,72.34723,1.30163,324.0866753470398,15.08128833986046,21.64637693427772,-9999,431845.2150206667,1.02911376953125,0.277862548828125,-0.1302642822265625,1,0.95,5
2019-10-22 14:32:51.259 -0400,360,1571769170.074446,33.99210129003776,-81.0292776543205,72.34723,1.30163,324.0866753470398,15.08128833986046,21.64637693427772,-9999,431845.2550036667,0.93115234375,0.3377532958984375,-0.0894622802734375,1,0.95,5
2019-10-22 14:32:51.309 -0400,361,1571769170.074446,33.99210129003776,-81.0292776543205,72.34723,1.30163,324.0866753470398,15.08128833986046,21.64637693427772,-9999,431845.2949866667,0.813323974609375,0.3491363525390625,-0.0652923583984375,1,0.95,5
2019-10-22 14:32:51.339 -0400,362,1571769171.025198,33.99211041274727,-81.02928663917218,72.44816,1.173715,329.9725323064825,12.29258084734195,17.64647547123736,-9999,431845.3349696667,0.7867431640625,0.3342742919921875,-0.0755615234375,1,0.95,5
2019-10-22 14:32:51.379 -0400,363,1571769171.025198,33.99211041274727,-81.02928663917218,72.44816,1.173715,329.9725323064825,12.29258084734195,17.64647547123736,-9999,431845.3749526667,0.784088134765625,0.2987213134765625,-0.0394744873046875,1,0.95,5
2019-10-22 14:32:51.419 -0400,364,1571769171.025198,33.99211041274727,-81.02928663917218,72.44816,1.173715,329.9725323064825,12.29258084734195,17.64647547123736,-9999,431845.4149356667,0.8261566162109375,0.304412841796875,-0.0514984130859375,1,0.95,5
2019-10-22 14:32:51.459 -0400,365,1571769171.025198,33.99211041274727,-81.02928663917218,72.44816,1.173715,329.9725323064825,12.29258084734195,17.64647547123736,-9999,431845.4549186667,0.9887847900390625,0.3146820068359375,-0.0727081298828125,1,0.95,5
2019-10-22 14:32:51.499 -0400,366,1571769171.025198,33.99211041274727,-81.02928663917218,72.44816,1.173715,329.9725323064825,12.29258084734195,17.64647547123736,-9999,431845.4949016667,1.134353637695312,0.3677520751953125,-0.10833740234375,1,0.95,5
2019-10-22 14:32:51.539 -0400,367,1571769171.025198,33.99211041274727,-81.02928663917218,72.44816,1.173715,329.9725323064825,12.29258084734195,17.64647547123736,-9999,431845.5348846667,1.237869262695312,0.3779754638671875,-0.133544921875,1,0.95,5
2019-10-22 14:32:51.579 -0400,368,1571769171.025198,33.99211041274727,-81.02928663917218,72.44816,1.173715,329.9725323064825,12.29258084734195,17.64647547123736,-9999,431845.5748686667,1.093368530273438,0.370147705078125,-0.233489990234375,1,0.95,5
2019-10-22 14:32:51.619 -0400,369,1571769171.025198,33.99211041274727,-81.02928663917218,72.44816,1.173715,329.9725323064825,12.29258084734195,17.64647547123736,-9999,431845.6148516667,0.98651123046875,0.405242919921875,-0.33648681640625,1,0.95,5
2019-10-22 14:32:51.659 -0400,370,1571769171.025198,33.99211041274727,-81.02928663917218,72.44816,1.173715,329.9725323064825,12.29258084734195,17.64647547123736,-9999,431845.6548346667,1.12335205078125,0.3733367919921875,-0.3136749267578125,1,0.95,5
2019-10-22 14:32:51.699 -0400,371,1571769171.025198,33.99211041274727,-81.02928663917218,72.44816,1.173715,329.9725323064825,12.29258084734195,17.64647547123736,-9999,431845.6948176667,1.102462768554688,0.3105010986328125,-0.246673583984375,1,0.95,5
2019-10-22 14:32:51.739 -0400,372,1571769171.025198,33.99211041274727,-81.02928663917218,72.44816,1.173715,329.9725323064825,12.29258084734195,17.64647547123736,-9999,431845.7348006667,0.935516357421875,0.1632080078125,-0.216796875,1,0.95,5
2019-10-22 14:32:51.779 -0400,373,1571769171.025198,33.99211041274727,-81.02928663917218,72.44816,1.173715,329.9725323064825,12.29258084734195,17.64647547123736,-9999,431845.7747836667,0.75091552734375,0.202117919921875,-0.258575439453125,1,0.95,5
2019-10-22 14:32:51.819 -0400,374,1571769171.025198,33.99211041274727,-81.02928663917218,72.44816,1.173715,329.9725323064825,12.29258084734195,17.64647547123736,-9999,431845.8147666667,0.6331329345703125,0.2615509033203125,-0.262603759765625,1,0.95,5
2019-10-22 14:32:51.859 -0400,375,1571769171.025198,33.99211041274727,-81.02928663917218,72.44816,1.173715,329.9725323064825,12.29258084734195,17.64647547123736,-9999,431845.8547496667,0.5817413330078125,0.3759613037109375,-0.2182464599609375,1,0.95,5
2019-10-22 14:32:51.899 -0400,376,1571769171.025198,33.99211041274727,-81.02928663917218,72.44816,1.173715,329.9725323064825,12.29258084734195,17.64647547123736,-9999,431845.8947326667,0.650787353515625,0.426849365234375,-0.2390594482421875,1,0.95,5
2019-10-22 14:32:51.939 -0400,377,1571769171.025198,33.99211041274727,-81.02928663917218,72.44816,1.173715,329.9725323064825,12.29258084734195,17.64647547123736,-9999,431845.9347156667,0.750152587890625,0.4092254638671875,-0.248809814453125,1,0.95,5
2019-10-22 14:32:51.979 -0400,378,1571769171.025198,33.99211041274727,-81.02928663917218,72.44816,1.173715,329.9725323064825,12.29258084734195,17.64647547123736,-9999,431845.9746986667,0.915008544921875,0.4145660400390625,-0.2929840087890625,1,0.95,5
2019-10-22 14:32:52.019 -0400,379,1571769171.025198,33.99211041274727,-81.02928663917218,72.44816,1.173715,329.9725323064825,12.29258084734195,17.64647547123736,-9999,431846.01468175,1.024505615234375,0.419586181640625,-0.318939208984375,1,0.95,5
2019-10-22 14:32:52.059 -0400,380,1571769171.025198,33.99211041274727,-81.02928663917218,72.44816,1.173715,329.9725323064825,12.29258084734195,17.64647547123736,-9999,431846.05466475,1.1817626953125,0.495208740234375,-0.3612060546875,1,0.95,5
2019-10-22 14:32:52.099 -0400,381,1571769171.025198,33.99211041274727,-81.02928663917218,72.44816,1.173715,329.9725323064825,12.29258084734195,17.64647547123736,-9999,431846.09464775,1.529083251953125,0.569091796875,-0.3634490966796875,1,0.95,5
2019-10-22 14:32:52.139 -0400,382,1571769171.025198,33.99211041274727,-81.02928663917218,72.44816,1.173715,329.9725323064825,12.29258084734195,17.64647547123736,-9999,431846.13463075,1.002120971679688,0.475433349609375,-0.3383331298828125,1,0.95,5
2019-10-22 14:32:52.179 -0400,383,1571769171.025198,33.99211041274727,-81.02928663917218,72.44816,1.173715,329.9725323064825,12.29258084734195,17.64647547123736,-9999,431846.17461375,0.769500732421875,0.3951568603515625,-0.2822418212890625,1,0.95,5
2019-10-22 14:32:52.219 -0400,384,1571769171.025198,33.99211041274727,-81.02928663917218,72.44816,1.173715,329.9725323064825,12.29258084734195,17.64647547123736,-9999,431846.21459675,0.9899444580078125,0.432830810546875,-0.245086669921875,1,0.95,5
2019-10-22 14:32:52.259 -0400,385,1571769171.025198,33.99211041274727,-81.02928663917218,72.44816,1.173715,329.9725323064825,12.29258084734195,17.64647547123736,-9999,431846.25457975,1.024612426757812,0.322540283203125,-0.10272216796875,1,0.95,5
2019-10-22 14:32:52.299 -0400,386,1571769171.025198,33.99211041274727,-81.02928663917218,72.44816,1.173715,329.9725323064825,12.29258084734195,17.64647547123736,-9999,431846.29456275,0.8755035400390625,0.3211822509765625,-0.1162261962890625,1,0.95,5
2019-10-22 14:32:52.339 -0400,387,1571769172.015198,33.99211948231806,-81.02929293256587,72.44816,1.173715,329.9725287879795,12.29258084734196,17.64647547123736,-9999,431846.3345457501,0.83038330078125,0.386383056640625,-0.116973876953125,1,0.95,5
2019-10-22 14:32:52.379 -0400,388,1571769172.015198,33.99211948231806,-81.02929293256587,72.44816,1.173715,329.9725287879795,12.29258084734196,17.64647547123736,-9999,431846.37452875,0.781494140625,0.4222259521484375,-0.0710601806640625,1,0.95,5
2019-10-22 14:32:52.418 -0400,389,1571769172.015198,33.99211948231806,-81.02929293256587,72.44816,1.173715,329.9725287879795,12.29258084734196,17.64647547123736,-9999,431846.41451175,0.839752197265625,0.364013671875,-0.06683349609375,1,0.95,5
2019-10-22 14:32:52.458 -0400,390,1571769172.015198,33.99211948231806,-81.02929293256587,72.44816,1.173715,329.9725287879795,12.29258084734196,17.64647547123736,-9999,431846.45449475,0.9659423828125,0.33453369140625,-0.093536376953125,1,0.95,5
2019-10-22 14:32:52.498 -0400,391,1571769172.015198,33.99211948231806,-81.02929293256587,72.44816,1.173715,329.9725287879795,12.29258084734196,17.64647547123736,-9999,431846.49447775,1.065322875976562,0.324615478515625,-0.0867767333984375,1,0.95,5
2019-10-22 14:32:52.538 -0400,392,1571769172.015198,33.99211948231806,-81.02929293256587,72.44816,1.173715,329.9725287879795,12.29258084734196,17.64647547123736,-9999,431846.53446075,1.224899291992188,0.3444976806640625,-0.1303558349609375,1,0.95,5
2019-10-22 14:32:52.579 -0400,393,1571769172.015198,33.99211948231806,-81.02929293256587,72.44816,1.173715,329.9725287879795,12.29258084734196,17.64647547123736,-9999,431846.57444375,1.278701782226562,0.3461151123046875,-0.144866943359375,1,0.95,5
2019-10-22 14:32:52.618 -0400,394,1571769172.015198,33.99211948231806,-81.02929293256587,72.44816,1.173715,329.9725287879795,12.29258084734196,17.64647547123736,-9999,431846.61442675,1.148147583007812,0.3431549072265625,-0.171844482421875,1,0.95,5
2019-10-22 14:32:52.658 -0400,395,1571769172.015198,33.99211948231806,-81.02929293256587,72.44816,1.173715,329.9725287879795,12.29258084734196,17.64647547123736,-9999,431846.65440975,1.1885986328125,0.313018798828125,-0.1802520751953125,1,0.95,5
2019-10-22 14:32:52.698 -0400,396,1571769172.015198,33.99211948231806,-81.02929293256587,72.44816,1.173715,329.9725287879795,12.29258084734196,17.64647547123736,-9999,431846.69439275,0.894317626953125,0.285064697265625,-0.262603759765625,1,0.95,5
2019-10-22 14:32:52.738 -0400,397,1571769172.015198,33.99211948231806,-81.02929293256587,72.44816,1.173715,329.9725287879795,12.29258084734196,17.64647547123736,-9999,431846.73437575,0.90997314453125,0.2734832763671875,-0.29644775390625,1,0.95,5
2019-10-22 14:32:52.778 -0400,398,1571769172.015198,33.99211948231806,-81.02929293256587,72.44816,1.173715,329.9725287879795,12.29258084734196,17.64647547123736,-9999,431846.77435875,0.97967529296875,0.29736328125,-0.2234954833984375,1,0.95,5
2019-10-22 14:32:52.818 -0400,399,1571769172.015198,33.99211948231806,-81.02929293256587,72.44816,1.173715,329.9725287879795,12.29258084734196,17.64647547123736,-9999,431846.8143417501,0.8792572021484375,0.3006744384765625,-0.186553955078125,1,0.95,5
2019-10-22 14:32:52.858 -0400,400,1571769172.015198,33.99211948231806,-81.02929293256587,72.44816,1.173715,329.9725287879795,12.29258084734196,17.64647547123736,-9999,431846.85432475,0.7347259521484375,0.2496185302734375,-0.1730499267578125,1,0.95,5
2019-10-22 14:32:52.898 -0400,401,1571769172.015198,33.99211948231806,-81.02929293256587,72.44816,1.173715,329.9725287879795,12.29258084734196,17.64647547123736,-9999,431846.89430775,0.6823577880859375,0.29412841796875,-0.191009521484375,1,0.95,5
2019-10-22 14:32:52.938 -0400,402,1571769172.015198,33.99211948231806,-81.02929293256587,72.44816,1.173715,329.9725287879795,12.29258084734196,17.64647547123736,-9999,431846.93429075,0.6587982177734375,0.3492584228515625,-0.2299041748046875,1,0.95,5
2019-10-22 14:32:52.978 -0400,403,1571769172.015198,33.99211948231806,-81.02929293256587,72.44816,1.173715,329.9725287879795,12.29258084734196,17.64647547123736,-9999,431846.97427375,0.6869049072265625,0.3528900146484375,-0.2237548828125,1,0.95,5
2019-10-22 14:32:53.018 -0400,404,1571769172.015198,33.99211948231806,-81.02929293256587,72.44816,1.173715,329.9725287879795,12.29258084734196,17.64647547123736,-9999,431847.01425675,0.742034912109375,0.41680908203125,-0.240447998046875,1,0.95,5
2019-10-22 14:32:53.058 -0400,405,1571769172.015198,33.99211948231806,-81.02929293256587,72.44816,1.173715,329.9725287879795,12.29258084734196,17.64647547123736,-9999,431847.05423975,0.8670654296875,0.4795989990234375,-0.2474212646484375,1,0.95,5
2019-10-22 14:32:53.098 -0400,406,1571769172.015198,33.99211948231806,-81.02929293256587,72.44816,1.173715,329.9725287879795,12.29258084734196,17.64647547123736,-9999,431847.09422275,0.9018707275390625,0.48797607421875,-0.2666473388671875,1,0.95,5
2019-10-22 14:32:53.138 -0400,407,1571769172.015198,33.99211948231806,-81.02929293256587,72.44816,1.173715,329.9725287879795,12.29258084734196,17.64647547123736,-9999,431847.13420675,1.0625,0.5212554931640625,-0.3418731689453125,1,0.95,5
2019-10-22 14:32:53.178 -0400,408,1571769172.015198,33.99211948231806,-81.02929293256587,72.44816,1.173715,329.9725287879795,12.29258084734196,17.64647547123736,-9999,431847.17418975,1.300216674804688,0.515777587890625,-0.327911376953125,1,0.95,5
2019-10-22 14:32:53.218 -0400,409,1571769172.015198,33.99211948231806,-81.02929293256587,72.44816,1.173715,329.9725287879795,12.29258084734196,17.64647547123736,-9999,431847.21417275,1.344131469726562,0.543670654296875,-0.3605804443359375,1,0.95,5
2019-10-22 14:32:53.258 -0400,410,1571769172.015198,33.99211948231806,-81.02929293256587,72.44816,1.173715,329.9725287879795,12.29258084734196,17.64647547123736,-9999,431847.25415575,0.9156341552734375,0.3998870849609375,-0.3474884033203125,1,0.95,5
2019-10-22 14:32:53.298 -0400,411,1571769172.015198,33.99211948231806,-81.02929293256587,72.44816,1.173715,329.9725287879795,12.29258084734196,17.64647547123736,-9999,431847.29413875,1.08990478515625,0.3087310791015625,-0.183929443359375,1,0.95,5
2019-10-22 14:32:53.338 -0400,412,1571769172.015198,33.99211948231806,-81.02929293256587,72.44816,1.173715,329.9725287879795,12.29258084734196,17.64647547123736,-9999,431847.33412175,1.182388305664062,0.359893798828125,-0.1114501953125,1,0.95,5
2019-10-22 14:32:53.378 -0400,413,1571769173.014719,33.99212560376485,-81.02929871261613,72.5327,1.173715,333.1022572036047,8.203948466238485,11.65506792348633,-9999,431847.3741047501,0.99481201171875,0.354705810546875,-0.133209228515625,1,0.95,5
2019-10-22 14:32:53.418 -0400,414,1571769173.014719,33.99212560376485,-81.02929871261613,72.5327,1.173715,333.1022572036047,8.203948466238485,11.65506792348633,-9999,431847.41408775,0.7552490234375,0.328155517578125,-0.1354217529296875,1,0.95,5
2019-10-22 14:32:53.458 -0400,415,1571769173.014719,33.99212560376485,-81.02929871261613,72.5327,1.173715,333.1022572036047,8.203948466238485,11.65506792348633,-9999,431847.45407075,0.644500732421875,0.4057769775390625,-0.140228271484375,1,0.95,5
2019-10-22 14:32:53.498 -0400,416,1571769173.014719,33.99212560376485,-81.02929871261613,72.5327,1.173715,333.1022572036047,8.203948466238485,11.65506792348633,-9999,431847.49405375,0.5787353515625,0.3570098876953125,-0.0893096923828125,1,0.95,5
2019-10-22 14:32:53.538 -0400,417,1571769173.014719,33.99212560376485,-81.02929871261613,72.5327,1.173715,333.1022572036047,8.203948466238485,11.65506792348633,-9999,431847.53403675,0.5784149169921875,0.345733642578125,-0.0534515380859375,1,0.95,5
2019-10-22 14:32:53.578 -0400,418,1571769173.014719,33.99212560376485,-81.02929871261613,72.5327,1.173715,333.1022572036047,8.203948466238485,11.65506792348633,-9999,431847.57401975,0.6690826416015625,0.3762969970703125,-0.05517578125,1,0.95,5
2019-10-22 14:32:53.618 -0400,419,1571769173.014719,33.99212560376485,-81.02929871261613,72.5327,1.173715,333.1022572036047,8.203948466238485,11.65506792348633,-9999,431847.61400275,0.8848419189453125,0.4983673095703125,-0.07244873046875,1,0.95,5
2019-10-22 14:32:53.658 -0400,420,1571769173.014719,33.99212560376485,-81.02929871261613,72.5327,1.173715,333.1022572036047,8.203948466238485,11.65506792348633,-9999,431847.65398575,1.176361083984375,0.60308837890625,-0.0792388916015625,1,0.95,5
2019-10-22 14:32:53.698 -0400,421,1571769173.014719,33.99212560376485,-81.02929871261613,72.5327,1.173715,333.1022572036047,8.203948466238485,11.65506792348633,-9999,431847.69396875,1.296890258789062,0.6077423095703125,-0.07904052734375,1,0.95,5
2019-10-22 14:32:53.738 -0400,422,1571769173.014719,33.99212560376485,-81.02929871261613,72.5327,1.173715,333.1022572036047,8.203948466238485,11.65506792348633,-9999,431847.73395175,1.334548950195312,0.6382904052734375,-0.1216583251953125,1,0.95,5
2019-10-22 14:32:53.778 -0400,423,1571769173.014719,33.99212560376485,-81.02929871261613,72.5327,1.173715,333.1022572036047,8.203948466238485,11.65506792348633,-9999,431847.77393475,1.040008544921875,0.5312042236328125,-0.1916046142578125,1,0.95,5
2019-10-22 14:32:53.818 -0400,424,1571769173.014719,33.99212560376485,-81.02929871261613,72.5327,1.173715,333.1022572036047,8.203948466238485,11.65506792348633,-9999,431847.81391775,0.7584075927734375,0.5139617919921875,-0.2883148193359375,1,0.95,5
2019-10-22 14:32:53.859 -0400,425,1571769173.014719,33.99212560376485,-81.02929871261613,72.5327,1.173715,333.1022572036047,8.203948466238485,11.65506792348633,-9999,431847.8539007501,0.9079742431640625,0.513031005859375,-0.334991455078125,1,0.95,5
2019-10-22 14:32:53.898 -0400,426,1571769173.014719,33.99212560376485,-81.02929871261613,72.5327,1.173715,333.1022572036047,8.203948466238485,11.65506792348633,-9999,431847.89388375,0.9393157958984375,0.497344970703125,-0.29754638671875,1,0.95,5
2019-10-22 14:32:53.938 -0400,427,1571769173.014719,33.99212560376485,-81.02929871261613,72.5327,1.173715,333.1022572036047,8.203948466238485,11.65506792348633,-9999,431847.93386675,0.853668212890625,0.5228271484375,-0.2346343994140625,1,0.95,5
2019-10-22 14:32:53.978 -0400,428,1571769173.014719,33.99212560376485,-81.02929871261613,72.5327,1.173715,333.1022572036047,8.203948466238485,11.65506792348633,-9999,431847.97384975,0.685943603515625,1.072158813476562,-0.3974456787109375,1,0.95,5
2019-10-22 14:32:54.018 -0400,429,1571769173.014719,33.99212560376485,-81.02929871261613,72.5327,1.173715,333.1022572036047,8.203948466238485,11.65506792348633,-9999,431848.0138335,0.4355926513671875,1.206100463867188,-0.546356201171875,1,0.95,5
2019-10-22 14:32:54.058 -0400,430,1571769173.014719,33.99212560376485,-81.02929871261613,72.5327,1.173715,333.1022572036047,8.203948466238485,11.65506792348633,-9999,431848.0538165,0.1551971435546875,0.8087615966796875,-0.25994873046875,1,0.95,5
2019-10-22 14:32:54.098 -0400,431,1571769173.014719,33.99212560376485,-81.02929871261613,72.5327,1.173715,333.1022572036047,8.203948466238485,11.65506792348633,-9999,431848.0937995,-0.022186279296875,0.708160400390625,0.135833740234375,1,0.95,5
2019-10-22 14:32:54.138 -0400,432,1571769173.014719,33.99212560376485,-81.02929871261613,72.5327,1.173715,333.1022572036047,8.203948466238485,11.65506792348633,-9999,431848.1337825001,-0.1639251708984375,0.6650390625,-0.040679931640625,1,0.95,5
2019-10-22 14:32:54.178 -0400,433,1571769173.014719,33.99212560376485,-81.02929871261613,72.5327,1.173715,333.1022572036047,8.203948466238485,11.65506792348633,-9999,431848.1737655,-0.0300445556640625,0.69952392578125,0.241119384765625,1,0.95,5
2019-10-22 14:32:54.218 -0400,434,1571769173.014719,33.99212560376485,-81.02929871261613,72.5327,1.173715,333.1022572036047,8.203948466238485,11.65506792348633,-9999,431848.2137485,0.67913818359375,1.42620849609375,0.3853607177734375,1,0.95,5
2019-10-22 14:32:54.258 -0400,435,1571769174.014718,33.99213625951031,-81.02931321853558,72.5958,1.173715,313.1234749803063,15.82816207189268,22.04858413035813,-9999,431848.2537315,1.843917846679688,-0.114898681640625,-1.061233520507812,1,0.95,5
2019-10-22 14:32:54.298 -0400,436,1571769174.014718,33.99213625951031,-81.02931321853558,72.5958,1.173715,313.1234749803063,15.82816207189268,22.04858413035813,-9999,431848.2937145,0.3333282470703125,1.361984252929688,0.40570068359375,1,0.95,5
2019-10-22 14:32:54.338 -0400,437,1571769174.014718,33.99213625951031,-81.02931321853558,72.5958,1.173715,313.1234749803063,15.82816207189268,22.04858413035813,-9999,431848.3336975,0.2509918212890625,1.212188720703125,0.7153778076171875,1,0.95,5
2019-10-22 14:32:54.378 -0400,438,1571769174.014718,33.99213625951031,-81.02931321853558,72.5958,1.173715,313.1234749803063,15.82816207189268,22.04858413035813,-9999,431848.3736805,-0.121978759765625,1.045318603515625,0.6143646240234375,1,0.95,5
2019-10-22 14:32:54.418 -0400,439,1571769174.014718,33.99213625951031,-81.02931321853558,72.5958,1.173715,313.1234749803063,15.82816207189268,22.04858413035813,-9999,431848.4136635,-0.0306854248046875,0.990142822265625,0.6089019775390625,1,0.95,5
2019-10-22 14:32:54.458 -0400,440,1571769174.014718,33.99213625951031,-81.02931321853558,72.5958,1.173715,313.1234749803063,15.82816207189268,22.04858413035813,-9999,431848.4536465,0.3438568115234375,0.792572021484375,0.1680908203125,1,0.95,5
2019-10-22 14:32:54.498 -0400,441,1571769174.014718,33.99213625951031,-81.02931321853558,72.5958,1.173715,313.1234749803063,15.82816207189268,22.04858413035813,-9999,431848.4936295,0.6977996826171875,0.08416748046875,-0.321685791015625,1,0.95,5
2019-10-22 14:32:54.538 -0400,442,1571769174.014718,33.99213625951031,-81.02931321853558,72.5958,1.173715,313.1234749803063,15.82816207189268,22.04858413035813,-9999,431848.5336125,0.3451385498046875,0.53314208984375,0.1483917236328125,1,0.95,5
2019-10-22 14:32:54.578 -0400,443,1571769174.014718,33.99213625951031,-81.02931321853558,72.5958,1.173715,313.1234749803063,15.82816207189268,22.04858413035813,-9999,431848.5735955,0.2670135498046875,1.406417846679688,0.3109893798828125,1,0.95,5
2019-10-22 14:32:54.618 -0400,444,1571769174.014718,33.99213625951031,-81.02931321853558,72.5958,1.173715,313.1234749803063,15.82816207189268,22.04858413035813,-9999,431848.6135785001,0.1587066650390625,0.6775054931640625,-0.0134735107421875,1,0.95,5
2019-10-22 14:32:54.658 -0400,445,1571769174.014718,33.99213625951031,-81.02931321853558,72.5958,1.173715,313.1234749803063,15.82816207189268,22.04858413035813,-9999,431848.6535615,0.4432830810546875,0.6341400146484375,-0.52288818359375,1,0.95,5
2019-10-22 14:32:54.697 -0400,446,1571769174.014718,33.99213625951031,-81.02931321853558,72.5958,1.173715,313.1234749803063,15.82816207189268,22.04858413035813,-9999,431848.6935445,0.54541015625,0.2388153076171875,-0.5537261962890625,1,0.95,5
2019-10-22 14:32:54.738 -0400,447,1571769174.014718,33.99213625951031,-81.02931321853558,72.5958,1.173715,313.1234749803063,15.82816207189268,22.04858413035813,-9999,431848.7335275,0.3658905029296875,1.201553344726562,-0.1842498779296875,1,0.95,5
2019-10-22 14:32:54.777 -0400,448,1571769174.014718,33.99213625951031,-81.02931321853558,72.5958,1.173715,313.1234749803063,15.82816207189268,22.04858413035813,-9999,431848.7735105,0.3225555419921875,1.685516357421875,-0.0066986083984375,1,0.95,5
2019-10-22 14:32:54.817 -0400,449,1571769174.014718,33.99213625951031,-81.02931321853558,72.5958,1.173715,313.1234749803063,15.82816207189268,22.04858413035813,-9999,431848.8134935,0.6198577880859375,0.928924560546875,0.4041290283203125,1,0.95,5
2019-10-22 14:32:54.857 -0400,450,1571769174.014718,33.99213625951031,-81.02931321853558,72.5958,1.173715,313.1234749803063,15.82816207189268,22.04858413035813,-9999,431848.8534765,0.519989013671875,1.366165161132812,0.5005035400390625,1,0.95,5
2019-10-22 14:32:54.897 -0400,451,1571769174.014718,33.99213625951031,-81.02931321853558,72.5958,1.173715,313.1234749803063,15.82816207189268,22.04858413035813,-9999,431848.8934605001,0.4073486328125,0.8838348388671875,0.4311065673828125,1,0.95,5
2019-10-22 14:32:54.937 -0400,452,1571769174.014718,33.99213625951031,-81.02931321853558,72.5958,1.173715,313.1234749803063,15.82816207189268,22.04858413035813,-9999,431848.9334435,0.3352203369140625,1.356109619140625,0.7411651611328125,1,0.95,5
2019-10-22 14:32:54.977 -0400,453,1571769174.014718,33.99213625951031,-81.02931321853558,72.5958,1.173715,313.1234749803063,15.82816207189268,22.04858413035813,-9999,431848.9734265,0.5479736328125,1.11358642578125,0.51123046875,1,0.95,5
2019-10-22 14:32:55.017 -0400,454,1571769174.014718,33.99213625951031,-81.02931321853558,72.5958,1.173715,313.1234749803063,15.82816207189268,22.04858413035813,-9999,431849.01340875,0.2036590576171875,0.638397216796875,0.0809478759765625,1,0.95,5
2019-10-22 14:32:55.057 -0400,455,1571769174.014718,33.99213625951031,-81.02931321853558,72.5958,1.173715,313.1234749803063,15.82816207189268,22.04858413035813,-9999,431849.05339175,0.0060577392578125,0.549713134765625,0.04132080078125,1,0.95,5
2019-10-22 14:32:55.097 -0400,456,1571769174.014718,33.99213625951031,-81.02931321853558,72.5958,1.173715,313.1234749803063,15.82816207189268,22.04858413035813,-9999,431849.0933747501,-0.038726806640625,0.1836090087890625,-0.0135345458984375,1,0.95,5
2019-10-22 14:32:55.137 -0400,457,1571769174.014718,33.99213625951031,-81.02931321853558,72.5958,1.173715,313.1234749803063,15.82816207189268,22.04858413035813,-9999,431849.13335775,0.1733245849609375,0.66705322265625,-0.2257232666015625,1,0.95,5
2019-10-22 14:32:55.177 -0400,458,1571769174.014718,33.99213625951031,-81.02931321853558,72.5958,1.173715,313.1234749803063,15.82816207189268,22.04858413035813,-9999,431849.17334075,0.01226806640625,0.185089111328125,-0.3749237060546875,1,0.95,5
2019-10-22 14:32:55.217 -0400,459,1571769174.014718,33.99213625951031,-81.02931321853558,72.5958,1.173715,313.1234749803063,15.82816207189268,22.04858413035813,-9999,431849.21332375,0.516204833984375,0.5217437744140625,-0.494842529296875,1,0.95,5
2019-10-22 14:32:55.257 -0400,460,1571769175.014774,33.9921536056285,-81.02931503039935,72.64482,1.02803,322.1251819223313,8.094539650097001,10.81405807810612,-9999,431849.25330675,0.7322235107421875,0.05401611328125,-0.302398681640625,1,0.95,5
2019-10-22 14:32:55.297 -0400,461,1571769175.014774,33.9921536056285,-81.02931503039935,72.64482,1.02803,322.1251819223313,8.094539650097001,10.81405807810612,-9999,431849.29328975,0.965850830078125,1.785934448242188,0.19085693359375,1,0.95,5
2019-10-22 14:32:55.337 -0400,462,1571769175.014774,33.9921536056285,-81.02931503039935,72.64482,1.02803,322.1251819223313,8.094539650097001,10.81405807810612,-9999,431849.33327275,0.5362548828125,1.816482543945312,-0.330078125,1,0.95,5
2019-10-22 14:32:55.377 -0400,463,1571769175.014774,33.9921536056285,-81.02931503039935,72.64482,1.02803,322.1251819223313,8.094539650097001,10.81405807810612,-9999,431849.37325575,0.2433624267578125,0.6690216064453125,0.004791259765625,1,0.95,5
2019-10-22 14:32:55.417 -0400,464,1571769175.014774,33.9921536056285,-81.02931503039935,72.64482,1.02803,322.1251819223313,8.094539650097001,10.81405807810612,-9999,431849.41323875,0.3857574462890625,1.187957763671875,0.3519439697265625,1,0.95,5
2019-10-22 14:32:55.457 -0400,465,1571769175.014774,33.9921536056285,-81.02931503039935,72.64482,1.02803,322.1251819223313,8.094539650097001,10.81405807810612,-9999,431849.45322175,0.7602081298828125,0.8864593505859375,0.4221649169921875,1,0.95,5
2019-10-22 14:32:55.497 -0400,466,1571769175.014774,33.9921536056285,-81.02931503039935,72.64482,1.02803,322.1251819223313,8.094539650097001,10.81405807810612,-9999,431849.49320475,0.8230438232421875,0.2500152587890625,0.1834869384765625,1,0.95,5
2019-10-22 14:32:55.537 -0400,467,1571769175.014774,33.9921536056285,-81.02931503039935,72.64482,1.02803,322.1251819223313,8.094539650097001,10.81405807810612,-9999,431849.53318775,0.7436370849609375,0.5963592529296875,0.04547119140625,1,0.95,5
2019-10-22 14:32:55.577 -0400,468,1571769175.014774,33.9921536056285,-81.02931503039935,72.64482,1.02803,322.1251819223313,8.094539650097001,10.81405807810612,-9999,431849.5731707501,0.6247406005859375,0.574249267578125,0.042999267578125,1,0.95,5
2019-10-22 14:32:55.617 -0400,469,1571769175.014774,33.9921536056285,-81.02931503039935,72.64482,1.02803,322.1251819223313,8.094539650097001,10.81405807810612,-9999,431849.61315375,0.5252227783203125,0.395965576171875,0.0194244384765625,1,0.95,5
2019-10-22 14:32:55.657 -0400,470,1571769175.014774,33.9921536056285,-81.02931503039935,72.64482,1.02803,322.1251819223313,8.094539650097001,10.81405807810612,-9999,431849.65313675,0.5552978515625,0.2697296142578125,-0.0934295654296875,1,0.95,5
2019-10-22 14:32:55.697 -0400,471,1571769175.014774,33.9921536056285,-81.02931503039935,72.64482,1.02803,322.1251819223313,8.094539650097001,10.81405807810612,-9999,431849.69311975,0.7312164306640625,0.1878509521484375,-0.092071533203125,1,0.95,5
2019-10-22 14:32:55.737 -0400,472,1571769175.014774,33.9921536056285,-81.02931503039935,72.64482,1.02803,322.1251819223313,8.094539650097001,10.81405807810612,-9999,431849.73310275,1.07861328125,0.3456878662109375,-0.0120697021484375,1,0.95,5
2019-10-22 14:32:55.777 -0400,473,1571769175.014774,33.9921536056285,-81.02931503039935,72.64482,1.02803,322.1251819223313,8.094539650097001,10.81405807810612,-9999,431849.77308575,1.401702880859375,0.6529083251953125,0.080230712890625,1,0.95,5
2019-10-22 14:32:55.817 -0400,474,1571769175.014774,33.9921536056285,-81.02931503039935,72.64482,1.02803,322.1251819223313,8.094539650097001,10.81405807810612,-9999,431849.81306875,1.562240600585938,0.858062744140625,0.1708221435546875,1,0.95,5
2019-10-22 14:32:55.857 -0400,475,1571769175.014774,33.9921536056285,-81.02931503039935,72.64482,1.02803,322.1251819223313,8.094539650097001,10.81405807810612,-9999,431849.85305175,1.649993896484375,0.779510498046875,0.2569122314453125,1,0.95,5
2019-10-22 14:32:55.897 -0400,476,1571769175.014774,33.9921536056285,-81.02931503039935,72.64482,1.02803,322.1251819223313,8.094539650097001,10.81405807810612,-9999,431849.89303475,0.9304351806640625,0.591796875,-0.0246124267578125,1,0.95,5
2019-10-22 14:32:55.937 -0400,477,1571769175.014774,33.9921536056285,-81.02931503039935,72.64482,1.02803,322.1251819223313,8.094539650097001,10.81405807810612,-9999,431849.93301775,1.1282958984375,0.2944793701171875,0.0775909423828125,1,0.95,5
2019-10-22 14:32:55.977 -0400,478,1571769175.014774,33.9921536056285,-81.02931503039935,72.64482,1.02803,322.1251819223313,8.094539650097001,10.81405807810612,-9999,431849.97300075,1.018905639648438,0.330322265625,0.13836669921875,1,0.95,5
2019-10-22 14:32:56.017 -0400,479,1571769175.014774,33.9921536056285,-81.02931503039935,72.64482,1.02803,322.1251819223313,8.094539650097001,10.81405807810612,-9999,431850.01298375,0.823089599609375,0.41131591796875,0.080596923828125,1,0.95,5
2019-10-22 14:32:56.057 -0400,480,1571769175.014774,33.9921536056285,-81.02931503039935,72.64482,1.02803,322.1251819223313,8.094539650097001,10.81405807810612,-9999,431850.0529667501,0.6048583984375,0.380126953125,-0.0232086181640625,1,0.95,5
2019-10-22 14:32:56.097 -0400,481,1571769175.014774,33.9921536056285,-81.02931503039935,72.64482,1.02803,322.1251819223313,8.094539650097001,10.81405807810612,-9999,431850.09294975,0.4946746826171875,0.3574981689453125,-0.0729827880859375,1,0.95,5
2019-10-22 14:32:56.137 -0400,482,1571769175.014774,33.9921536056285,-81.02931503039935,72.64482,1.02803,322.1251819223313,8.094539650097001,10.81405807810612,-9999,431850.13293275,0.48248291015625,0.3513946533203125,-0.5452728271484375,1,0.95,5
2019-10-22 14:32:56.177 -0400,483,1571769175.014774,33.9921536056285,-81.02931503039935,72.64482,1.02803,322.1251819223313,8.094539650097001,10.81405807810612,-9999,431850.17291575,0.5332183837890625,0.336212158203125,-0.4365386962890625,1,0.95,5
2019-10-22 14:32:56.217 -0400,484,1571769175.014774,33.9921536056285,-81.02931503039935,72.64482,1.02803,322.1251819223313,8.094539650097001,10.81405807810612,-9999,431850.21289875,0.5799713134765625,0.294830322265625,-0.2415313720703125,1,0.95,5
2019-10-22 14:32:56.264 -0400,485,1571769175.014774,33.9921536056285,-81.02931503039935,72.64482,1.02803,322.1251819223313,8.094539650097001,10.81405807810612,-9999,431850.25288175,0.879364013671875,0.3800506591796875,-0.183746337890625,1,0.95,5
2019-10-22 14:32:56.297 -0400,486,1571769176.014773,33.99216931449173,-81.02932004827191,72.74078,1.175954,335.0419142941615,6.82423319009675,8.864048450818002,-9999,431850.29286475,1.305130004882812,0.741851806640625,-0.373992919921875,1,0.95,5
2019-10-22 14:32:56.337 -0400,487,1571769176.014773,33.99216931449173,-81.02932004827191,72.74078,1.175954,335.0419142941615,6.82423319009675,8.864048450818002,-9999,431850.33284775,1.32275390625,0.7313385009765625,-0.3423004150390625,1,0.95,5
2019-10-22 14:32:56.377 -0400,488,1571769176.014773,33.99216931449173,-81.02932004827191,72.74078,1.175954,335.0419142941615,6.82423319009675,8.864048450818002,-9999,431850.37283075,1.612899780273438,0.389068603515625,-0.1976470947265625,1,0.95,5
2019-10-22 14:32:56.417 -0400,489,1571769176.014773,33.99216931449173,-81.02932004827191,72.74078,1.175954,335.0419142941615,6.82423319009675,8.864048450818002,-9999,431850.41281375,0.80255126953125,0.5383453369140625,-0.258544921875,1,0.95,5
2019-10-22 14:32:56.457 -0400,490,1571769176.014773,33.99216931449173,-81.02932004827191,72.74078,1.175954,335.0419142941615,6.82423319009675,8.864048450818002,-9999,431850.45279675,0.955322265625,0.5085601806640625,-0.154815673828125,1,0.95,5
2019-10-22 14:32:56.497 -0400,491,1571769176.014773,33.99216931449173,-81.02932004827191,72.74078,1.175954,335.0419142941615,6.82423319009675,8.864048450818002,-9999,431850.49277975,1.045440673828125,0.54058837890625,-0.028594970703125,1,0.95,5
2019-10-22 14:32:56.537 -0400,492,1571769176.014773,33.99216931449173,-81.02932004827191,72.74078,1.175954,335.0419142941615,6.82423319009675,8.864048450818002,-9999,431850.5327627501,1.041107177734375,0.3694610595703125,-0.015350341796875,1,0.95,5
2019-10-22 14:32:56.577 -0400,493,1571769176.014773,33.99216931449173,-81.02932004827191,72.74078,1.175954,335.0419142941615,6.82423319009675,8.864048450818002,-9999,431850.57274575,0.79412841796875,0.2104339599609375,-0.069244384765625,1,0.95,5
2019-10-22 14:32:56.617 -0400,494,1571769176.014773,33.99216931449173,-81.02932004827191,72.74078,1.175954,335.0419142941615,6.82423319009675,8.864048450818002,-9999,431850.61272975,0.6901397705078125,0.285430908203125,-0.0788116455078125,1,0.95,5
2019-10-22 14:32:56.657 -0400,495,1571769176.014773,33.99216931449173,-81.02932004827191,72.74078,1.175954,335.0419142941615,6.82423319009675,8.864048450818002,-9999,431850.65271275,0.6422576904296875,0.345428466796875,-0.0552215576171875,1,0.95,5
