loggingTime(txt),loggingSample(N),locationTimestamp_since1970(s),locationLatitude(WGS84),locationLongitude(WGS84),locationAltitude(m),locationSpeed(m/s),locationCourse(°),locationVerticalAccuracy(m),locationHorizontalAccuracy(m),locationFloor(Z),accelerometerTimestamp_sinceReboot(s),accelerometerAccelerationX(G),accelerometerAccelerationY(G),accelerometerAccelerationZ(G),batteryState,batteryLevel
2019-10-19 17:42:04.503 -0400,1,1571521324.001155,33.9960329228722,-81.02736412687615,93.36664,0,105.7296789388167,2.904535789803682,5.038671340595489,-9999,338934.773097625,-0.0692291259765625,-0.216278076171875,-0.936737060546875,1,0.67
2019-10-19 17:42:04.538 -0400,2,1571521324.001155,33.9960329228722,-81.02736412687615,93.36664,0,105.7296789388167,2.904535789803682,5.038671340595489,-9999,338934.813083625,-0.1053009033203125,-0.2274169921875,-0.951507568359375,1,0.67
2019-10-19 17:42:04.578 -0400,3,1571521324.001155,33.9960329228722,-81.02736412687615,93.36664,0,105.7296789388167,2.904535789803682,5.038671340595489,-9999,338934.853068625,-0.1522674560546875,-0.2380218505859375,-0.93463134765625,1,0.67
2019-10-19 17:42:04.618 -0400,4,1571521324.001155,33.9960329228722,-81.02736412687615,93.36664,0,105.7296789388167,2.904535789803682,5.038671340595489,-9999,338934.893054625,-0.13214111328125,-0.2338104248046875,-0.96728515625,1,0.67
2019-10-19 17:42:04.658 -0400,5,1571521324.001155,33.9960329228722,-81.02736412687615,93.36664,0,105.7296789388167,2.904535789803682,5.038671340595489,-9999,338934.933039625,-0.117584228515625,-0.2472381591796875,-0.966064453125,1,0.67
2019-10-19 17:42:04.698 -0400,6,1571521324.001155,33.9960329228722,-81.02736412687615,93.36664,0,105.7296789388167,2.904535789803682,5.038671340595489,-9999,338934.973025625,-0.1096954345703125,-0.2481231689453125,-0.9477996826171875,1,0.67
2019-10-19 17:42:04.738 -0400,7,1571521324.001155,33.9960329228722,-81.02736412687615,93.36664,0,105.7296789388167,2.904535789803682,5.038671340595489,-9999,338935.013010625,-0.0908355712890625,-0.2525482177734375,-0.922607421875,1,0.67
2019-10-19 17:42:04.778 -0400,8,1571521324.001155,33.9960329228722,-81.02736412687615,93.36664,0,105.7296789388167,2.904535789803682,5.038671340595489,-9999,338935.052996625,-0.0429229736328125,-0.2451019287109375,-0.8792724609375,1,0.67
2019-10-19 17:42:04.818 -0400,9,1571521324.001155,33.9960329228722,-81.02736412687615,93.36664,0,105.7296789388167,2.904535789803682,5.038671340595489,-9999,338935.09298225,0.15472412109375,-0.2629852294921875,-0.785308837890625,1,0.67
2019-10-19 17:42:04.861 -0400,10,1571521324.001155,33.9960329228722,-81.02736412687615,93.36664,0,105.7296789388167,2.904535789803682,5.038671340595489,-9999,338935.13296825,0.0994873046875,-0.2406005859375,-0.751739501953125,1,0.67
2019-10-19 17:42:04.898 -0400,11,1571521324.001155,33.9960329228722,-81.02736412687615,93.36664,0,105.7296789388167,2.904535789803682,5.038671340595489,-9999,338935.17295325,0.243499755859375,-0.2572784423828125,-0.736480712890625,1,0.67
2019-10-19 17:42:04.938 -0400,12,1571521324.001155,33.9960329228722,-81.02736412687615,93.36664,0,105.7296789388167,2.904535789803682,5.038671340595489,-9999,338935.21293925,0.1505279541015625,-0.2221832275390625,-0.7621612548828125,1,0.67
2019-10-19 17:42:04.978 -0400,13,1571521324.001155,33.9960329228722,-81.02736412687615,93.36664,0,105.7296789388167,2.904535789803682,5.038671340595489,-9999,338935.25292425,0.1726226806640625,-0.17169189453125,-0.889739990234375,1,0.67
2019-10-19 17:42:05.018 -0400,14,1571521324.001155,33.9960329228722,-81.02736412687615,93.36664,0,105.7296789388167,2.904535789803682,5.038671340595489,-9999,338935.29291025,0.16180419921875,-0.12713623046875,-0.861175537109375,1,0.67
2019-10-19 17:42:05.058 -0400,15,1571521324.001155,33.9960329228722,-81.02736412687615,93.36664,0,105.7296789388167,2.904535789803682,5.038671340595489,-9999,338935.33289525,0.0443878173828125,0.0490264892578125,-0.8932037353515625,1,0.67
2019-10-19 17:42:05.098 -0400,16,1571521324.001155,33.9960329228722,-81.02736412687615,93.36664,0,105.7296789388167,2.904535789803682,5.038671340595489,-9999,338935.37288125,0.107086181640625,0.12139892578125,-1.076629638671875,1,0.67
2019-10-19 17:42:05.138 -0400,17,1571521324.001155,33.9960329228722,-81.02736412687615,93.36664,0,105.7296789388167,2.904535789803682,5.038671340595489,-9999,338935.41286625,0.0594024658203125,0.2841339111328125,-1.047134399414062,1,0.67
2019-10-19 17:42:05.178 -0400,18,1571521324.001155,33.9960329228722,-81.02736412687615,93.36664,0,105.7296789388167,2.904535789803682,5.038671340595489,-9999,338935.45285225,0.08294677734375,0.3755340576171875,-0.95684814453125,1,0.67
2019-10-19 17:42:05.218 -0400,19,1571521324.001155,33.9960329228722,-81.02736412687615,93.36664,0,105.7296789388167,2.904535789803682,5.038671340595489,-9999,338935.49283725,0.128082275390625,0.394561767578125,-0.9515380859375,1,0.67
2019-10-19 17:42:05.258 -0400,20,1571521325.001157,33.9960340330355,-81.02736156378195,93.35439,0,105.7296801122119,2.572796473699555,5.215865732331304,-9999,338935.53282325,0.0997161865234375,0.3943023681640625,-0.973480224609375,1,0.67
2019-10-19 17:42:05.298 -0400,21,1571521325.001157,33.9960340330355,-81.02736156378195,93.35439,0,105.7296801122119,2.572796473699555,5.215865732331304,-9999,338935.57280925,0.1395263671875,0.3856201171875,-1.003585815429688,1,0.67
2019-10-19 17:42:05.338 -0400,22,1571521325.001157,33.9960340330355,-81.02736156378195,93.35439,0,105.7296801122119,2.572796473699555,5.215865732331304,-9999,338935.61279425,0.228057861328125,0.559967041015625,-0.9646759033203125,1,0.67
2019-10-19 17:42:05.378 -0400,23,1571521325.001157,33.9960340330355,-81.02736156378195,93.35439,0,105.7296801122119,2.572796473699555,5.215865732331304,-9999,338935.65278025,0.2170867919921875,0.5941009521484375,-1.003677368164062,1,0.67
2019-10-19 17:42:05.418 -0400,24,1571521325.001157,33.9960340330355,-81.02736156378195,93.35439,0,105.7296801122119,2.572796473699555,5.215865732331304,-9999,338935.69276525,0.3192291259765625,0.6555023193359375,-1.06524658203125,1,0.67
2019-10-19 17:42:05.458 -0400,25,1571521325.001157,33.9960340330355,-81.02736156378195,93.35439,0,105.7296801122119,2.572796473699555,5.215865732331304,-9999,338935.73275125,0.436309814453125,0.61077880859375,-0.9378509521484375,1,0.67
2019-10-19 17:42:05.498 -0400,26,1571521325.001157,33.9960340330355,-81.02736156378195,93.35439,0,105.7296801122119,2.572796473699555,5.215865732331304,-9999,338935.77273625,0.578704833984375,0.7385101318359375,-1.005447387695312,1,0.67
2019-10-19 17:42:05.538 -0400,27,1571521325.001157,33.9960340330355,-81.02736156378195,93.35439,0,105.7296801122119,2.572796473699555,5.215865732331304,-9999,338935.81272225,0.7238922119140625,0.7123565673828125,-0.868743896484375,1,0.67
2019-10-19 17:42:05.578 -0400,28,1571521325.001157,33.9960340330355,-81.02736156378195,93.35439,0,105.7296801122119,2.572796473699555,5.215865732331304,-9999,338935.85270725,0.7277374267578125,0.73321533203125,-0.7939453125,1,0.67
2019-10-19 17:42:05.618 -0400,29,1571521325.001157,33.9960340330355,-81.02736156378195,93.35439,0,105.7296801122119,2.572796473699555,5.215865732331304,-9999,338935.89269325,0.847320556640625,0.825958251953125,-0.7478485107421875,1,0.67
2019-10-19 17:42:05.658 -0400,30,1571521325.001157,33.9960340330355,-81.02736156378195,93.35439,0,105.7296801122119,2.572796473699555,5.215865732331304,-9999,338935.93267825,0.767669677734375,0.6116790771484375,-0.6175079345703125,1,0.67
2019-10-19 17:42:05.698 -0400,31,1571521325.001157,33.9960340330355,-81.02736156378195,93.35439,0,105.7296801122119,2.572796473699555,5.215865732331304,-9999,338935.97266425,0.574554443359375,0.4817047119140625,-0.5190582275390625,1,0.67
2019-10-19 17:42:05.738 -0400,32,1571521325.001157,33.9960340330355,-81.02736156378195,93.35439,0,105.7296801122119,2.572796473699555,5.215865732331304,-9999,338936.01264925,0.4800567626953125,0.3578033447265625,-0.4180755615234375,1,0.67
2019-10-19 17:42:05.777 -0400,33,1571521325.001157,33.9960340330355,-81.02736156378195,93.35439,0,105.7296801122119,2.572796473699555,5.215865732331304,-9999,338936.05263525,0.5093994140625,0.2732086181640625,-0.4242401123046875,1,0.67
2019-10-19 17:42:05.818 -0400,34,1571521325.001157,33.9960340330355,-81.02736156378195,93.35439,0,105.7296801122119,2.572796473699555,5.215865732331304,-9999,338936.092620125,0.59478759765625,0.2622833251953125,-0.3248748779296875,1,0.67
2019-10-19 17:42:05.860 -0400,35,1571521325.001157,33.9960340330355,-81.02736156378195,93.35439,0,105.7296801122119,2.572796473699555,5.215865732331304,-9999,338936.132606125,0.76788330078125,0.277313232421875,-0.4340667724609375,1,0.67
2019-10-19 17:42:05.898 -0400,36,1571521325.001157,33.9960340330355,-81.02736156378195,93.35439,0,105.7296801122119,2.572796473699555,5.215865732331304,-9999,338936.172591125,0.865875244140625,0.2564697265625,-0.4441070556640625,1,0.67
2019-10-19 17:42:05.937 -0400,37,1571521325.001157,33.9960340330355,-81.02736156378195,93.35439,0,105.7296801122119,2.572796473699555,5.215865732331304,-9999,338936.212577125,0.8914642333984375,0.324371337890625,-0.5120086669921875,1,0.67
2019-10-19 17:42:05.977 -0400,38,1571521325.001157,33.9960340330355,-81.02736156378195,93.35439,0,105.7296801122119,2.572796473699555,5.215865732331304,-9999,338936.252562125,0.7314300537109375,0.3137664794921875,-0.55487060546875,1,0.67
2019-10-19 17:42:06.017 -0400,39,1571521325.001157,33.9960340330355,-81.02736156378195,93.35439,0,105.7296801122119,2.572796473699555,5.215865732331304,-9999,338936.292548125,0.7308502197265625,0.4293975830078125,-0.6107635498046875,1,0.67
2019-10-19 17:42:06.058 -0400,40,1571521325.001157,33.9960340330355,-81.02736156378195,93.35439,0,105.7296801122119,2.572796473699555,5.215865732331304,-9999,338936.332533125,0.680419921875,0.357421875,-0.536224365234375,1,0.67
2019-10-19 17:42:06.097 -0400,41,1571521325.001157,33.9960340330355,-81.02736156378195,93.35439,0,105.7296801122119,2.572796473699555,5.215865732331304,-9999,338936.372519125,1.077133178710938,0.3069610595703125,-0.6400299072265625,1,0.67
2019-10-19 17:42:06.138 -0400,42,1571521325.001157,33.9960340330355,-81.02736156378195,93.35439,0,105.7296801122119,2.572796473699555,5.215865732331304,-9999,338936.412504125,1.635910034179688,0.2318267822265625,-0.5040130615234375,1,0.67
2019-10-19 17:42:06.179 -0400,43,1571521325.001157,33.9960340330355,-81.02736156378195,93.35439,0,105.7296801122119,2.572796473699555,5.215865732331304,-9999,338936.452490125,1.372833251953125,0.2933197021484375,-0.4799041748046875,1,0.67
2019-10-19 17:42:06.217 -0400,44,1571521325.001157,33.9960340330355,-81.02736156378195,93.35439,0,105.7296801122119,2.572796473699555,5.215865732331304,-9999,338936.492476125,0.9857330322265625,0.34344482421875,-0.3939666748046875,1,0.67
2019-10-19 17:42:06.257 -0400,45,1571521325.001157,33.9960340330355,-81.02736156378195,93.35439,0,105.7296801122119,2.572796473699555,5.215865732331304,-9999,338936.532461125,0.779388427734375,0.2525177001953125,-0.3825531005859375,1,0.67
2019-10-19 17:42:06.297 -0400,46,1571521325.001157,33.9960340330355,-81.02736156378195,93.35439,0,105.7296801122119,2.572796473699555,5.215865732331304,-9999,338936.572447125,0.5652313232421875,0.2132568359375,-0.2999267578125,1,0.67
2019-10-19 17:42:06.337 -0400,47,1571521326.001335,33.99604028857548,-81.02735523026534,92.74434,0,105.729682477846,2.149602274423262,5.881339627747,-9999,338936.612432125,0.4412841796875,0.2765045166015625,-0.310699462890625,1,0.67
2019-10-19 17:42:06.377 -0400,48,1571521326.001335,33.99604028857548,-81.02735523026534,92.74434,0,105.729682477846,2.149602274423262,5.881339627747,-9999,338936.652418125,0.4045867919921875,0.2548980712890625,-0.3203125,1,0.67
2019-10-19 17:42:06.417 -0400,49,1571521326.001335,33.99604028857548,-81.02735523026534,92.74434,0,105.729682477846,2.149602274423262,5.881339627747,-9999,338936.692403125,0.5344085693359375,0.3492431640625,-0.3656768798828125,1,0.67
2019-10-19 17:42:06.457 -0400,50,1571521326.001335,33.99604028857548,-81.02735523026534,92.74434,0,105.729682477846,2.149602274423262,5.881339627747,-9999,338936.732389125,0.6371612548828125,0.4226531982421875,-0.34539794921875,1,0.67
2019-10-19 17:42:06.497 -0400,51,1571521326.001335,33.99604028857548,-81.02735523026534,92.74434,0,105.729682477846,2.149602274423262,5.881339627747,-9999,338936.772374125,1.118118286132812,0.5104217529296875,-0.3742828369140625,1,0.67
2019-10-19 17:42:06.537 -0400,52,1571521326.001335,33.99604028857548,-81.02735523026534,92.74434,0,105.729682477846,2.149602274423262,5.881339627747,-9999,338936.812360125,1.522552490234375,0.648773193359375,-0.3446502685546875,1,0.67
2019-10-19 17:42:06.577 -0400,53,1571521326.001335,33.99604028857548,-81.02735523026534,92.74434,0,105.729682477846,2.149602274423262,5.881339627747,-9999,338936.852345125,1.67864990234375,0.516448974609375,-0.1504058837890625,1,0.67
2019-10-19 17:42:06.617 -0400,54,1571521326.001335,33.99604028857548,-81.02735523026534,92.74434,0,105.729682477846,2.149602274423262,5.881339627747,-9999,338936.892331125,1.61962890625,0.5262603759765625,-0.083465576171875,1,0.67
2019-10-19 17:42:06.657 -0400,55,1571521326.001335,33.99604028857548,-81.02735523026534,92.74434,0,105.729682477846,2.149602274423262,5.881339627747,-9999,338936.932316125,1.38775634765625,0.580047607421875,-0.1505889892578125,1,0.67
2019-10-19 17:42:06.697 -0400,56,1571521326.001335,33.99604028857548,-81.02735523026534,92.74434,0,105.729682477846,2.149602274423262,5.881339627747,-9999,338936.972302125,1.095794677734375,0.57464599609375,-0.21063232421875,1,0.67
2019-10-19 17:42:06.737 -0400,57,1571521326.001335,33.99604028857548,-81.02735523026534,92.74434,0,105.729682477846,2.149602274423262,5.881339627747,-9999,338937.012287125,0.857208251953125,0.5587310791015625,-0.2773284912109375,1,0.67
2019-10-19 17:42:06.777 -0400,58,1571521326.001335,33.99604028857548,-81.02735523026534,92.74434,0,105.729682477846,2.149602274423262,5.881339627747,-9999,338937.052273125,0.7635650634765625,0.462921142578125,-0.3877105712890625,1,0.67
2019-10-19 17:42:06.817 -0400,59,1571521326.001335,33.99604028857548,-81.02735523026534,92.74434,0,105.729682477846,2.149602274423262,5.881339627747,-9999,338937.092259125,0.5253448486328125,0.3039398193359375,-0.1845703125,1,0.67
2019-10-19 17:42:06.857 -0400,60,1571521326.001335,33.99604028857548,-81.02735523026534,92.74434,0,105.729682477846,2.149602274423262,5.881339627747,-9999,338937.132245125,0.5907135009765625,0.4915618896484375,-0.225677490234375,1,0.67
2019-10-19 17:42:06.897 -0400,61,1571521326.001335,33.99604028857548,-81.02735523026534,92.74434,0,105.729682477846,2.149602274423262,5.881339627747,-9999,338937.172230125,0.6414031982421875,0.488067626953125,-0.246612548828125,1,0.67
2019-10-19 17:42:06.937 -0400,62,1571521326.001335,33.99604028857548,-81.02735523026534,92.74434,0,105.729682477846,2.149602274423262,5.881339627747,-9999,338937.212216125,0.747833251953125,0.7424468994140625,-0.6622772216796875,1,0.67
2019-10-19 17:42:06.977 -0400,63,1571521326.001335,33.99604028857548,-81.02735523026534,92.74434,0,105.729682477846,2.149602274423262,5.881339627747,-9999,338937.252202125,0.556060791015625,0.5240478515625,-0.797210693359375,1,0.67
2019-10-19 17:42:07.017 -0400,64,1571521326.001335,33.99604028857548,-81.02735523026534,92.74434,0,105.729682477846,2.149602274423262,5.881339627747,-9999,338937.292187125,0.2839508056640625,0.2648773193359375,-1.075973510742188,1,0.67
2019-10-19 17:42:07.057 -0400,65,1571521326.001335,33.99604028857548,-81.02735523026534,92.74434,0,105.729682477846,2.149602274423262,5.881339627747,-9999,338937.332173125,0.0334930419921875,0.2939453125,-1.115432739257812,1,0.67
2019-10-19 17:42:07.097 -0400,66,1571521326.001335,33.99604028857548,-81.02735523026534,92.74434,0,105.729682477846,2.149602274423262,5.881339627747,-9999,338937.372158125,-0.12322998046875,0.1332855224609375,-0.9975738525390625,1,0.67
2019-10-19 17:42:07.137 -0400,67,1571521326.001335,33.99604028857548,-81.02735523026534,92.74434,0,105.729682477846,2.149602274423262,5.881339627747,-9999,338937.412144125,-0.1101531982421875,0.1279144287109375,-0.94207763671875,1,0.67
2019-10-19 17:42:07.177 -0400,68,1571521326.001335,33.99604028857548,-81.02735523026534,92.74434,0,105.729682477846,2.149602274423262,5.881339627747,-9999,338937.452129125,0.0108795166015625,0.1260528564453125,-0.7576141357421875,1,0.67
2019-10-19 17:42:07.217 -0400,69,1571521326.001335,33.99604028857548,-81.02735523026534,92.74434,0,105.729682477846,2.149602274423262,5.881339627747,-9999,338937.492115125,0.039398193359375,0.2076873779296875,-0.846282958984375,1,0.67
2019-10-19 17:42:07.285 -0400,70,1571521326.001335,33.99604028857548,-81.02735523026534,92.74434,0,105.729682477846,2.149602274423262,5.881339627747,-9999,338937.532100125,0.108001708984375,0.2586517333984375,-0.831268310546875,1,0.67
2019-10-19 17:42:07.301 -0400,71,1571521326.001335,33.99604028857548,-81.02735523026534,92.74434,0,105.729682477846,2.149602274423262,5.881339627747,-9999,338937.572086125,0.0990753173828125,0.2802276611328125,-0.8183135986328125,1,0.67
2019-10-19 17:42:07.337 -0400,72,1571521327.001337,33.99605463966162,-81.02735007671589,92.83403,0,105.7296829950541,2.215219624878979,5.789825935106076,-9999,338937.612071125,-0.052032470703125,0.0686187744140625,-0.6328277587890625,1,0.67
2019-10-19 17:42:07.377 -0400,73,1571521327.001337,33.99605463966162,-81.02735007671589,92.83403,0,105.7296829950541,2.215219624878979,5.789825935106076,-9999,338937.652057125,-0.1511383056640625,0.0890350341796875,-0.64239501953125,1,0.67
2019-10-19 17:42:07.417 -0400,74,1571521327.001337,33.99605463966162,-81.02735007671589,92.83403,0,105.7296829950541,2.215219624878979,5.789825935106076,-9999,338937.692042125,-0.2108154296875,0.1212158203125,-0.6434783935546875,1,0.67
2019-10-19 17:42:07.457 -0400,75,1571521327.001337,33.99605463966162,-81.02735007671589,92.83403,0,105.7296829950541,2.215219624878979,5.789825935106076,-9999,338937.732028125,-0.2508697509765625,0.169830322265625,-0.7298431396484375,1,0.67
2019-10-19 17:42:07.497 -0400,76,1571521327.001337,33.99605463966162,-81.02735007671589,92.83403,0,105.7296829950541,2.215219624878979,5.789825935106076,-9999,338937.772014125,-0.25323486328125,0.16839599609375,-0.80517578125,1,0.67
2019-10-19 17:42:07.537 -0400,77,1571521327.001337,33.99605463966162,-81.02735007671589,92.83403,0,105.7296829950541,2.215219624878979,5.789825935106076,-9999,338937.811999125,-0.24627685546875,0.1535797119140625,-0.8757476806640625,1,0.67
2019-10-19 17:42:07.576 -0400,78,1571521327.001337,33.99605463966162,-81.02735007671589,92.83403,0,105.7296829950541,2.215219624878979,5.789825935106076,-9999,338937.851985125,-0.196533203125,0.1875,-0.9236297607421875,1,0.67
2019-10-19 17:42:07.617 -0400,79,1571521327.001337,33.99605463966162,-81.02735007671589,92.83403,0,105.7296829950541,2.215219624878979,5.789825935106076,-9999,338937.891970125,-0.1832733154296875,0.229034423828125,-0.9204864501953125,1,0.67
2019-10-19 17:42:07.657 -0400,80,1571521327.001337,33.99605463966162,-81.02735007671589,92.83403,0,105.7296829950541,2.215219624878979,5.789825935106076,-9999,338937.931956125,-0.1974334716796875,0.2593841552734375,-0.9399871826171875,1,0.67
2019-10-19 17:42:07.697 -0400,81,1571521327.001337,33.99605463966162,-81.02735007671589,92.83403,0,105.7296829950541,2.215219624878979,5.789825935106076,-9999,338937.971941125,-0.047943115234375,0.3524017333984375,-1.112930297851562,1,0.67
2019-10-19 17:42:07.737 -0400,82,1571521327.001337,33.99605463966162,-81.02735007671589,92.83403,0,105.7296829950541,2.215219624878979,5.789825935106076,-9999,338938.011927125,0.01885986328125,0.414703369140625,-1.165817260742188,1,0.67
2019-10-19 17:42:07.777 -0400,83,1571521327.001337,33.99605463966162,-81.02735007671589,92.83403,0,105.7296829950541,2.215219624878979,5.789825935106076,-9999,338938.051912125,0.2459259033203125,0.5702362060546875,-1.28240966796875,1,0.67
2019-10-19 17:42:07.817 -0400,84,1571521327.001337,33.99605463966162,-81.02735007671589,92.83403,0,105.7296829950541,2.215219624878979,5.789825935106076,-9999,338938.0918967917,0.540771484375,0.66021728515625,-1.250396728515625,1,0.67
2019-10-19 17:42:07.860 -0400,85,1571521327.001337,33.99605463966162,-81.02735007671589,92.83403,0,105.7296829950541,2.215219624878979,5.789825935106076,-9999,338938.1318817917,0.5561370849609375,0.5532989501953125,-1.045989990234375,1,0.67
2019-10-19 17:42:07.897 -0400,86,1571521327.001337,33.99605463966162,-81.02735007671589,92.83403,0,105.7296829950541,2.215219624878979,5.789825935106076,-9999,338938.1718677917,0.42156982421875,0.3892974853515625,-0.8241424560546875,1,0.67
2019-10-19 17:42:07.937 -0400,87,1571521327.001337,33.99605463966162,-81.02735007671589,92.83403,0,105.7296829950541,2.215219624878979,5.789825935106076,-9999,338938.2118527917,0.269378662109375,0.403778076171875,-0.729278564453125,1,0.67
2019-10-19 17:42:07.977 -0400,88,1571521327.001337,33.99605463966162,-81.02735007671589,92.83403,0,105.7296829950541,2.215219624878979,5.789825935106076,-9999,338938.2518387917,0.2647247314453125,0.3695068359375,-0.7593536376953125,1,0.67
2019-10-19 17:42:08.017 -0400,89,1571521327.001337,33.99605463966162,-81.02735007671589,92.83403,0,105.7296829950541,2.215219624878979,5.789825935106076,-9999,338938.2918247917,0.286651611328125,0.284820556640625,-0.728729248046875,1,0.67
2019-10-19 17:42:08.057 -0400,90,1571521327.001337,33.99605463966162,-81.02735007671589,92.83403,0,105.7296829950541,2.215219624878979,5.789825935106076,-9999,338938.3318097917,0.2963104248046875,0.2401123046875,-0.71270751953125,1,0.67
2019-10-19 17:42:08.097 -0400,91,1571521327.001337,33.99605463966162,-81.02735007671589,92.83403,0,105.7296829950541,2.215219624878979,5.789825935106076,-9999,338938.3717957917,0.2856597900390625,0.175689697265625,-0.738189697265625,1,0.67
2019-10-19 17:42:08.137 -0400,92,1571521327.001337,33.99605463966162,-81.02735007671589,92.83403,0,105.7296829950541,2.215219624878979,5.789825935106076,-9999,338938.4117807917,0.22918701171875,0.307830810546875,-0.75177001953125,1,0.67
2019-10-19 17:42:08.177 -0400,93,1571521327.001337,33.99605463966162,-81.02735007671589,92.83403,0,105.7296829950541,2.215219624878979,5.789825935106076,-9999,338938.4517667917,0.275726318359375,0.512664794921875,-0.8983001708984375,1,0.67
2019-10-19 17:42:08.217 -0400,94,1571521327.001337,33.99605463966162,-81.02735007671589,92.83403,0,105.7296829950541,2.215219624878979,5.789825935106076,-9999,338938.4917517917,0.37152099609375,0.6360015869140625,-0.9737548828125,1,0.67
2019-10-19 17:42:08.257 -0400,95,1571521328.000947,33.99605534066235,-81.02733610735382,92.65171,1.150228,109.8203257300246,2.075737742523899,6.276699266006164,-9999,338938.5317377917,0.4241485595703125,0.7014617919921875,-0.9917755126953125,1,0.67
2019-10-19 17:42:08.297 -0400,96,1571521328.000947,33.99605534066235,-81.02733610735382,92.65171,1.150228,109.8203257300246,2.075737742523899,6.276699266006164,-9999,338938.5717227917,0.3338470458984375,0.84906005859375,-1.252822875976562,1,0.67
2019-10-19 17:42:08.337 -0400,97,1571521328.000947,33.99605534066235,-81.02733610735382,92.65171,1.150228,109.8203257300246,2.075737742523899,6.276699266006164,-9999,338938.6117087917,0.502288818359375,0.8210601806640625,-1.075164794921875,1,0.67
2019-10-19 17:42:08.377 -0400,98,1571521328.000947,33.99605534066235,-81.02733610735382,92.65171,1.150228,109.8203257300246,2.075737742523899,6.276699266006164,-9999,338938.6516937917,0.3241119384765625,0.855682373046875,-1.08331298828125,1,0.67
2019-10-19 17:42:08.417 -0400,99,1571521328.000947,33.99605534066235,-81.02733610735382,92.65171,1.150228,109.8203257300246,2.075737742523899,6.276699266006164,-9999,338938.6916797917,0.213531494140625,0.6270599365234375,-1.08935546875,1,0.67
2019-10-19 17:42:08.457 -0400,100,1571521328.000947,33.99605534066235,-81.02733610735382,92.65171,1.150228,109.8203257300246,2.075737742523899,6.276699266006164,-9999,338938.7316657917,0.1652984619140625,0.5641326904296875,-0.8716583251953125,1,0.67
2019-10-19 17:42:08.497 -0400,101,1571521328.000947,33.99605534066235,-81.02733610735382,92.65171,1.150228,109.8203257300246,2.075737742523899,6.276699266006164,-9999,338938.7716507917,-0.03143310546875,0.4526519775390625,-0.675384521484375,1,0.67
2019-10-19 17:42:08.537 -0400,102,1571521328.000947,33.99605534066235,-81.02733610735382,92.65171,1.150228,109.8203257300246,2.075737742523899,6.276699266006164,-9999,338938.8116367917,-0.1357421875,0.2753448486328125,-0.6064910888671875,1,0.67
2019-10-19 17:42:08.577 -0400,103,1571521328.000947,33.99605534066235,-81.02733610735382,92.65171,1.150228,109.8203257300246,2.075737742523899,6.276699266006164,-9999,338938.8516217917,-0.1643829345703125,0.25445556640625,-0.5829620361328125,1,0.67
2019-10-19 17:42:08.617 -0400,104,1571521328.000947,33.99605534066235,-81.02733610735382,92.65171,1.150228,109.8203257300246,2.075737742523899,6.276699266006164,-9999,338938.8916077917,-0.207183837890625,0.4793853759765625,-0.6858978271484375,1,0.67
2019-10-19 17:42:08.656 -0400,105,1571521328.000947,33.99605534066235,-81.02733610735382,92.65171,1.150228,109.8203257300246,2.075737742523899,6.276699266006164,-9999,338938.9315927917,-0.19781494140625,0.9175872802734375,-0.9766387939453125,1,0.67
2019-10-19 17:42:08.698 -0400,106,1571521328.000947,33.99605534066235,-81.02733610735382,92.65171,1.150228,109.8203257300246,2.075737742523899,6.276699266006164,-9999,338938.9715787917,-0.4149017333984375,0.555999755859375,-0.787811279296875,1,0.67
2019-10-19 17:42:08.737 -0400,107,1571521328.000947,33.99605534066235,-81.02733610735382,92.65171,1.150228,109.8203257300246,2.075737742523899,6.276699266006164,-9999,338939.0115637917,-0.71612548828125,0.068328857421875,-0.5290374755859375,1,0.67
2019-10-19 17:42:08.777 -0400,108,1571521328.000947,33.99605534066235,-81.02733610735382,92.65171,1.150228,109.8203257300246,2.075737742523899,6.276699266006164,-9999,338939.0515497917,-0.749420166015625,0.097900390625,-0.6816864013671875,1,0.67
2019-10-19 17:42:08.817 -0400,109,1571521328.000947,33.99605534066235,-81.02733610735382,92.65171,1.150228,109.8203257300246,2.075737742523899,6.276699266006164,-9999,338939.0915355417,-0.729217529296875,0.22637939453125,-0.7604217529296875,1,0.67
2019-10-19 17:42:08.857 -0400,110,1571521328.000947,33.99605534066235,-81.02733610735382,92.65171,1.150228,109.8203257300246,2.075737742523899,6.276699266006164,-9999,338939.1315215417,-0.5257415771484375,0.61981201171875,-0.8863525390625,1,0.67
2019-10-19 17:42:08.896 -0400,111,1571521328.000947,33.99605534066235,-81.02733610735382,92.65171,1.150228,109.8203257300246,2.075737742523899,6.276699266006164,-9999,338939.1715075417,-0.3501434326171875,0.7578277587890625,-1.055877685546875,1,0.67
2019-10-19 17:42:08.936 -0400,112,1571521328.000947,33.99605534066235,-81.02733610735382,92.65171,1.150228,109.8203257300246,2.075737742523899,6.276699266006164,-9999,338939.2114925417,-0.1968231201171875,0.4470367431640625,-0.981964111328125,1,0.67
2019-10-19 17:42:08.976 -0400,113,1571521328.000947,33.99605534066235,-81.02733610735382,92.65171,1.150228,109.8203257300246,2.075737742523899,6.276699266006164,-9999,338939.2514785417,-0.20794677734375,0.305084228515625,-0.753936767578125,1,0.67
2019-10-19 17:42:09.016 -0400,114,1571521328.000947,33.99605534066235,-81.02733610735382,92.65171,1.150228,109.8203257300246,2.075737742523899,6.276699266006164,-9999,338939.2914635417,-0.2789459228515625,0.156768798828125,-0.517059326171875,1,0.67
2019-10-19 17:42:09.056 -0400,115,1571521328.000947,33.99605534066235,-81.02733610735382,92.65171,1.150228,109.8203257300246,2.075737742523899,6.276699266006164,-9999,338939.3314495417,-0.28155517578125,0.0176849365234375,-0.4406280517578125,1,0.67
2019-10-19 17:42:09.096 -0400,116,1571521328.000947,33.99605534066235,-81.02733610735382,92.65171,1.150228,109.8203257300246,2.075737742523899,6.276699266006164,-9999,338939.3714345417,-0.3412933349609375,0.0339813232421875,-0.4635467529296875,1,0.67
2019-10-19 17:42:09.136 -0400,117,1571521328.000947,33.99605534066235,-81.02733610735382,92.65171,1.150228,109.8203257300246,2.075737742523899,6.276699266006164,-9999,338939.4114205417,-0.3908538818359375,0.186920166015625,-0.5686798095703125,1,0.67
2019-10-19 17:42:09.176 -0400,118,1571521328.000947,33.99605534066235,-81.02733610735382,92.65171,1.150228,109.8203257300246,2.075737742523899,6.276699266006164,-9999,338939.4514055417,-0.4024505615234375,0.2516937255859375,-0.6518707275390625,1,0.67
2019-10-19 17:42:09.216 -0400,119,1571521328.000947,33.99605534066235,-81.02733610735382,92.65171,1.150228,109.8203257300246,2.075737742523899,6.276699266006164,-9999,338939.4913915417,-0.3027191162109375,0.3356781005859375,-0.8582611083984375,1,0.67
2019-10-19 17:42:09.256 -0400,120,1571521328.000947,33.99605534066235,-81.02733610735382,92.65171,1.150228,109.8203257300246,2.075737742523899,6.276699266006164,-9999,338939.5313775417,-0.1589508056640625,0.4370880126953125,-1.042922973632812,1,0.67
2019-10-19 17:42:09.296 -0400,121,1571521328.000947,33.99605534066235,-81.02733610735382,92.65171,1.150228,109.8203257300246,2.075737742523899,6.276699266006164,-9999,338939.5713625417,-0.1050262451171875,0.4575347900390625,-0.9402618408203125,1,0.67
2019-10-19 17:42:09.336 -0400,122,1571521328.000947,33.99605534066235,-81.02733610735382,92.65171,1.150228,109.8203257300246,2.075737742523899,6.276699266006164,-9999,338939.6113485417,0.1256866455078125,0.4959869384765625,-1.176513671875,1,0.67
2019-10-19 17:42:09.382 -0400,123,1571521329.000949,33.99605587501876,-81.02733067648961,92.98653,1.107454,110.2051520963549,1.732676587386777,6.974883891340729,-9999,338939.6513335417,0.2117767333984375,0.3037261962890625,-0.9275970458984375,1,0.67
2019-10-19 17:42:09.416 -0400,124,1571521329.000949,33.99605587501876,-81.02733067648961,92.98653,1.107454,110.2051520963549,1.732676587386777,6.974883891340729,-9999,338939.6913195417,0.0699462890625,0.5089263916015625,-0.963623046875,1,0.67
2019-10-19 17:42:09.456 -0400,125,1571521329.000949,33.99605587501876,-81.02733067648961,92.98653,1.107454,110.2051520963549,1.732676587386777,6.974883891340729,-9999,338939.7313045417,0.4087982177734375,0.5025787353515625,-0.9594573974609375,1,0.67
2019-10-19 17:42:09.496 -0400,126,1571521329.000949,33.99605587501876,-81.02733067648961,92.98653,1.107454,110.2051520963549,1.732676587386777,6.974883891340729,-9999,338939.7712905417,0.380096435546875,0.419342041015625,-0.7097320556640625,1,0.67
2019-10-19 17:42:09.536 -0400,127,1571521329.000949,33.99605587501876,-81.02733067648961,92.98653,1.107454,110.2051520963549,1.732676587386777,6.974883891340729,-9999,338939.8112755417,0.2858123779296875,0.4079437255859375,-0.6263580322265625,1,0.67
2019-10-19 17:42:09.576 -0400,128,1571521329.000949,33.99605587501876,-81.02733067648961,92.98653,1.107454,110.2051520963549,1.732676587386777,6.974883891340729,-9999,338939.8512615417,0.24578857421875,0.2466278076171875,-0.574737548828125,1,0.67
2019-10-19 17:42:09.616 -0400,129,1571521329.000949,33.99605587501876,-81.02733067648961,92.98653,1.107454,110.2051520963549,1.732676587386777,6.974883891340729,-9999,338939.8912475417,0.4319000244140625,0.4578094482421875,-0.7678680419921875,1,0.67
2019-10-19 17:42:09.656 -0400,130,1571521329.000949,33.99605587501876,-81.02733067648961,92.98653,1.107454,110.2051520963549,1.732676587386777,6.974883891340729,-9999,338939.9312325417,0.4816741943359375,0.4760284423828125,-0.7256927490234375,1,0.67
2019-10-19 17:42:09.696 -0400,131,1571521329.000949,33.99605587501876,-81.02733067648961,92.98653,1.107454,110.2051520963549,1.732676587386777,6.974883891340729,-9999,338939.9712185417,0.4573974609375,0.4764556884765625,-0.7481536865234375,1,0.67
2019-10-19 17:42:09.736 -0400,132,1571521329.000949,33.99605587501876,-81.02733067648961,92.98653,1.107454,110.2051520963549,1.732676587386777,6.974883891340729,-9999,338940.0112035417,0.4393463134765625,0.5348663330078125,-0.799163818359375,1,0.67
2019-10-19 17:42:09.776 -0400,133,1571521329.000949,33.99605587501876,-81.02733067648961,92.98653,1.107454,110.2051520963549,1.732676587386777,6.974883891340729,-9999,338940.0511895417,0.5403594970703125,0.5905914306640625,-0.8494873046875,1,0.67
2019-10-19 17:42:09.816 -0400,134,1571521329.000949,33.99605587501876,-81.02733067648961,92.98653,1.107454,110.2051520963549,1.732676587386777,6.974883891340729,-9999,338940.091174875,0.601409912109375,0.67999267578125,-0.8601837158203125,1,0.67
2019-10-19 17:42:09.856 -0400,135,1571521329.000949,33.99605587501876,-81.02733067648961,92.98653,1.107454,110.2051520963549,1.732676587386777,6.974883891340729,-9999,338940.131160875,0.600799560546875,0.7621002197265625,-0.927825927734375,1,0.67
2019-10-19 17:42:09.900 -0400,136,1571521329.000949,33.99605587501876,-81.02733067648961,92.98653,1.107454,110.2051520963549,1.732676587386777,6.974883891340729,-9999,338940.171145875,0.7044830322265625,0.855621337890625,-0.990753173828125,1,0.67
2019-10-19 17:42:09.936 -0400,137,1571521329.000949,33.99605587501876,-81.02733067648961,92.98653,1.107454,110.2051520963549,1.732676587386777,6.974883891340729,-9999,338940.211131875,0.962005615234375,0.7548980712890625,-0.8310699462890625,1,0.67
2019-10-19 17:42:09.976 -0400,138,1571521329.000949,33.99605587501876,-81.02733067648961,92.98653,1.107454,110.2051520963549,1.732676587386777,6.974883891340729,-9999,338940.251117875,1.01739501953125,0.63348388671875,-0.6862640380859375,1,0.67
2019-10-19 17:42:10.016 -0400,139,1571521329.000949,33.99605587501876,-81.02733067648961,92.98653,1.107454,110.2051520963549,1.732676587386777,6.974883891340729,-9999,338940.291102875,0.8789215087890625,0.5106964111328125,-0.5586090087890625,1,0.67
2019-10-19 17:42:10.056 -0400,140,1571521329.000949,33.99605587501876,-81.02733067648961,92.98653,1.107454,110.2051520963549,1.732676587386777,6.974883891340729,-9999,338940.331088875,0.678314208984375,0.3827667236328125,-0.4422760009765625,1,0.67
2019-10-19 17:42:10.096 -0400,141,1571521329.000949,33.99605587501876,-81.02733067648961,92.98653,1.107454,110.2051520963549,1.732676587386777,6.974883891340729,-9999,338940.371073875,0.562835693359375,0.2649383544921875,-0.3177947998046875,1,0.67
2019-10-19 17:42:10.155 -0400,142,1571521329.000949,33.99605587501876,-81.02733067648961,92.98653,1.107454,110.2051520963549,1.732676587386777,6.974883891340729,-9999,338940.411059875,0.599456787109375,0.1640625,-0.259674072265625,1,0.67
2019-10-19 17:42:10.176 -0400,143,1571521329.000949,33.99605587501876,-81.02733067648961,92.98653,1.107454,110.2051520963549,1.732676587386777,6.974883891340729,-9999,338940.451044875,0.7202911376953125,0.1060333251953125,-0.1928253173828125,1,0.67
2019-10-19 17:42:10.216 -0400,144,1571521329.000949,33.99605587501876,-81.02733067648961,92.98653,1.107454,110.2051520963549,1.732676587386777,6.974883891340729,-9999,338940.491030875,0.976959228515625,0.1004180908203125,-0.20477294921875,1,0.67
2019-10-19 17:42:10.266 -0400,145,1571521329.000949,33.99605587501876,-81.02733067648961,92.98653,1.107454,110.2051520963549,1.732676587386777,6.974883891340729,-9999,338940.531015875,1.111724853515625,0.032928466796875,-0.2614288330078125,1,0.67
2019-10-19 17:42:10.296 -0400,146,1571521330.001034,33.99605685447988,-81.02732768667536,93.51492,0.6632496,109.8025089534214,1.319010589059493,8.052355114653533,-9999,338940.571001875,1.051284790039062,0.10760498046875,-0.3824310302734375,1,0.67
2019-10-19 17:42:10.336 -0400,147,1571521330.001034,33.99605685447988,-81.02732768667536,93.51492,0.6632496,109.8025089534214,1.319010589059493,8.052355114653533,-9999,338940.610987875,1.309600830078125,0.2342071533203125,-0.531982421875,1,0.67
2019-10-19 17:42:10.380 -0400,148,1571521330.001034,33.99605685447988,-81.02732768667536,93.51492,0.6632496,109.8025089534214,1.319010589059493,8.052355114653533,-9999,338940.650972875,0.8932647705078125,0.307891845703125,-0.5619659423828125,1,0.67
2019-10-19 17:42:10.416 -0400,149,1571521330.001034,33.99605685447988,-81.02732768667536,93.51492,0.6632496,109.8025089534214,1.319010589059493,8.052355114653533,-9999,338940.690958875,1.115707397460938,0.1806640625,-0.634490966796875,1,0.67
2019-10-19 17:42:10.456 -0400,150,1571521330.001034,33.99605685447988,-81.02732768667536,93.51492,0.6632496,109.8025089534214,1.319010589059493,8.052355114653533,-9999,338940.730943875,1.278549194335938,0.1313934326171875,-0.6267242431640625,1,0.67
2019-10-19 17:42:10.496 -0400,151,1571521330.001034,33.99605685447988,-81.02732768667536,93.51492,0.6632496,109.8025089534214,1.319010589059493,8.052355114653533,-9999,338940.770929875,0.9049224853515625,0.1624755859375,-0.4320068359375,1,0.67
2019-10-19 17:42:10.536 -0400,152,1571521330.001034,33.99605685447988,-81.02732768667536,93.51492,0.6632496,109.8025089534214,1.319010589059493,8.052355114653533,-9999,338940.810914875,0.649871826171875,0.1479034423828125,-0.3350372314453125,1,0.67
2019-10-19 17:42:10.576 -0400,153,1571521330.001034,33.99605685447988,-81.02732768667536,93.51492,0.6632496,109.8025089534214,1.319010589059493,8.052355114653533,-9999,338940.850900875,0.5862579345703125,0.166290283203125,-0.3262176513671875,1,0.67
2019-10-19 17:42:10.616 -0400,154,1571521330.001034,33.99605685447988,-81.02732768667536,93.51492,0.6632496,109.8025089534214,1.319010589059493,8.052355114653533,-9999,338940.890885875,0.5552520751953125,0.1383819580078125,-0.2480316162109375,1,0.67
2019-10-19 17:42:10.656 -0400,155,1571521330.001034,33.99605685447988,-81.02732768667536,93.51492,0.6632496,109.8025089534214,1.319010589059493,8.052355114653533,-9999,338940.930871875,0.6207427978515625,0.18743896484375,-0.2620391845703125,1,0.67
2019-10-19 17:42:10.696 -0400,156,1571521330.001034,33.99605685447988,-81.02732768667536,93.51492,0.6632496,109.8025089534214,1.319010589059493,8.052355114653533,-9999,338940.970857875,0.777252197265625,0.1443023681640625,-0.29376220703125,1,0.67
2019-10-19 17:42:10.736 -0400,157,1571521330.001034,33.99605685447988,-81.02732768667536,93.51492,0.6632496,109.8025089534214,1.319010589059493,8.052355114653533,-9999,338941.010842875,0.93408203125,0.1959075927734375,-0.2537384033203125,1,0.67
2019-10-19 17:42:10.776 -0400,158,1571521330.001034,33.99605685447988,-81.02732768667536,93.51492,0.6632496,109.8025089534214,1.319010589059493,8.052355114653533,-9999,338941.050828875,1.09979248046875,0.227294921875,-0.2918548583984375,1,0.67
2019-10-19 17:42:10.816 -0400,159,1571521330.001034,33.99605685447988,-81.02732768667536,93.51492,0.6632496,109.8025089534214,1.319010589059493,8.052355114653533,-9999,338941.0908142917,1.272201538085938,0.2714385986328125,-0.3386077880859375,1,0.67
2019-10-19 17:42:10.855 -0400,160,1571521330.001034,33.99605685447988,-81.02732768667536,93.51492,0.6632496,109.8025089534214,1.319010589059493,8.052355114653533,-9999,338941.1308002917,1.862106323242188,0.432708740234375,-0.4026641845703125,1,0.67
2019-10-19 17:42:10.900 -0400,161,1571521330.001034,33.99605685447988,-81.02732768667536,93.51492,0.6632496,109.8025089534214,1.319010589059493,8.052355114653533,-9999,338941.1707852917,1.267929077148438,0.33416748046875,-0.19061279296875,1,0.67
2019-10-19 17:42:10.936 -0400,162,1571521330.001034,33.99605685447988,-81.02732768667536,93.51492,0.6632496,109.8025089534214,1.319010589059493,8.052355114653533,-9999,338941.2107712917,1.151809692382812,-0.023834228515625,-0.0540771484375,1,0.67
2019-10-19 17:42:10.976 -0400,163,1571521330.001034,33.99605685447988,-81.02732768667536,93.51492,0.6632496,109.8025089534214,1.319010589059493,8.052355114653533,-9999,338941.2507572917,1.346755981445312,-0.2650299072265625,0.14501953125,1,0.67
2019-10-19 17:42:11.016 -0400,164,1571521330.001034,33.99605685447988,-81.02732768667536,93.51492,0.6632496,109.8025089534214,1.319010589059493,8.052355114653533,-9999,338941.2907422917,0.9888916015625,0.0033416748046875,0.0969696044921875,1,0.67
2019-10-19 17:42:11.056 -0400,165,1571521330.001034,33.99605685447988,-81.02732768667536,93.51492,0.6632496,109.8025089534214,1.319010589059493,8.052355114653533,-9999,338941.3307282917,0.6279296875,-0.0677947998046875,0.0233154296875,1,0.67
2019-10-19 17:42:11.095 -0400,166,1571521330.001034,33.99605685447988,-81.02732768667536,93.51492,0.6632496,109.8025089534214,1.319010589059493,8.052355114653533,-9999,338941.3707132917,0.54010009765625,-0.0755462646484375,0.075958251953125,1,0.67
2019-10-19 17:42:11.135 -0400,167,1571521330.001034,33.99605685447988,-81.02732768667536,93.51492,0.6632496,109.8025089534214,1.319010589059493,8.052355114653533,-9999,338941.4106992917,0.5666351318359375,0.0154571533203125,0.1383209228515625,1,0.67
2019-10-19 17:42:11.175 -0400,168,1571521330.001034,33.99605685447988,-81.02732768667536,93.51492,0.6632496,109.8025089534214,1.319010589059493,8.052355114653533,-9999,338941.4506842917,0.6577606201171875,0.116546630859375,0.1243133544921875,1,0.67
2019-10-19 17:42:11.215 -0400,169,1571521330.001034,33.99605685447988,-81.02732768667536,93.51492,0.6632496,109.8025089534214,1.319010589059493,8.052355114653533,-9999,338941.4906702917,0.803314208984375,0.1977386474609375,0.218658447265625,1,0.67
2019-10-19 17:42:11.255 -0400,170,1571521330.001034,33.99605685447988,-81.02732768667536,93.51492,0.6632496,109.8025089534214,1.319010589059493,8.052355114653533,-9999,338941.5306552917,0.99688720703125,0.206512451171875,0.196868896484375,1,0.67
2019-10-19 17:42:11.295 -0400,171,1571521330.001034,33.99605685447988,-81.02732768667536,93.51492,0.6632496,109.8025089534214,1.319010589059493,8.052355114653533,-9999,338941.5706412917,1.110763549804688,0.1734619140625,0.1732635498046875,1,0.67
2019-10-19 17:42:11.346 -0400,172,1571521330.001034,33.99605685447988,-81.02732768667536,93.51492,0.6632496,109.8025089534214,1.319010589059493,8.052355114653533,-9999,338941.6106272917,1.21527099609375,0.16668701171875,0.1651153564453125,1,0.67
2019-10-19 17:42:11.375 -0400,173,1571521331.001036,33.99607369194892,-81.0273359840925,93.1057,0,109.5240325401995,1.367582178545521,8.729280551497475,-9999,338941.6506122917,1.2000732421875,0.2547607421875,-0.0507965087890625,1,0.67
2019-10-19 17:42:11.415 -0400,174,1571521331.001036,33.99607369194892,-81.0273359840925,93.1057,0,109.5240325401995,1.367582178545521,8.729280551497475,-9999,338941.6905982917,1.399551391601562,0.3714752197265625,-0.22265625,1,0.67
2019-10-19 17:42:11.455 -0400,175,1571521331.001036,33.99607369194892,-81.0273359840925,93.1057,0,109.5240325401995,1.367582178545521,8.729280551497475,-9999,338941.7305832917,0.905670166015625,0.190704345703125,-0.35748291015625,1,0.67
2019-10-19 17:42:11.495 -0400,176,1571521331.001036,33.99607369194892,-81.0273359840925,93.1057,0,109.5240325401995,1.367582178545521,8.729280551497475,-9999,338941.7705692917,0.70721435546875,-0.0748138427734375,-0.38336181640625,1,0.67
2019-10-19 17:42:11.535 -0400,177,1571521331.001036,33.99607369194892,-81.0273359840925,93.1057,0,109.5240325401995,1.367582178545521,8.729280551497475,-9999,338941.8105542917,1.125350952148438,-0.0943450927734375,-0.11834716796875,1,0.67
2019-10-19 17:42:11.575 -0400,178,1571521331.001036,33.99607369194892,-81.0273359840925,93.1057,0,109.5240325401995,1.367582178545521,8.729280551497475,-9999,338941.8505402917,1.275070190429688,0.1449127197265625,-0.0915069580078125,1,0.67
2019-10-19 17:42:11.615 -0400,179,1571521331.001036,33.99607369194892,-81.0273359840925,93.1057,0,109.5240325401995,1.367582178545521,8.729280551497475,-9999,338941.8905252917,1.11944580078125,0.15277099609375,-0.1345672607421875,1,0.67
2019-10-19 17:42:11.655 -0400,180,1571521331.001036,33.99607369194892,-81.0273359840925,93.1057,0,109.5240325401995,1.367582178545521,8.729280551497475,-9999,338941.9305112917,0.8336334228515625,0.08843994140625,-0.173095703125,1,0.67
2019-10-19 17:42:11.695 -0400,181,1571521331.001036,33.99607369194892,-81.0273359840925,93.1057,0,109.5240325401995,1.367582178545521,8.729280551497475,-9999,338941.9704972917,0.6187591552734375,0.18328857421875,-0.1141357421875,1,0.67
2019-10-19 17:42:11.735 -0400,182,1571521331.001036,33.99607369194892,-81.0273359840925,93.1057,0,109.5240325401995,1.367582178545521,8.729280551497475,-9999,338942.0104822917,0.6202392578125,0.28448486328125,-0.0718841552734375,1,0.67
2019-10-19 17:42:11.775 -0400,183,1571521331.001036,33.99607369194892,-81.0273359840925,93.1057,0,109.5240325401995,1.367582178545521,8.729280551497475,-9999,338942.0504682917,0.6592864990234375,0.332916259765625,-0.103729248046875,1,0.67
2019-10-19 17:42:11.815 -0400,184,1571521331.001036,33.99607369194892,-81.0273359840925,93.1057,0,109.5240325401995,1.367582178545521,8.729280551497475,-9999,338942.0904529167,0.8160247802734375,0.44134521484375,-0.13665771484375,1,0.67
2019-10-19 17:42:11.855 -0400,185,1571521331.001036,33.99607369194892,-81.0273359840925,93.1057,0,109.5240325401995,1.367582178545521,8.729280551497475,-9999,338942.1304389167,0.9763946533203125,0.5048828125,-0.2095184326171875,1,0.67
2019-10-19 17:42:11.895 -0400,186,1571521331.001036,33.99607369194892,-81.0273359840925,93.1057,0,109.5240325401995,1.367582178545521,8.729280551497475,-9999,338942.1704239167,1.11614990234375,0.55303955078125,-0.212493896484375,1,0.67
2019-10-19 17:42:11.935 -0400,187,1571521331.001036,33.99607369194892,-81.0273359840925,93.1057,0,109.5240325401995,1.367582178545521,8.729280551497475,-9999,338942.2104099167,1.117111206054688,0.616363525390625,-0.2348175048828125,1,0.67
2019-10-19 17:42:11.975 -0400,188,1571521331.001036,33.99607369194892,-81.0273359840925,93.1057,0,109.5240325401995,1.367582178545521,8.729280551497475,-9999,338942.2503959167,1.074478149414062,0.5442657470703125,-0.18218994140625,1,0.67
2019-10-19 17:42:12.015 -0400,189,1571521331.001036,33.99607369194892,-81.0273359840925,93.1057,0,109.5240325401995,1.367582178545521,8.729280551497475,-9999,338942.2903809167,1.188201904296875,0.5897369384765625,-0.217010498046875,1,0.67
2019-10-19 17:42:12.055 -0400,190,1571521331.001036,33.99607369194892,-81.0273359840925,93.1057,0,109.5240325401995,1.367582178545521,8.729280551497475,-9999,338942.3303669167,1.064132690429688,0.6098175048828125,-0.282501220703125,1,0.67
2019-10-19 17:42:12.095 -0400,191,1571521331.001036,33.99607369194892,-81.0273359840925,93.1057,0,109.5240325401995,1.367582178545521,8.729280551497475,-9999,338942.3703519167,1.281753540039062,0.68206787109375,-0.1165924072265625,1,0.67
2019-10-19 17:42:12.135 -0400,192,1571521331.001036,33.99607369194892,-81.0273359840925,93.1057,0,109.5240325401995,1.367582178545521,8.729280551497475,-9999,338942.4103379167,1.329437255859375,0.7082672119140625,-0.084625244140625,1,0.67
2019-10-19 17:42:12.175 -0400,193,1571521331.001036,33.99607369194892,-81.0273359840925,93.1057,0,109.5240325401995,1.367582178545521,8.729280551497475,-9999,338942.4503229167,1.151138305664062,0.5940704345703125,-0.1483154296875,1,0.67
2019-10-19 17:42:12.217 -0400,194,1571521332.001415,33.99608287888611,-81.02734367509854,93.17861,0,109.5240306904003,1.344310761307428,9.244265562954293,-9999,338942.4903089167,0.94439697265625,0.4490203857421875,-0.1106719970703125,1,0.67
2019-10-19 17:42:12.255 -0400,195,1571521332.001415,33.99608287888611,-81.02734367509854,93.17861,0,109.5240306904003,1.344310761307428,9.244265562954293,-9999,338942.5302939167,0.8012847900390625,0.3732757568359375,-0.107330322265625,1,0.67
2019-10-19 17:42:12.295 -0400,196,1571521332.001415,33.99608287888611,-81.02734367509854,93.17861,0,109.5240306904003,1.344310761307428,9.244265562954293,-9999,338942.5702799167,0.7650146484375,0.4028778076171875,-0.183135986328125,1,0.67
2019-10-19 17:42:12.335 -0400,197,1571521332.001415,33.99608287888611,-81.02734367509854,93.17861,0,109.5240306904003,1.344310761307428,9.244265562954293,-9999,338942.6102659167,0.7930755615234375,0.4776611328125,-0.247772216796875,1,0.67
2019-10-19 17:42:12.375 -0400,198,1571521332.001415,33.99608287888611,-81.02734367509854,93.17861,0,109.5240306904003,1.344310761307428,9.244265562954293,-9999,338942.6502509167,0.788360595703125,0.552703857421875,-0.30615234375,1,0.67
2019-10-19 17:42:12.415 -0400,199,1571521332.001415,33.99608287888611,-81.02734367509854,93.17861,0,109.5240306904003,1.344310761307428,9.244265562954293,-9999,338942.6902369167,0.7821044921875,0.7181243896484375,-0.4669189453125,1,0.67
2019-10-19 17:42:12.455 -0400,200,1571521332.001415,33.99608287888611,-81.02734367509854,93.17861,0,109.5240306904003,1.344310761307428,9.244265562954293,-9999,338942.7302219167,0.6814422607421875,0.897552490234375,-0.6470794677734375,1,0.67
2019-10-19 17:42:12.495 -0400,201,1571521332.001415,33.99608287888611,-81.02734367509854,93.17861,0,109.5240306904003,1.344310761307428,9.244265562954293,-9999,338942.7702079167,0.4501800537109375,0.86846923828125,-0.7515716552734375,1,0.67
2019-10-19 17:42:12.535 -0400,202,1571521332.001415,33.99608287888611,-81.02734367509854,93.17861,0,109.5240306904003,1.344310761307428,9.244265562954293,-9999,338942.8101929167,0.2048187255859375,0.8966217041015625,-0.9112396240234375,1,0.67
2019-10-19 17:42:12.575 -0400,203,1571521332.001415,33.99608287888611,-81.02734367509854,93.17861,0,109.5240306904003,1.344310761307428,9.244265562954293,-9999,338942.8501789167,0.0771484375,0.7777862548828125,-0.959716796875,1,0.67
2019-10-19 17:42:12.615 -0400,204,1571521332.001415,33.99608287888611,-81.02734367509854,93.17861,0,109.5240306904003,1.344310761307428,9.244265562954293,-9999,338942.8901649167,-0.01483154296875,0.7733306884765625,-0.850006103515625,1,0.67
2019-10-19 17:42:12.655 -0400,205,1571521332.001415,33.99608287888611,-81.02734367509854,93.17861,0,109.5240306904003,1.344310761307428,9.244265562954293,-9999,338942.9301499167,-0.0295562744140625,0.8263397216796875,-0.7583770751953125,1,0.67
2019-10-19 17:42:12.695 -0400,206,1571521332.001415,33.99608287888611,-81.02734367509854,93.17861,0,109.5240306904003,1.344310761307428,9.244265562954293,-9999,338942.9701359167,0.05963134765625,0.7812652587890625,-0.7182464599609375,1,0.67
2019-10-19 17:42:12.735 -0400,207,1571521332.001415,33.99608287888611,-81.02734367509854,93.17861,0,109.5240306904003,1.344310761307428,9.244265562954293,-9999,338943.0101209167,-0.1387939453125,0.3334197998046875,-0.584320068359375,1,0.67
2019-10-19 17:42:12.775 -0400,208,1571521332.001415,33.99608287888611,-81.02734367509854,93.17861,0,109.5240306904003,1.344310761307428,9.244265562954293,-9999,338943.0501069167,-0.252349853515625,0.205108642578125,-0.4464569091796875,1,0.67
2019-10-19 17:42:12.815 -0400,209,1571521332.001415,33.99608287888611,-81.02734367509854,93.17861,0,109.5240306904003,1.344310761307428,9.244265562954293,-9999,338943.0900920417,-0.303070068359375,0.025604248046875,-0.2194671630859375,1,0.67
2019-10-19 17:42:12.855 -0400,210,1571521332.001415,33.99608287888611,-81.02734367509854,93.17861,0,109.5240306904003,1.344310761307428,9.244265562954293,-9999,338943.1300780417,-0.29180908203125,0.349578857421875,-0.2803192138671875,1,0.67
2019-10-19 17:42:12.895 -0400,211,1571521332.001415,33.99608287888611,-81.02734367509854,93.17861,0,109.5240306904003,1.344310761307428,9.244265562954293,-9999,338943.1700630417,-0.17767333984375,0.5044097900390625,-0.160919189453125,1,0.67
2019-10-19 17:42:12.935 -0400,212,1571521332.001415,33.99608287888611,-81.02734367509854,93.17861,0,109.5240306904003,1.344310761307428,9.244265562954293,-9999,338943.2100490417,-0.16619873046875,0.5316619873046875,-0.345184326171875,1,0.67
2019-10-19 17:42:12.976 -0400,213,1571521332.001415,33.99608287888611,-81.02734367509854,93.17861,0,109.5240306904003,1.344310761307428,9.244265562954293,-9999,338943.2500350417,-0.3164520263671875,0.701751708984375,-0.45538330078125,1,0.67
2019-10-19 17:42:13.015 -0400,214,1571521332.001415,33.99608287888611,-81.02734367509854,93.17861,0,109.5240306904003,1.344310761307428,9.244265562954293,-9999,338943.2900200417,-0.1973724365234375,0.9735260009765625,-0.6879730224609375,1,0.67
2019-10-19 17:42:13.055 -0400,215,1571521332.001415,33.99608287888611,-81.02734367509854,93.17861,0,109.5240306904003,1.344310761307428,9.244265562954293,-9999,338943.3300060417,-0.1875152587890625,0.6150970458984375,-0.9310150146484375,1,0.67
2019-10-19 17:42:13.095 -0400,216,1571521332.001415,33.99608287888611,-81.02734367509854,93.17861,0,109.5240306904003,1.344310761307428,9.244265562954293,-9999,338943.3699910417,-0.2661895751953125,0.3924560546875,-1.01666259765625,1,0.67
2019-10-19 17:42:13.135 -0400,217,1571521332.001415,33.99608287888611,-81.02734367509854,93.17861,0,109.5240306904003,1.344310761307428,9.244265562954293,-9999,338943.4099770417,-0.2426910400390625,0.6243896484375,-1.19134521484375,1,0.67
2019-10-19 17:42:13.175 -0400,218,1571521332.001415,33.99608287888611,-81.02734367509854,93.17861,0,109.5240306904003,1.344310761307428,9.244265562954293,-9999,338943.4499620417,-0.2101898193359375,0.4558258056640625,-1.084014892578125,1,0.67
2019-10-19 17:42:13.215 -0400,219,1571521332.001415,33.99608287888611,-81.02734367509854,93.17861,0,109.5240306904003,1.344310761307428,9.244265562954293,-9999,338943.4899480417,-0.2464599609375,0.195159912109375,-0.818756103515625,1,0.67
2019-10-19 17:42:13.265 -0400,220,1571521332.001415,33.99608287888611,-81.02734367509854,93.17861,0,109.5240306904003,1.344310761307428,9.244265562954293,-9999,338943.5299330417,-0.21478271484375,0.0672607421875,-0.6157073974609375,1,0.67
2019-10-19 17:42:13.295 -0400,221,1571521333.001417,33.99607863674787,-81.02735162155396,93.79382,1.109499,174.1533828573622,1.286434513005011,9.80559495108076,-9999,338943.5699190417,-0.100433349609375,0.8052520751953125,-0.943359375,1,0.67
2019-10-19 17:42:13.335 -0400,222,1571521333.001417,33.99607863674787,-81.02735162155396,93.79382,1.109499,174.1533828573622,1.286434513005011,9.80559495108076,-9999,338943.6099050417,0.0348663330078125,0.6915435791015625,-0.876861572265625,1,0.67
2019-10-19 17:42:13.375 -0400,223,1571521333.001417,33.99607863674787,-81.02735162155396,93.79382,1.109499,174.1533828573622,1.286434513005011,9.80559495108076,-9999,338943.6498900417,0.14111328125,0.4592437744140625,-0.9181671142578125,1,0.67
2019-10-19 17:42:13.415 -0400,224,1571521333.001417,33.99607863674787,-81.02735162155396,93.79382,1.109499,174.1533828573622,1.286434513005011,9.80559495108076,-9999,338943.6898760417,0.2638397216796875,0.4498138427734375,-1.023910522460938,1,0.67
2019-10-19 17:42:13.455 -0400,225,1571521333.001417,33.99607863674787,-81.02735162155396,93.79382,1.109499,174.1533828573622,1.286434513005011,9.80559495108076,-9999,338943.7298610417,0.2615814208984375,0.47540283203125,-0.9482421875,1,0.67
2019-10-19 17:42:13.495 -0400,226,1571521333.001417,33.99607863674787,-81.02735162155396,93.79382,1.109499,174.1533828573622,1.286434513005011,9.80559495108076,-9999,338943.7698470417,0.1458892822265625,0.546295166015625,-1.090103149414062,1,0.67
2019-10-19 17:42:13.535 -0400,227,1571521333.001417,33.99607863674787,-81.02735162155396,93.79382,1.109499,174.1533828573622,1.286434513005011,9.80559495108076,-9999,338943.8098320417,0.119354248046875,0.5133819580078125,-1.107254028320312,1,0.67
2019-10-19 17:42:13.575 -0400,228,1571521333.001417,33.99607863674787,-81.02735162155396,93.79382,1.109499,174.1533828573622,1.286434513005011,9.80559495108076,-9999,338943.8498180417,0.1082305908203125,0.5192413330078125,-1.013214111328125,1,0.67
2019-10-19 17:42:13.615 -0400,229,1571521333.001417,33.99607863674787,-81.02735162155396,93.79382,1.109499,174.1533828573622,1.286434513005011,9.80559495108076,-9999,338943.8898040417,0.0729522705078125,0.44500732421875,-0.89715576171875,1,0.67
2019-10-19 17:42:13.655 -0400,230,1571521333.001417,33.99607863674787,-81.02735162155396,93.79382,1.109499,174.1533828573622,1.286434513005011,9.80559495108076,-9999,338943.9297890417,0.0409393310546875,0.291595458984375,-0.9696502685546875,1,0.67
2019-10-19 17:42:13.694 -0400,231,1571521333.001417,33.99607863674787,-81.02735162155396,93.79382,1.109499,174.1533828573622,1.286434513005011,9.80559495108076,-9999,338943.9697750417,0.0264434814453125,0.1680755615234375,-0.9515380859375,1,0.67
2019-10-19 17:42:13.734 -0400,232,1571521333.001417,33.99607863674787,-81.02735162155396,93.79382,1.109499,174.1533828573622,1.286434513005011,9.80559495108076,-9999,338944.0097600417,0.1060791015625,0.1126251220703125,-1.047332763671875,1,0.67
2019-10-19 17:42:13.774 -0400,233,1571521333.001417,33.99607863674787,-81.02735162155396,93.79382,1.109499,174.1533828573622,1.286434513005011,9.80559495108076,-9999,338944.0497460417,0.228790283203125,0.1908111572265625,-0.9222564697265625,1,0.67
2019-10-19 17:42:13.814 -0400,234,1571521333.001417,33.99607863674787,-81.02735162155396,93.79382,1.109499,174.1533828573622,1.286434513005011,9.80559495108076,-9999,338944.089730375,0.20208740234375,0.1975250244140625,-0.8059539794921875,1,0.67
2019-10-19 17:42:13.855 -0400,235,1571521333.001417,33.99607863674787,-81.02735162155396,93.79382,1.109499,174.1533828573622,1.286434513005011,9.80559495108076,-9999,338944.129716375,0.2222137451171875,0.2011871337890625,-0.747894287109375,1,0.67
2019-10-19 17:42:13.895 -0400,236,1571521333.001417,33.99607863674787,-81.02735162155396,93.79382,1.109499,174.1533828573622,1.286434513005011,9.80559495108076,-9999,338944.169701375,0.559173583984375,0.24273681640625,-1.181655883789062,1,0.67
2019-10-19 17:42:13.935 -0400,237,1571521333.001417,33.99607863674787,-81.02735162155396,93.79382,1.109499,174.1533828573622,1.286434513005011,9.80559495108076,-9999,338944.209687375,0.5922698974609375,0.379486083984375,-1.08831787109375,1,0.67
2019-10-19 17:42:13.975 -0400,238,1571521333.001417,33.99607863674787,-81.02735162155396,93.79382,1.109499,174.1533828573622,1.286434513005011,9.80559495108076,-9999,338944.249673375,0.6505584716796875,0.220794677734375,-0.747833251953125,1,0.67
2019-10-19 17:42:14.015 -0400,239,1571521333.001417,33.99607863674787,-81.02735162155396,93.79382,1.109499,174.1533828573622,1.286434513005011,9.80559495108076,-9999,338944.289658375,0.78460693359375,0.211181640625,-0.807342529296875,1,0.67
2019-10-19 17:42:14.055 -0400,240,1571521333.001417,33.99607863674787,-81.02735162155396,93.79382,1.109499,174.1533828573622,1.286434513005011,9.80559495108076,-9999,338944.329644375,0.58160400390625,0.1279449462890625,-0.99908447265625,1,0.67
2019-10-19 17:42:14.095 -0400,241,1571521333.001417,33.99607863674787,-81.02735162155396,93.79382,1.109499,174.1533828573622,1.286434513005011,9.80559495108076,-9999,338944.369629375,0.2851715087890625,0.290557861328125,-0.7955780029296875,1,0.67
2019-10-19 17:42:14.135 -0400,242,1571521333.001417,33.99607863674787,-81.02735162155396,93.79382,1.109499,174.1533828573622,1.286434513005011,9.80559495108076,-9999,338944.409615375,0.3104400634765625,0.5496978759765625,-0.88470458984375,1,0.67
2019-10-19 17:42:14.174 -0400,243,1571521333.001417,33.99607863674787,-81.02735162155396,93.79382,1.109499,174.1533828573622,1.286434513005011,9.80559495108076,-9999,338944.449600375,0.381256103515625,0.72479248046875,-1.064910888671875,1,0.67
2019-10-19 17:42:14.227 -0400,244,1571521333.001417,33.99607863674787,-81.02735162155396,93.79382,1.109499,174.1533828573622,1.286434513005011,9.80559495108076,-9999,338944.489586375,0.3252716064453125,0.558197021484375,-0.7666015625,1,0.67
2019-10-19 17:42:14.254 -0400,245,1571521334.001526,33.99608225294315,-81.02734033153445,93.63662,1.074665,155.8402521613208,1.287440633354235,10.88235427878901,-9999,338944.529571375,0.3406219482421875,0.522308349609375,-0.6400146484375,1,0.67
2019-10-19 17:42:14.295 -0400,246,1571521334.001526,33.99608225294315,-81.02734033153445,93.63662,1.074665,155.8402521613208,1.287440633354235,10.88235427878901,-9999,338944.569557375,0.3692626953125,0.4441375732421875,-0.69464111328125,1,0.67
2019-10-19 17:42:14.334 -0400,247,1571521334.001526,33.99608225294315,-81.02734033153445,93.63662,1.074665,155.8402521613208,1.287440633354235,10.88235427878901,-9999,338944.609543375,0.300811767578125,0.3789825439453125,-0.589324951171875,1,0.67
2019-10-19 17:42:14.374 -0400,248,1571521334.001526,33.99608225294315,-81.02734033153445,93.63662,1.074665,155.8402521613208,1.287440633354235,10.88235427878901,-9999,338944.649528375,0.290985107421875,0.5890655517578125,-0.6222076416015625,1,0.67
2019-10-19 17:42:14.419 -0400,249,1571521334.001526,33.99608225294315,-81.02734033153445,93.63662,1.074665,155.8402521613208,1.287440633354235,10.88235427878901,-9999,338944.689514375,0.2533721923828125,0.7975921630859375,-0.699066162109375,1,0.67
2019-10-19 17:42:14.454 -0400,250,1571521334.001526,33.99608225294315,-81.02734033153445,93.63662,1.074665,155.8402521613208,1.287440633354235,10.88235427878901,-9999,338944.729499375,0.2075958251953125,0.843994140625,-0.76171875,1,0.67
2019-10-19 17:42:14.494 -0400,251,1571521334.001526,33.99608225294315,-81.02734033153445,93.63662,1.074665,155.8402521613208,1.287440633354235,10.88235427878901,-9999,338944.769485375,0.1324005126953125,0.765716552734375,-0.6428680419921875,1,0.67
2019-10-19 17:42:14.534 -0400,252,1571521334.001526,33.99608225294315,-81.02734033153445,93.63662,1.074665,155.8402521613208,1.287440633354235,10.88235427878901,-9999,338944.809470375,0.084686279296875,0.7434844970703125,-0.68115234375,1,0.67
2019-10-19 17:42:14.574 -0400,253,1571521334.001526,33.99608225294315,-81.02734033153445,93.63662,1.074665,155.8402521613208,1.287440633354235,10.88235427878901,-9999,338944.849456375,0.1286163330078125,0.6741790771484375,-0.62890625,1,0.67
2019-10-19 17:42:14.614 -0400,254,1571521334.001526,33.99608225294315,-81.02734033153445,93.63662,1.074665,155.8402521613208,1.287440633354235,10.88235427878901,-9999,338944.889441375,0.1933746337890625,0.62701416015625,-0.578399658203125,1,0.67
2019-10-19 17:42:14.654 -0400,255,1571521334.001526,33.99608225294315,-81.02734033153445,93.63662,1.074665,155.8402521613208,1.287440633354235,10.88235427878901,-9999,338944.929427375,0.279815673828125,0.6541290283203125,-0.5957489013671875,1,0.67
2019-10-19 17:42:14.694 -0400,256,1571521334.001526,33.99608225294315,-81.02734033153445,93.63662,1.074665,155.8402521613208,1.287440633354235,10.88235427878901,-9999,338944.969413375,0.325286865234375,0.7176666259765625,-0.59246826171875,1,0.67
2019-10-19 17:42:14.734 -0400,257,1571521334.001526,33.99608225294315,-81.02734033153445,93.63662,1.074665,155.8402521613208,1.287440633354235,10.88235427878901,-9999,338945.009398375,0.2844696044921875,0.78216552734375,-0.5329437255859375,1,0.67
2019-10-19 17:42:14.774 -0400,258,1571521334.001526,33.99608225294315,-81.02734033153445,93.63662,1.074665,155.8402521613208,1.287440633354235,10.88235427878901,-9999,338945.049384375,0.2600555419921875,0.7725067138671875,-0.592559814453125,1,0.67
2019-10-19 17:42:14.814 -0400,259,1571521334.001526,33.99608225294315,-81.02734033153445,93.63662,1.074665,155.8402521613208,1.287440633354235,10.88235427878901,-9999,338945.0893695,0.225128173828125,0.844390869140625,-0.6492919921875,1,0.67
2019-10-19 17:42:14.854 -0400,260,1571521334.001526,33.99608225294315,-81.02734033153445,93.63662,1.074665,155.8402521613208,1.287440633354235,10.88235427878901,-9999,338945.1293555,0.202606201171875,0.84979248046875,-0.6226348876953125,1,0.67
2019-10-19 17:42:14.894 -0400,261,1571521334.001526,33.99608225294315,-81.02734033153445,93.63662,1.074665,155.8402521613208,1.287440633354235,10.88235427878901,-9999,338945.1693405,0.0931396484375,0.8143463134765625,-0.6207275390625,1,0.67
2019-10-19 17:42:14.934 -0400,262,1571521334.001526,33.99608225294315,-81.02734033153445,93.63662,1.074665,155.8402521613208,1.287440633354235,10.88235427878901,-9999,338945.2093265,0.0885162353515625,0.9889068603515625,-0.7150115966796875,1,0.67
2019-10-19 17:42:14.974 -0400,263,1571521334.001526,33.99608225294315,-81.02734033153445,93.63662,1.074665,155.8402521613208,1.287440633354235,10.88235427878901,-9999,338945.2493115,0.1044158935546875,1.00274658203125,-0.6263427734375,1,0.67
2019-10-19 17:42:15.014 -0400,264,1571521334.001526,33.99608225294315,-81.02734033153445,93.63662,1.074665,155.8402521613208,1.287440633354235,10.88235427878901,-9999,338945.2892975,0.009521484375,0.756500244140625,-0.4532928466796875,1,0.67
2019-10-19 17:42:15.054 -0400,265,1571521334.001526,33.99608225294315,-81.02734033153445,93.63662,1.074665,155.8402521613208,1.287440633354235,10.88235427878901,-9999,338945.3292825,-0.0879364013671875,0.7122955322265625,-0.4994964599609375,1,0.67
2019-10-19 17:42:15.094 -0400,266,1571521334.001526,33.99608225294315,-81.02734033153445,93.63662,1.074665,155.8402521613208,1.287440633354235,10.88235427878901,-9999,338945.3692685,-0.0803375244140625,0.770263671875,-0.4767303466796875,1,0.67
2019-10-19 17:42:15.134 -0400,267,1571521334.001526,33.99608225294315,-81.02734033153445,93.63662,1.074665,155.8402521613208,1.287440633354235,10.88235427878901,-9999,338945.4092545,-0.059814453125,0.823394775390625,-0.423919677734375,1,0.67
2019-10-19 17:42:15.174 -0400,268,1571521334.001526,33.99608225294315,-81.02734033153445,93.63662,1.074665,155.8402521613208,1.287440633354235,10.88235427878901,-9999,338945.4492395,-0.090789794921875,0.7493896484375,-0.3917388916015625,1,0.67
2019-10-19 17:42:15.214 -0400,269,1571521334.001526,33.99608225294315,-81.02734033153445,93.63662,1.074665,155.8402521613208,1.287440633354235,10.88235427878901,-9999,338945.4892255,-0.1371307373046875,0.5924835205078125,-0.3346405029296875,1,0.67
2019-10-19 17:42:15.254 -0400,270,1571521334.001526,33.99608225294315,-81.02734033153445,93.63662,1.074665,155.8402521613208,1.287440633354235,10.88235427878901,-9999,338945.5292105,0.061187744140625,0.7254638671875,-0.3767547607421875,1,0.67
2019-10-19 17:42:15.294 -0400,271,1571521334.001526,33.99608225294315,-81.02734033153445,93.63662,1.074665,155.8402521613208,1.287440633354235,10.88235427878901,-9999,338945.5691965,0.032623291015625,0.8016204833984375,-0.380950927734375,1,0.67
2019-10-19 17:42:15.335 -0400,272,1571521335.001528,33.996079081656,-81.02732702431982,93.27872,1.03028,142.1462162124297,1.265149513175831,12.07569710219814,-9999,338945.6091815,0.0380859375,0.65771484375,-0.4268798828125,1,0.67
2019-10-19 17:42:15.387 -0400,273,1571521335.001528,33.996079081656,-81.02732702431982,93.27872,1.03028,142.1462162124297,1.265149513175831,12.07569710219814,-9999,338945.6491675,0.2652130126953125,0.7087554931640625,-0.5177001953125,1,0.67
2019-10-19 17:42:15.414 -0400,274,1571521335.001528,33.996079081656,-81.02732702431982,93.27872,1.03028,142.1462162124297,1.265149513175831,12.07569710219814,-9999,338945.6891525,0.4088134765625,0.65582275390625,-0.487396240234375,1,0.67
2019-10-19 17:42:15.454 -0400,275,1571521335.001528,33.996079081656,-81.02732702431982,93.27872,1.03028,142.1462162124297,1.265149513175831,12.07569710219814,-9999,338945.7291385,0.5974273681640625,0.5518341064453125,-0.5423431396484375,1,0.67
2019-10-19 17:42:15.494 -0400,276,1571521335.001528,33.996079081656,-81.02732702431982,93.27872,1.03028,142.1462162124297,1.265149513175831,12.07569710219814,-9999,338945.7691245,0.798797607421875,0.545928955078125,-0.5214996337890625,1,0.67
2019-10-19 17:42:15.534 -0400,277,1571521335.001528,33.996079081656,-81.02732702431982,93.27872,1.03028,142.1462162124297,1.265149513175831,12.07569710219814,-9999,338945.8091095,1.09454345703125,0.5940399169921875,-0.4988555908203125,1,0.67
2019-10-19 17:42:15.574 -0400,278,1571521335.001528,33.996079081656,-81.02732702431982,93.27872,1.03028,142.1462162124297,1.265149513175831,12.07569710219814,-9999,338945.8490955,1.364715576171875,0.717132568359375,-0.45458984375,1,0.67
2019-10-19 17:42:15.614 -0400,279,1571521335.001528,33.996079081656,-81.02732702431982,93.27872,1.03028,142.1462162124297,1.265149513175831,12.07569710219814,-9999,338945.8890805,1.253616333007812,0.6495819091796875,-0.2689666748046875,1,0.67
2019-10-19 17:42:15.654 -0400,280,1571521335.001528,33.996079081656,-81.02732702431982,93.27872,1.03028,142.1462162124297,1.265149513175831,12.07569710219814,-9999,338945.9290665,1.137008666992188,0.5912322998046875,-0.2357177734375,1,0.67
2019-10-19 17:42:15.694 -0400,281,1571521335.001528,33.996079081656,-81.02732702431982,93.27872,1.03028,142.1462162124297,1.265149513175831,12.07569710219814,-9999,338945.9690515,1.324264526367188,0.5272369384765625,-0.24163818359375,1,0.67
2019-10-19 17:42:15.734 -0400,282,1571521335.001528,33.996079081656,-81.02732702431982,93.27872,1.03028,142.1462162124297,1.265149513175831,12.07569710219814,-9999,338946.0090375,1.114105224609375,0.5044403076171875,-0.163238525390625,1,0.67
2019-10-19 17:42:15.774 -0400,283,1571521335.001528,33.996079081656,-81.02732702431982,93.27872,1.03028,142.1462162124297,1.265149513175831,12.07569710219814,-9999,338946.0490225,0.8338470458984375,0.381744384765625,-0.164459228515625,1,0.67
2019-10-19 17:42:15.814 -0400,284,1571521335.001528,33.996079081656,-81.02732702431982,93.27872,1.03028,142.1462162124297,1.265149513175831,12.07569710219814,-9999,338946.0890092917,0.6262664794921875,0.291748046875,-0.193389892578125,1,0.67
2019-10-19 17:42:15.854 -0400,285,1571521335.001528,33.996079081656,-81.02732702431982,93.27872,1.03028,142.1462162124297,1.265149513175831,12.07569710219814,-9999,338946.1289942917,0.46826171875,0.2315826416015625,-0.1799163818359375,1,0.67
2019-10-19 17:42:15.894 -0400,286,1571521335.001528,33.996079081656,-81.02732702431982,93.27872,1.03028,142.1462162124297,1.265149513175831,12.07569710219814,-9999,338946.1689802917,0.422210693359375,0.116546630859375,-0.1378936767578125,1,0.67
2019-10-19 17:42:15.934 -0400,287,1571521335.001528,33.996079081656,-81.02732702431982,93.27872,1.03028,142.1462162124297,1.265149513175831,12.07569710219814,-9999,338946.2089662917,0.576385498046875,0.329803466796875,-0.2131500244140625,1,0.67
2019-10-19 17:42:15.974 -0400,288,1571521335.001528,33.996079081656,-81.02732702431982,93.27872,1.03028,142.1462162124297,1.265149513175831,12.07569710219814,-9999,338946.2489512917,0.8555145263671875,0.4034576416015625,-0.35552978515625,1,0.67
2019-10-19 17:42:16.014 -0400,289,1571521335.001528,33.996079081656,-81.02732702431982,93.27872,1.03028,142.1462162124297,1.265149513175831,12.07569710219814,-9999,338946.2889372917,1.037185668945312,0.4442138671875,-0.4571533203125,1,0.67
2019-10-19 17:42:16.054 -0400,290,1571521335.001528,33.996079081656,-81.02732702431982,93.27872,1.03028,142.1462162124297,1.265149513175831,12.07569710219814,-9999,338946.3289222917,1.205886840820312,0.5583953857421875,-0.6668243408203125,1,0.67
2019-10-19 17:42:16.094 -0400,291,1571521335.001528,33.996079081656,-81.02732702431982,93.27872,1.03028,142.1462162124297,1.265149513175831,12.07569710219814,-9999,338946.3689082917,1.333480834960938,0.46539306640625,-0.690582275390625,1,0.67
2019-10-19 17:42:16.134 -0400,292,1571521335.001528,33.996079081656,-81.02732702431982,93.27872,1.03028,142.1462162124297,1.265149513175831,12.07569710219814,-9999,338946.4088932917,1.251541137695312,0.450531005859375,-0.69415283203125,1,0.67
2019-10-19 17:42:16.174 -0400,293,1571521335.001528,33.996079081656,-81.02732702431982,93.27872,1.03028,142.1462162124297,1.265149513175831,12.07569710219814,-9999,338946.4488792917,0.893524169921875,0.3767547607421875,-0.63519287109375,1,0.67
2019-10-19 17:42:16.214 -0400,294,1571521335.001528,33.996079081656,-81.02732702431982,93.27872,1.03028,142.1462162124297,1.265149513175831,12.07569710219814,-9999,338946.4888642917,1.24951171875,0.395233154296875,-0.55657958984375,1,0.67
2019-10-19 17:42:16.254 -0400,295,1571521335.001528,33.996079081656,-81.02732702431982,93.27872,1.03028,142.1462162124297,1.265149513175831,12.07569710219814,-9999,338946.5288502917,1.373245239257812,0.3338165283203125,-0.2917022705078125,1,0.67
2019-10-19 17:42:16.296 -0400,296,1571521336.00153,33.99606704367078,-81.02733195098675,93.58157,1.0533,156.5628519257727,1.235920107514896,13.42618315657275,-9999,338946.5688352917,1.206741333007812,0.2757415771484375,-0.2476043701171875,1,0.67
2019-10-19 17:42:16.334 -0400,297,1571521336.00153,33.99606704367078,-81.02733195098675,93.58157,1.0533,156.5628519257727,1.235920107514896,13.42618315657275,-9999,338946.6088212917,0.981597900390625,0.284912109375,-0.270172119140625,1,0.67
2019-10-19 17:42:16.374 -0400,298,1571521336.00153,33.99606704367078,-81.02733195098675,93.58157,1.0533,156.5628519257727,1.235920107514896,13.42618315657275,-9999,338946.6488072917,0.829315185546875,0.3313751220703125,-0.2326507568359375,1,0.67
2019-10-19 17:42:16.414 -0400,299,1571521336.00153,33.99606704367078,-81.02733195098675,93.58157,1.0533,156.5628519257727,1.235920107514896,13.42618315657275,-9999,338946.6887922917,0.7679901123046875,0.1822052001953125,-0.188446044921875,1,0.67
2019-10-19 17:42:16.453 -0400,300,1571521336.00153,33.99606704367078,-81.02733195098675,93.58157,1.0533,156.5628519257727,1.235920107514896,13.42618315657275,-9999,338946.7287782917,0.717071533203125,0.11285400390625,-0.11993408203125,1,0.67
2019-10-19 17:42:16.494 -0400,301,1571521336.00153,33.99606704367078,-81.02733195098675,93.58157,1.0533,156.5628519257727,1.235920107514896,13.42618315657275,-9999,338946.7687632917,0.746337890625,0.0912322998046875,-0.1089324951171875,1,0.67
2019-10-19 17:42:16.534 -0400,302,1571521336.00153,33.99606704367078,-81.02733195098675,93.58157,1.0533,156.5628519257727,1.235920107514896,13.42618315657275,-9999,338946.8087492917,0.8354949951171875,0.02301025390625,-0.1436614990234375,1,0.67
2019-10-19 17:42:16.574 -0400,303,1571521336.00153,33.99606704367078,-81.02733195098675,93.58157,1.0533,156.5628519257727,1.235920107514896,13.42618315657275,-9999,338946.8487342917,0.988494873046875,0.031158447265625,-0.146331787109375,1,0.67
2019-10-19 17:42:16.614 -0400,304,1571521336.00153,33.99606704367078,-81.02733195098675,93.58157,1.0533,156.5628519257727,1.235920107514896,13.42618315657275,-9999,338946.8887202917,1.079025268554688,0.1517181396484375,-0.26666259765625,1,0.67
2019-10-19 17:42:16.654 -0400,305,1571521336.00153,33.99606704367078,-81.02733195098675,93.58157,1.0533,156.5628519257727,1.235920107514896,13.42618315657275,-9999,338946.9287052917,1.256881713867188,0.210113525390625,-0.4358673095703125,1,0.67
2019-10-19 17:42:16.694 -0400,306,1571521336.00153,33.99606704367078,-81.02733195098675,93.58157,1.0533,156.5628519257727,1.235920107514896,13.42618315657275,-9999,338946.9686912917,0.9880218505859375,0.074432373046875,-0.4495391845703125,1,0.67
2019-10-19 17:42:16.734 -0400,307,1571521336.00153,33.99606704367078,-81.02733195098675,93.58157,1.0533,156.5628519257727,1.235920107514896,13.42618315657275,-9999,338947.0086762917,1.044769287109375,0.2313995361328125,-0.4599151611328125,1,0.67
2019-10-19 17:42:16.774 -0400,308,1571521336.00153,33.99606704367078,-81.02733195098675,93.58157,1.0533,156.5628519257727,1.235920107514896,13.42618315657275,-9999,338947.0486622917,1.300888061523438,0.069732666015625,-0.51727294921875,1,0.67
2019-10-19 17:42:16.813 -0400,309,1571521336.00153,33.99606704367078,-81.02733195098675,93.58157,1.0533,156.5628519257727,1.235920107514896,13.42618315657275,-9999,338947.088647875,1.049774169921875,0.165679931640625,-0.419342041015625,1,0.67
2019-10-19 17:42:16.853 -0400,310,1571521336.00153,33.99606704367078,-81.02733195098675,93.58157,1.0533,156.5628519257727,1.235920107514896,13.42618315657275,-9999,338947.128632875,0.79364013671875,0.230255126953125,-0.455230712890625,1,0.67
2019-10-19 17:42:16.893 -0400,311,1571521336.00153,33.99606704367078,-81.02733195098675,93.58157,1.0533,156.5628519257727,1.235920107514896,13.42618315657275,-9999,338947.168618875,0.5809326171875,0.221527099609375,-0.3419952392578125,1,0.67
2019-10-19 17:42:16.936 -0400,312,1571521336.00153,33.99606704367078,-81.02733195098675,93.58157,1.0533,156.5628519257727,1.235920107514896,13.42618315657275,-9999,338947.208603875,0.50543212890625,0.214935302734375,-0.2537841796875,1,0.67
2019-10-19 17:42:16.974 -0400,313,1571521336.00153,33.99606704367078,-81.02733195098675,93.58157,1.0533,156.5628519257727,1.235920107514896,13.42618315657275,-9999,338947.248589875,0.6194610595703125,0.2027587890625,-0.3674163818359375,1,0.67
2019-10-19 17:42:17.013 -0400,314,1571521336.00153,33.99606704367078,-81.02733195098675,93.58157,1.0533,156.5628519257727,1.235920107514896,13.42618315657275,-9999,338947.288574875,0.7950286865234375,0.167083740234375,-0.3709716796875,1,0.67
2019-10-19 17:42:17.053 -0400,315,1571521336.00153,33.99606704367078,-81.02733195098675,93.58157,1.0533,156.5628519257727,1.235920107514896,13.42618315657275,-9999,338947.328560875,0.9765777587890625,0.2285614013671875,-0.3549652099609375,1,0.67
2019-10-19 17:42:17.093 -0400,316,1571521336.00153,33.99606704367078,-81.02733195098675,93.58157,1.0533,156.5628519257727,1.235920107514896,13.42618315657275,-9999,338947.368545875,1.165481567382812,0.3239898681640625,-0.483306884765625,1,0.67
2019-10-19 17:42:17.134 -0400,317,1571521336.00153,33.99606704367078,-81.02733195098675,93.58157,1.0533,156.5628519257727,1.235920107514896,13.42618315657275,-9999,338947.408531875,1.241302490234375,0.444915771484375,-0.539337158203125,1,0.67
2019-10-19 17:42:17.173 -0400,318,1571521336.00153,33.99606704367078,-81.02733195098675,93.58157,1.0533,156.5628519257727,1.235920107514896,13.42618315657275,-9999,338947.448516875,1.521331787109375,0.5200042724609375,-0.627777099609375,1,0.67
2019-10-19 17:42:17.213 -0400,319,1571521336.00153,33.99606704367078,-81.02733195098675,93.58157,1.0533,156.5628519257727,1.235920107514896,13.42618315657275,-9999,338947.488502875,1.125579833984375,0.4809112548828125,-0.5584869384765625,1,0.67
2019-10-19 17:42:17.256 -0400,320,1571521336.00153,33.99606704367078,-81.02733195098675,93.58157,1.0533,156.5628519257727,1.235920107514896,13.42618315657275,-9999,338947.528488875,1.422714233398438,0.461578369140625,-0.47686767578125,1,0.67
2019-10-19 17:42:17.293 -0400,321,1571521337.001533,33.99605161903622,-81.02733498050947,93.17992,1.278077,162.2894606901453,1.219705581798607,15.09923775712099,-9999,338947.568473875,1.344375610351562,0.4087066650390625,-0.30462646484375,1,0.67
2019-10-19 17:42:17.333 -0400,322,1571521337.001533,33.99605161903622,-81.02733498050947,93.17992,1.278077,162.2894606901453,1.219705581798607,15.09923775712099,-9999,338947.608459875,1.072067260742188,0.220245361328125,-0.2225341796875,1,0.67
2019-10-19 17:42:17.373 -0400,323,1571521337.001533,33.99605161903622,-81.02733498050947,93.17992,1.278077,162.2894606901453,1.219705581798607,15.09923775712099,-9999,338947.648444875,0.8585052490234375,0.201263427734375,-0.185150146484375,1,0.67
2019-10-19 17:42:17.413 -0400,324,1571521337.001533,33.99605161903622,-81.02733498050947,93.17992,1.278077,162.2894606901453,1.219705581798607,15.09923775712099,-9999,338947.688430875,0.6884765625,0.2252197265625,-0.0866241455078125,1,0.67
2019-10-19 17:42:17.453 -0400,325,1571521337.001533,33.99605161903622,-81.02733498050947,93.17992,1.278077,162.2894606901453,1.219705581798607,15.09923775712099,-9999,338947.728415875,0.6179046630859375,0.191925048828125,-0.1507720947265625,1,0.67
2019-10-19 17:42:17.493 -0400,326,1571521337.001533,33.99605161903622,-81.02733498050947,93.17992,1.278077,162.2894606901453,1.219705581798607,15.09923775712099,-9999,338947.768401875,0.665283203125,0.10174560546875,-0.08856201171875,1,0.67
2019-10-19 17:42:17.533 -0400,327,1571521337.001533,33.99605161903622,-81.02733498050947,93.17992,1.278077,162.2894606901453,1.219705581798607,15.09923775712099,-9999,338947.808386875,0.8335418701171875,0.25677490234375,-0.200775146484375,1,0.67
2019-10-19 17:42:17.573 -0400,328,1571521337.001533,33.99605161903622,-81.02733498050947,93.17992,1.278077,162.2894606901453,1.219705581798607,15.09923775712099,-9999,338947.848372875,0.98126220703125,0.21746826171875,-0.1940460205078125,1,0.67
2019-10-19 17:42:17.613 -0400,329,1571521337.001533,33.99605161903622,-81.02733498050947,93.17992,1.278077,162.2894606901453,1.219705581798607,15.09923775712099,-9999,338947.888357875,1.062881469726562,0.2476654052734375,-0.231536865234375,1,0.67
2019-10-19 17:42:17.653 -0400,330,1571521337.001533,33.99605161903622,-81.02733498050947,93.17992,1.278077,162.2894606901453,1.219705581798607,15.09923775712099,-9999,338947.928343875,0.9542999267578125,0.291656494140625,-0.3008880615234375,1,0.67
2019-10-19 17:42:17.693 -0400,331,1571521337.001533,33.99605161903622,-81.02733498050947,93.17992,1.278077,162.2894606901453,1.219705581798607,15.09923775712099,-9999,338947.968328875,1.15509033203125,0.317230224609375,-0.38018798828125,1,0.67
2019-10-19 17:42:17.733 -0400,332,1571521337.001533,33.99605161903622,-81.02733498050947,93.17992,1.278077,162.2894606901453,1.219705581798607,15.09923775712099,-9999,338948.008314875,0.8372344970703125,0.205169677734375,-0.4105377197265625,1,0.67
2019-10-19 17:42:17.773 -0400,333,1571521337.001533,33.99605161903622,-81.02733498050947,93.17992,1.278077,162.2894606901453,1.219705581798607,15.09923775712099,-9999,338948.048300875,1.116119384765625,0.2208099365234375,-0.447784423828125,1,0.67
2019-10-19 17:42:17.813 -0400,334,1571521337.001533,33.99605161903622,-81.02733498050947,93.17992,1.278077,162.2894606901453,1.219705581798607,15.09923775712099,-9999,338948.088285375,1.21282958984375,0.2483673095703125,-0.4516448974609375,1,0.67
2019-10-19 17:42:17.853 -0400,335,1571521337.001533,33.99605161903622,-81.02733498050947,93.17992,1.278077,162.2894606901453,1.219705581798607,15.09923775712099,-9999,338948.128271375,0.889556884765625,0.2167816162109375,-0.3406524658203125,1,0.67
2019-10-19 17:42:17.894 -0400,336,1571521337.001533,33.99605161903622,-81.02733498050947,93.17992,1.278077,162.2894606901453,1.219705581798607,15.09923775712099,-9999,338948.168256375,0.680633544921875,0.3141632080078125,-0.376922607421875,1,0.67
2019-10-19 17:42:17.942 -0400,337,1571521337.001533,33.99605161903622,-81.02733498050947,93.17992,1.278077,162.2894606901453,1.219705581798607,15.09923775712099,-9999,338948.208242375,0.5626983642578125,0.29541015625,-0.3273162841796875,1,0.67
2019-10-19 17:42:17.973 -0400,338,1571521337.001533,33.99605161903622,-81.02733498050947,93.17992,1.278077,162.2894606901453,1.219705581798607,15.09923775712099,-9999,338948.248227375,0.592987060546875,0.2493438720703125,-0.2729339599609375,1,0.67
2019-10-19 17:42:18.013 -0400,339,1571521337.001533,33.99605161903622,-81.02733498050947,93.17992,1.278077,162.2894606901453,1.219705581798607,15.09923775712099,-9999,338948.288213375,0.790924072265625,0.3386993408203125,-0.3828125,1,0.67
2019-10-19 17:42:18.053 -0400,340,1571521337.001533,33.99605161903622,-81.02733498050947,93.17992,1.278077,162.2894606901453,1.219705581798607,15.09923775712099,-9999,338948.328198375,0.928497314453125,0.2595062255859375,-0.409332275390625,1,0.67
2019-10-19 17:42:18.093 -0400,341,1571521337.001533,33.99605161903622,-81.02733498050947,93.17992,1.278077,162.2894606901453,1.219705581798607,15.09923775712099,-9999,338948.368184375,1.0894775390625,0.3958740234375,-0.4511566162109375,1,0.67
2019-10-19 17:42:18.133 -0400,342,1571521337.001533,33.99605161903622,-81.02733498050947,93.17992,1.278077,162.2894606901453,1.219705581798607,15.09923775712099,-9999,338948.408169375,1.22906494140625,0.527740478515625,-0.544189453125,1,0.67
2019-10-19 17:42:18.173 -0400,343,1571521337.001533,33.99605161903622,-81.02733498050947,93.17992,1.278077,162.2894606901453,1.219705581798607,15.09923775712099,-9999,338948.448155375,1.58111572265625,0.6626129150390625,-0.59033203125,1,0.67
2019-10-19 17:42:18.213 -0400,344,1571521337.001533,33.99605161903622,-81.02733498050947,93.17992,1.278077,162.2894606901453,1.219705581798607,15.09923775712099,-9999,338948.488140375,1.183517456054688,0.5819854736328125,-0.467864990234375,1,0.67
2019-10-19 17:42:18.253 -0400,345,1571521337.001533,33.99605161903622,-81.02733498050947,93.17992,1.278077,162.2894606901453,1.219705581798607,15.09923775712099,-9999,338948.528126375,1.347808837890625,0.4788665771484375,-0.39556884765625,1,0.67
2019-10-19 17:42:18.293 -0400,346,1571521338.001535,33.99604477485086,-81.02733854703312,92.45682,1.338684,165.4340537805732,1.206765419498184,16.61206334549864,-9999,338948.568112375,1.382659912109375,0.40008544921875,-0.250457763671875,1,0.67
2019-10-19 17:42:18.333 -0400,347,1571521338.001535,33.99604477485086,-81.02733854703312,92.45682,1.338684,165.4340537805732,1.206765419498184,16.61206334549864,-9999,338948.608097375,1.226516723632812,0.2576904296875,-0.169921875,1,0.67
2019-10-19 17:42:18.373 -0400,348,1571521338.001535,33.99604477485086,-81.02733854703312,92.45682,1.338684,165.4340537805732,1.206765419498184,16.61206334549864,-9999,338948.648083375,0.9564361572265625,0.255950927734375,-0.2111053466796875,1,0.67
2019-10-19 17:42:18.419 -0400,349,1571521338.001535,33.99604477485086,-81.02733854703312,92.45682,1.338684,165.4340537805732,1.206765419498184,16.61206334549864,-9999,338948.688068375,0.8200225830078125,0.311187744140625,-0.1513214111328125,1,0.67
2019-10-19 17:42:18.453 -0400,350,1571521338.001535,33.99604477485086,-81.02733854703312,92.45682,1.338684,165.4340537805732,1.206765419498184,16.61206334549864,-9999,338948.728054375,0.7777557373046875,0.256011962890625,-0.0882568359375,1,0.67
2019-10-19 17:42:18.493 -0400,351,1571521338.001535,33.99604477485086,-81.02733854703312,92.45682,1.338684,165.4340537805732,1.206765419498184,16.61206334549864,-9999,338948.768039375,0.795867919921875,0.28582763671875,-0.0955963134765625,1,0.67
2019-10-19 17:42:18.533 -0400,352,1571521338.001535,33.99604477485086,-81.02733854703312,92.45682,1.338684,165.4340537805732,1.206765419498184,16.61206334549864,-9999,338948.808025375,0.9054718017578125,0.29595947265625,-0.0855712890625,1,0.67
2019-10-19 17:42:18.573 -0400,353,1571521338.001535,33.99604477485086,-81.02733854703312,92.45682,1.338684,165.4340537805732,1.206765419498184,16.61206334549864,-9999,338948.848010375,1.096542358398438,0.28997802734375,-0.083953857421875,1,0.67
2019-10-19 17:42:18.613 -0400,354,1571521338.001535,33.99604477485086,-81.02733854703312,92.45682,1.338684,165.4340537805732,1.206765419498184,16.61206334549864,-9999,338948.887996375,1.10137939453125,0.224700927734375,-0.099761962890625,1,0.67
2019-10-19 17:42:18.653 -0400,355,1571521338.001535,33.99604477485086,-81.02733854703312,92.45682,1.338684,165.4340537805732,1.206765419498184,16.61206334549864,-9999,338948.927981375,0.9167633056640625,0.2024688720703125,-0.139068603515625,1,0.67
2019-10-19 17:42:18.693 -0400,356,1571521338.001535,33.99604477485086,-81.02733854703312,92.45682,1.338684,165.4340537805732,1.206765419498184,16.61206334549864,-9999,338948.967967375,0.9954986572265625,0.2287750244140625,-0.221588134765625,1,0.67
2019-10-19 17:42:18.733 -0400,357,1571521338.001535,33.99604477485086,-81.02733854703312,92.45682,1.338684,165.4340537805732,1.206765419498184,16.61206334549864,-9999,338949.007952375,0.6769866943359375,0.2192230224609375,-0.3328704833984375,1,0.67
2019-10-19 17:42:18.773 -0400,358,1571521338.001535,33.99604477485086,-81.02733854703312,92.45682,1.338684,165.4340537805732,1.206765419498184,16.61206334549864,-9999,338949.047938375,0.81243896484375,0.3742828369140625,-0.43072509765625,1,0.67
2019-10-19 17:42:18.813 -0400,359,1571521338.001535,33.99604477485086,-81.02733854703312,92.45682,1.338684,165.4340537805732,1.206765419498184,16.61206334549864,-9999,338949.08792375,1.100982666015625,0.277435302734375,-0.3608551025390625,1,0.67
2019-10-19 17:42:18.853 -0400,360,1571521338.001535,33.99604477485086,-81.02733854703312,92.45682,1.338684,165.4340537805732,1.206765419498184,16.61206334549864,-9999,338949.12790975,0.99212646484375,0.2787322998046875,-0.3382568359375,1,0.67
2019-10-19 17:42:18.893 -0400,361,1571521338.001535,33.99604477485086,-81.02733854703312,92.45682,1.338684,165.4340537805732,1.206765419498184,16.61206334549864,-9999,338949.16789575,0.7716827392578125,0.303375244140625,-0.3846435546875,1,0.67
2019-10-19 17:42:18.942 -0400,362,1571521338.001535,33.99604477485086,-81.02733854703312,92.45682,1.338684,165.4340537805732,1.206765419498184,16.61206334549864,-9999,338949.20788075,0.70098876953125,0.3112945556640625,-0.3672027587890625,1,0.67
2019-10-19 17:42:18.972 -0400,363,1571521338.001535,33.99604477485086,-81.02733854703312,92.45682,1.338684,165.4340537805732,1.206765419498184,16.61206334549864,-9999,338949.24786675,0.7459716796875,0.2522125244140625,-0.3330230712890625,1,0.67
2019-10-19 17:42:19.013 -0400,364,1571521338.001535,33.99604477485086,-81.02733854703312,92.45682,1.338684,165.4340537805732,1.206765419498184,16.61206334549864,-9999,338949.28785175,0.888031005859375,0.2774810791015625,-0.4188385009765625,1,0.67
2019-10-19 17:42:19.053 -0400,365,1571521338.001535,33.99604477485086,-81.02733854703312,92.45682,1.338684,165.4340537805732,1.206765419498184,16.61206334549864,-9999,338949.32783775,1.023345947265625,0.249542236328125,-0.46533203125,1,0.67
2019-10-19 17:42:19.093 -0400,366,1571521338.001535,33.99604477485086,-81.02733854703312,92.45682,1.338684,165.4340537805732,1.206765419498184,16.61206334549864,-9999,338949.36782275,1.220916748046875,0.3056640625,-0.554168701171875,1,0.67
2019-10-19 17:42:19.133 -0400,367,1571521338.001535,33.99604477485086,-81.02733854703312,92.45682,1.338684,165.4340537805732,1.206765419498184,16.61206334549864,-9999,338949.40780875,1.336013793945312,0.428680419921875,-0.61761474609375,1,0.67
2019-10-19 17:42:19.173 -0400,368,1571521338.001535,33.99604477485086,-81.02733854703312,92.45682,1.338684,165.4340537805732,1.206765419498184,16.61206334549864,-9999,338949.44779375,1.373977661132812,0.4910430908203125,-0.621429443359375,1,0.67
2019-10-19 17:42:19.213 -0400,369,1571521339.001537,33.99604028239989,-81.02734562321042,92.73843,1.41423,170.1841816013119,1.198798009067609,18.47664100933292,-9999,338949.48777975,1.224365234375,0.49041748046875,-0.609100341796875,1,0.67
2019-10-19 17:42:19.253 -0400,370,1571521339.001537,33.99604028239989,-81.02734562321042,92.73843,1.41423,170.1841816013119,1.198798009067609,18.47664100933292,-9999,338949.52776475,1.226242065429688,0.5242767333984375,-0.4888153076171875,1,0.67
2019-10-19 17:42:19.293 -0400,371,1571521339.001537,33.99604028239989,-81.02734562321042,92.73843,1.41423,170.1841816013119,1.198798009067609,18.47664100933292,-9999,338949.56775075,1.478500366210938,0.36541748046875,-0.2397003173828125,1,0.67
2019-10-19 17:42:19.333 -0400,372,1571521339.001537,33.99604028239989,-81.02734562321042,92.73843,1.41423,170.1841816013119,1.198798009067609,18.47664100933292,-9999,338949.60773575,1.362594604492188,0.2623138427734375,-0.1632232666015625,1,0.67
2019-10-19 17:42:19.377 -0400,373,1571521339.001537,33.99604028239989,-81.02734562321042,92.73843,1.41423,170.1841816013119,1.198798009067609,18.47664100933292,-9999,338949.64772175,0.982757568359375,0.1945953369140625,-0.19012451171875,1,0.67
2019-10-19 17:42:19.413 -0400,374,1571521339.001537,33.99604028239989,-81.02734562321042,92.73843,1.41423,170.1841816013119,1.198798009067609,18.47664100933292,-9999,338949.68770675,0.7802886962890625,0.173919677734375,-0.206207275390625,1,0.67
2019-10-19 17:42:19.452 -0400,375,1571521339.001537,33.99604028239989,-81.02734562321042,92.73843,1.41423,170.1841816013119,1.198798009067609,18.47664100933292,-9999,338949.72769275,0.7148590087890625,0.2101898193359375,-0.151519775390625,1,0.67
2019-10-19 17:42:19.492 -0400,376,1571521339.001537,33.99604028239989,-81.02734562321042,92.73843,1.41423,170.1841816013119,1.198798009067609,18.47664100933292,-9999,338949.76767875,0.8162384033203125,0.2341156005859375,-0.1046905517578125,1,0.67
2019-10-19 17:42:19.532 -0400,377,1571521339.001537,33.99604028239989,-81.02734562321042,92.73843,1.41423,170.1841816013119,1.198798009067609,18.47664100933292,-9999,338949.80766375,0.9554595947265625,0.362152099609375,-0.0474700927734375,1,0.67
2019-10-19 17:42:19.572 -0400,378,1571521339.001537,33.99604028239989,-81.02734562321042,92.73843,1.41423,170.1841816013119,1.198798009067609,18.47664100933292,-9999,338949.84764975,1.122543334960938,0.389404296875,-0.077239990234375,1,0.67
2019-10-19 17:42:19.612 -0400,379,1571521339.001537,33.99604028239989,-81.02734562321042,92.73843,1.41423,170.1841816013119,1.198798009067609,18.47664100933292,-9999,338949.88763475,1.201065063476562,0.2841949462890625,-0.030548095703125,1,0.67
2019-10-19 17:42:19.652 -0400,380,1571521339.001537,33.99604028239989,-81.02734562321042,92.73843,1.41423,170.1841816013119,1.198798009067609,18.47664100933292,-9999,338949.92762075,1.048446655273438,0.3440093994140625,-0.1594085693359375,1,0.67
2019-10-19 17:42:19.692 -0400,381,1571521339.001537,33.99604028239989,-81.02734562321042,92.73843,1.41423,170.1841816013119,1.198798009067609,18.47664100933292,-9999,338949.96760575,1.03582763671875,0.106231689453125,-0.1532440185546875,1,0.67
2019-10-19 17:42:19.732 -0400,382,1571521339.001537,33.99604028239989,-81.02734562321042,92.73843,1.41423,170.1841816013119,1.198798009067609,18.47664100933292,-9999,338950.00759175,0.640899658203125,0.155792236328125,-0.2880096435546875,1,0.67
2019-10-19 17:42:19.772 -0400,383,1571521339.001537,33.99604028239989,-81.02734562321042,92.73843,1.41423,170.1841816013119,1.198798009067609,18.47664100933292,-9999,338950.04757675,0.914581298828125,0.1926422119140625,-0.27392578125,1,0.67
2019-10-19 17:42:19.812 -0400,384,1571521339.001537,33.99604028239989,-81.02734562321042,92.73843,1.41423,170.1841816013119,1.198798009067609,18.47664100933292,-9999,338950.08756275,1.205780029296875,0.2507171630859375,-0.3621978759765625,1,0.67
2019-10-19 17:42:19.852 -0400,385,1571521339.001537,33.99604028239989,-81.02734562321042,92.73843,1.41423,170.1841816013119,1.198798009067609,18.47664100933292,-9999,338950.12754775,0.9228668212890625,0.1998291015625,-0.3436431884765625,1,0.67
2019-10-19 17:42:19.892 -0400,386,1571521339.001537,33.99604028239989,-81.02734562321042,92.73843,1.41423,170.1841816013119,1.198798009067609,18.47664100933292,-9999,338950.16753375,0.65936279296875,0.2846221923828125,-0.2874603271484375,1,0.67
2019-10-19 17:42:19.932 -0400,387,1571521339.001537,33.99604028239989,-81.02734562321042,92.73843,1.41423,170.1841816013119,1.198798009067609,18.47664100933292,-9999,338950.20751875,0.5817718505859375,0.2425689697265625,-0.3113250732421875,1,0.67
2019-10-19 17:42:19.972 -0400,388,1571521339.001537,33.99604028239989,-81.02734562321042,92.73843,1.41423,170.1841816013119,1.198798009067609,18.47664100933292,-9999,338950.24750475,0.618621826171875,0.21038818359375,-0.2677001953125,1,0.67
2019-10-19 17:42:20.012 -0400,389,1571521339.001537,33.99604028239989,-81.02734562321042,92.73843,1.41423,170.1841816013119,1.198798009067609,18.47664100933292,-9999,338950.28748975,0.8490447998046875,0.3141326904296875,-0.4231109619140625,1,0.67
2019-10-19 17:42:20.052 -0400,390,1571521339.001537,33.99604028239989,-81.02734562321042,92.73843,1.41423,170.1841816013119,1.198798009067609,18.47664100933292,-9999,338950.32747575,1.108184814453125,0.3949432373046875,-0.56085205078125,1,0.67
2019-10-19 17:42:20.092 -0400,391,1571521339.001537,33.99604028239989,-81.02734562321042,92.73843,1.41423,170.1841816013119,1.198798009067609,18.47664100933292,-9999,338950.36746175,1.28021240234375,0.463775634765625,-0.7057952880859375,1,0.67
2019-10-19 17:42:20.132 -0400,392,1571521339.001537,33.99604028239989,-81.02734562321042,92.73843,1.41423,170.1841816013119,1.198798009067609,18.47664100933292,-9999,338950.40744675,1.3939208984375,0.5381622314453125,-0.7975006103515625,1,0.67
2019-10-19 17:42:20.173 -0400,393,1571521339.001537,33.99604028239989,-81.02734562321042,92.73843,1.41423,170.1841816013119,1.198798009067609,18.47664100933292,-9999,338950.44743275,1.392242431640625,0.4383697509765625,-0.6529388427734375,1,0.67
2019-10-19 17:42:20.228 -0400,394,1571521339.001537,33.99604028239989,-81.02734562321042,92.73843,1.41423,170.1841816013119,1.198798009067609,18.47664100933292,-9999,338950.48741775,1.2010498046875,0.3479766845703125,-0.555938720703125,1,0.67
2019-10-19 17:42:20.252 -0400,395,1571521340.001539,33.99602908414718,-81.02734639880863,92.71439,1.525898,171.2396922087062,1.201228633110641,20.38944210467495,-9999,338950.52740375,1.243072509765625,0.3947906494140625,-0.47894287109375,1,0.67
2019-10-19 17:42:20.292 -0400,396,1571521340.001539,33.99602908414718,-81.02734639880863,92.71439,1.525898,171.2396922087062,1.201228633110641,20.38944210467495,-9999,338950.56738875,1.463668823242188,0.3884429931640625,-0.2330169677734375,1,0.67
2019-10-19 17:42:20.332 -0400,397,1571521340.001539,33.99602908414718,-81.02734639880863,92.71439,1.525898,171.2396922087062,1.201228633110641,20.38944210467495,-9999,338950.60737475,1.287124633789062,0.336639404296875,-0.1970062255859375,1,0.67
2019-10-19 17:42:20.372 -0400,398,1571521340.001539,33.99602908414718,-81.02734639880863,92.71439,1.525898,171.2396922087062,1.201228633110641,20.38944210467495,-9999,338950.64735975,0.944854736328125,0.2288818359375,-0.202301025390625,1,0.67
2019-10-19 17:42:20.412 -0400,399,1571521340.001539,33.99602908414718,-81.02734639880863,92.71439,1.525898,171.2396922087062,1.201228633110641,20.38944210467495,-9999,338950.68734575,0.755279541015625,0.20782470703125,-0.1558380126953125,1,0.67
2019-10-19 17:42:20.459 -0400,400,1571521340.001539,33.99602908414718,-81.02734639880863,92.71439,1.525898,171.2396922087062,1.201228633110641,20.38944210467495,-9999,338950.72733075,0.7457275390625,0.262847900390625,-0.111419677734375,1,0.67
2019-10-19 17:42:20.492 -0400,401,1571521340.001539,33.99602908414718,-81.02734639880863,92.71439,1.525898,171.2396922087062,1.201228633110641,20.38944210467495,-9999,338950.76731675,0.8377532958984375,0.3206634521484375,-0.1004486083984375,1,0.67
2019-10-19 17:42:20.532 -0400,402,1571521340.001539,33.99602908414718,-81.02734639880863,92.71439,1.525898,171.2396922087062,1.201228633110641,20.38944210467495,-9999,338950.80730175,1.010101318359375,0.3036041259765625,-0.079071044921875,1,0.67
2019-10-19 17:42:20.573 -0400,403,1571521340.001539,33.99602908414718,-81.02734639880863,92.71439,1.525898,171.2396922087062,1.201228633110641,20.38944210467495,-9999,338950.84728775,1.15313720703125,0.2970733642578125,-0.0836181640625,1,0.67
2019-10-19 17:42:20.612 -0400,404,1571521340.001539,33.99602908414718,-81.02734639880863,92.71439,1.525898,171.2396922087062,1.201228633110641,20.38944210467495,-9999,338950.88727275,1.153427124023438,0.252471923828125,-0.11505126953125,1,0.67
2019-10-19 17:42:20.652 -0400,405,1571521340.001539,33.99602908414718,-81.02734639880863,92.71439,1.525898,171.2396922087062,1.201228633110641,20.38944210467495,-9999,338950.92725875,0.909820556640625,0.1514434814453125,-0.1970672607421875,1,0.67
2019-10-19 17:42:20.692 -0400,406,1571521340.001539,33.99602908414718,-81.02734639880863,92.71439,1.525898,171.2396922087062,1.201228633110641,20.38944210467495,-9999,338950.96724475,0.9117431640625,0.17767333984375,-0.23443603515625,1,0.67
2019-10-19 17:42:20.732 -0400,407,1571521340.001539,33.99602908414718,-81.02734639880863,92.71439,1.525898,171.2396922087062,1.201228633110641,20.38944210467495,-9999,338951.00722975,0.671478271484375,0.186492919921875,-0.3471832275390625,1,0.67
2019-10-19 17:42:20.772 -0400,408,1571521340.001539,33.99602908414718,-81.02734639880863,92.71439,1.525898,171.2396922087062,1.201228633110641,20.38944210467495,-9999,338951.04721575,0.872528076171875,0.214813232421875,-0.31744384765625,1,0.67
2019-10-19 17:42:20.812 -0400,409,1571521340.001539,33.99602908414718,-81.02734639880863,92.71439,1.525898,171.2396922087062,1.201228633110641,20.38944210467495,-9999,338951.087200875,1.188308715820312,0.26318359375,-0.3636322021484375,1,0.67
2019-10-19 17:42:20.857 -0400,410,1571521340.001539,33.99602908414718,-81.02734639880863,92.71439,1.525898,171.2396922087062,1.201228633110641,20.38944210467495,-9999,338951.127186875,0.959197998046875,0.2229461669921875,-0.3903961181640625,1,0.67
2019-10-19 17:42:20.892 -0400,411,1571521340.001539,33.99602908414718,-81.02734639880863,92.71439,1.525898,171.2396922087062,1.201228633110641,20.38944210467495,-9999,338951.167171875,0.6760406494140625,0.2209930419921875,-0.3331756591796875,1,0.67
2019-10-19 17:42:20.932 -0400,412,1571521340.001539,33.99602908414718,-81.02734639880863,92.71439,1.525898,171.2396922087062,1.201228633110641,20.38944210467495,-9999,338951.207157875,0.6465606689453125,0.261688232421875,-0.338348388671875,1,0.67
2019-10-19 17:42:20.972 -0400,413,1571521340.001539,33.99602908414718,-81.02734639880863,92.71439,1.525898,171.2396922087062,1.201228633110641,20.38944210467495,-9999,338951.247142875,0.707672119140625,0.19091796875,-0.3426055908203125,1,0.67
2019-10-19 17:42:21.012 -0400,414,1571521340.001539,33.99602908414718,-81.02734639880863,92.71439,1.525898,171.2396922087062,1.201228633110641,20.38944210467495,-9999,338951.287128875,0.9331512451171875,0.2353057861328125,-0.426788330078125,1,0.67
2019-10-19 17:42:21.052 -0400,415,1571521340.001539,33.99602908414718,-81.02734639880863,92.71439,1.525898,171.2396922087062,1.201228633110641,20.38944210467495,-9999,338951.327113875,1.129837036132812,0.2966461181640625,-0.5321807861328125,1,0.67
2019-10-19 17:42:21.092 -0400,416,1571521340.001539,33.99602908414718,-81.02734639880863,92.71439,1.525898,171.2396922087062,1.201228633110641,20.38944210467495,-9999,338951.367099875,1.225677490234375,0.401123046875,-0.6022796630859375,1,0.67
2019-10-19 17:42:21.132 -0400,417,1571521340.001539,33.99602908414718,-81.02734639880863,92.71439,1.525898,171.2396922087062,1.201228633110641,20.38944210467495,-9999,338951.407084875,1.301925659179688,0.481689453125,-0.6470947265625,1,0.67
2019-10-19 17:42:21.172 -0400,418,1571521340.001539,33.99602908414718,-81.02734639880863,92.71439,1.525898,171.2396922087062,1.201228633110641,20.38944210467495,-9999,338951.447070875,1.399429321289062,0.5142669677734375,-0.5916290283203125,1,0.67
2019-10-19 17:42:21.212 -0400,419,1571521340.001539,33.99602908414718,-81.02734639880863,92.71439,1.525898,171.2396922087062,1.201228633110641,20.38944210467495,-9999,338951.487055875,1.091201782226562,0.4712371826171875,-0.5502166748046875,1,0.67
2019-10-19 17:42:21.251 -0400,420,1571521340.001539,33.99602908414718,-81.02734639880863,92.71439,1.525898,171.2396922087062,1.201228633110641,20.38944210467495,-9999,338951.527041875,1.363998413085938,0.507049560546875,-0.4734344482421875,1,0.67
2019-10-19 17:42:21.292 -0400,421,1571521341.001542,33.99602006755049,-81.02734784695265,93.52486,1.481951,172.4398568710129,1.19067845269884,22.49686531960399,-9999,338951.567026875,1.530075073242188,0.36834716796875,-0.208404541015625,1,0.67
2019-10-19 17:42:21.332 -0400,422,1571521341.001542,33.99602006755049,-81.02734784695265,93.52486,1.481951,172.4398568710129,1.19067845269884,22.49686531960399,-9999,338951.607012875,1.2552490234375,0.25390625,-0.2153778076171875,1,0.67
2019-10-19 17:42:21.372 -0400,423,1571521341.001542,33.99602006755049,-81.02734784695265,93.52486,1.481951,172.4398568710129,1.19067845269884,22.49686531960399,-9999,338951.646997875,0.92059326171875,0.1688385009765625,-0.2385406494140625,1,0.67
2019-10-19 17:42:21.412 -0400,424,1571521341.001542,33.99602006755049,-81.02734784695265,93.52486,1.481951,172.4398568710129,1.19067845269884,22.49686531960399,-9999,338951.686983875,0.80548095703125,0.216339111328125,-0.1746826171875,1,0.67
2019-10-19 17:42:21.452 -0400,425,1571521341.001542,33.99602006755049,-81.02734784695265,93.52486,1.481951,172.4398568710129,1.19067845269884,22.49686531960399,-9999,338951.726968875,0.7968597412109375,0.2830047607421875,-0.0983428955078125,1,0.67
2019-10-19 17:42:21.492 -0400,426,1571521341.001542,33.99602006755049,-81.02734784695265,93.52486,1.481951,172.4398568710129,1.19067845269884,22.49686531960399,-9999,338951.766954875,0.9142913818359375,0.279754638671875,-0.119537353515625,1,0.67
2019-10-19 17:42:21.531 -0400,427,1571521341.001542,33.99602006755049,-81.02734784695265,93.52486,1.481951,172.4398568710129,1.19067845269884,22.49686531960399,-9999,338951.806940875,1.037918090820312,0.25665283203125,-0.1422119140625,1,0.67
2019-10-19 17:42:21.571 -0400,428,1571521341.001542,33.99602006755049,-81.02734784695265,93.52486,1.481951,172.4398568710129,1.19067845269884,22.49686531960399,-9999,338951.846925875,1.119552612304688,0.188018798828125,-0.1170806884765625,1,0.67
2019-10-19 17:42:21.611 -0400,429,1571521341.001542,33.99602006755049,-81.02734784695265,93.52486,1.481951,172.4398568710129,1.19067845269884,22.49686531960399,-9999,338951.886911875,1.03643798828125,0.11126708984375,-0.1257476806640625,1,0.67
2019-10-19 17:42:21.651 -0400,430,1571521341.001542,33.99602006755049,-81.02734784695265,93.52486,1.481951,172.4398568710129,1.19067845269884,22.49686531960399,-9999,338951.926896875,0.827117919921875,0.1257476806640625,-0.2031097412109375,1,0.67
2019-10-19 17:42:21.691 -0400,431,1571521341.001542,33.99602006755049,-81.02734784695265,93.52486,1.481951,172.4398568710129,1.19067845269884,22.49686531960399,-9999,338951.966882875,0.8704376220703125,0.2122802734375,-0.2552642822265625,1,0.67
2019-10-19 17:42:21.732 -0400,432,1571521341.001542,33.99602006755049,-81.02734784695265,93.52486,1.481951,172.4398568710129,1.19067845269884,22.49686531960399,-9999,338952.006867875,0.6517791748046875,0.28155517578125,-0.32452392578125,1,0.67
2019-10-19 17:42:21.772 -0400,433,1571521341.001542,33.99602006755049,-81.02734784695265,93.52486,1.481951,172.4398568710129,1.19067845269884,22.49686531960399,-9999,338952.046853875,0.8668975830078125,0.3020477294921875,-0.297119140625,1,0.67
2019-10-19 17:42:21.812 -0400,434,1571521341.001542,33.99602006755049,-81.02734784695265,93.52486,1.481951,172.4398568710129,1.19067845269884,22.49686531960399,-9999,338952.0868392917,1.1600341796875,0.2808990478515625,-0.3275299072265625,1,0.67
2019-10-19 17:42:21.852 -0400,435,1571521341.001542,33.99602006755049,-81.02734784695265,93.52486,1.481951,172.4398568710129,1.19067845269884,22.49686531960399,-9999,338952.1268252917,1.016876220703125,0.259246826171875,-0.379608154296875,1,0.67
2019-10-19 17:42:21.892 -0400,436,1571521341.001542,33.99602006755049,-81.02734784695265,93.52486,1.481951,172.4398568710129,1.19067845269884,22.49686531960399,-9999,338952.1668102917,0.7821502685546875,0.2436065673828125,-0.3276519775390625,1,0.67
2019-10-19 17:42:21.932 -0400,437,1571521341.001542,33.99602006755049,-81.02734784695265,93.52486,1.481951,172.4398568710129,1.19067845269884,22.49686531960399,-9999,338952.2067962917,0.682464599609375,0.2442779541015625,-0.303802490234375,1,0.67
2019-10-19 17:42:21.972 -0400,438,1571521341.001542,33.99602006755049,-81.02734784695265,93.52486,1.481951,172.4398568710129,1.19067845269884,22.49686531960399,-9999,338952.2467812917,0.7338409423828125,0.2194061279296875,-0.3529510498046875,1,0.67
2019-10-19 17:42:22.012 -0400,439,1571521341.001542,33.99602006755049,-81.02734784695265,93.52486,1.481951,172.4398568710129,1.19067845269884,22.49686531960399,-9999,338952.2867672917,0.85626220703125,0.278717041015625,-0.4352569580078125,1,0.67
2019-10-19 17:42:22.052 -0400,440,1571521341.001542,33.99602006755049,-81.02734784695265,93.52486,1.481951,172.4398568710129,1.19067845269884,22.49686531960399,-9999,338952.3267522917,1.02520751953125,0.366455078125,-0.4885406494140625,1,0.67
2019-10-19 17:42:22.092 -0400,441,1571521341.001542,33.99602006755049,-81.02734784695265,93.52486,1.481951,172.4398568710129,1.19067845269884,22.49686531960399,-9999,338952.3667382917,1.197616577148438,0.4842071533203125,-0.545745849609375,1,0.67
2019-10-19 17:42:22.132 -0400,442,1571521341.001542,33.99602006755049,-81.02734784695265,93.52486,1.481951,172.4398568710129,1.19067845269884,22.49686531960399,-9999,338952.4067232917,1.271087646484375,0.4888153076171875,-0.567230224609375,1,0.67
2019-10-19 17:42:22.172 -0400,443,1571521341.001542,33.99602006755049,-81.02734784695265,93.52486,1.481951,172.4398568710129,1.19067845269884,22.49686531960399,-9999,338952.4467092917,1.601608276367188,0.5355072021484375,-0.542877197265625,1,0.67
2019-10-19 17:42:22.212 -0400,444,1571521342.001543,33.99601161883308,-81.02735136826038,93.66647,1.513026,174.3065786318021,1.203048848344958,25.04387603320244,-9999,338952.4866942917,1.064987182617188,0.384033203125,-0.504486083984375,1,0.67
2019-10-19 17:42:22.252 -0400,445,1571521342.001543,33.99601161883308,-81.02735136826038,93.66647,1.513026,174.3065786318021,1.203048848344958,25.04387603320244,-9999,338952.5266802917,1.449172973632812,0.427093505859375,-0.435211181640625,1,0.67
2019-10-19 17:42:22.291 -0400,446,1571521342.001543,33.99601161883308,-81.02735136826038,93.66647,1.513026,174.3065786318021,1.203048848344958,25.04387603320244,-9999,338952.5666662917,1.630020141601562,0.293609619140625,-0.1875457763671875,1,0.67
2019-10-19 17:42:22.331 -0400,447,1571521342.001543,33.99601161883308,-81.02735136826038,93.66647,1.513026,174.3065786318021,1.203048848344958,25.04387603320244,-9999,338952.6066512917,1.337371826171875,0.1963653564453125,-0.29827880859375,1,0.67
2019-10-19 17:42:22.372 -0400,448,1571521342.001543,33.99601161883308,-81.02735136826038,93.66647,1.513026,174.3065786318021,1.203048848344958,25.04387603320244,-9999,338952.6466372917,0.987640380859375,0.1547393798828125,-0.3332672119140625,1,0.67
2019-10-19 17:42:22.411 -0400,449,1571521342.001543,33.99601161883308,-81.02735136826038,93.66647,1.513026,174.3065786318021,1.203048848344958,25.04387603320244,-9999,338952.6866222917,0.856536865234375,0.033935546875,-0.221832275390625,1,0.67
2019-10-19 17:42:22.451 -0400,450,1571521342.001543,33.99601161883308,-81.02735136826038,93.66647,1.513026,174.3065786318021,1.203048848344958,25.04387603320244,-9999,338952.7266082917,0.7050933837890625,0.2190399169921875,0.0180511474609375,1,0.67
2019-10-19 17:42:22.492 -0400,451,1571521342.001543,33.99601161883308,-81.02735136826038,93.66647,1.513026,174.3065786318021,1.203048848344958,25.04387603320244,-9999,338952.7665932917,0.76373291015625,0.366119384765625,-0.30279541015625,1,0.67
2019-10-19 17:42:22.531 -0400,452,1571521342.001543,33.99601161883308,-81.02735136826038,93.66647,1.513026,174.3065786318021,1.203048848344958,25.04387603320244,-9999,338952.8065792917,0.8248443603515625,0.151580810546875,-0.1383514404296875,1,0.67
2019-10-19 17:42:22.571 -0400,453,1571521342.001543,33.99601161883308,-81.02735136826038,93.66647,1.513026,174.3065786318021,1.203048848344958,25.04387603320244,-9999,338952.8465642917,1.002456665039062,0.3219757080078125,-0.2332000732421875,1,0.67
2019-10-19 17:42:22.612 -0400,454,1571521342.001543,33.99601161883308,-81.02735136826038,93.66647,1.513026,174.3065786318021,1.203048848344958,25.04387603320244,-9999,338952.8865502917,1.0611572265625,0.271820068359375,-0.2933349609375,1,0.67
2019-10-19 17:42:22.651 -0400,455,1571521342.001543,33.99601161883308,-81.02735136826038,93.66647,1.513026,174.3065786318021,1.203048848344958,25.04387603320244,-9999,338952.9265352917,0.844940185546875,0.2848968505859375,-0.357696533203125,1,0.67
2019-10-19 17:42:22.691 -0400,456,1571521342.001543,33.99601161883308,-81.02735136826038,93.66647,1.513026,174.3065786318021,1.203048848344958,25.04387603320244,-9999,338952.9665212917,0.89654541015625,0.2722930908203125,-0.4001617431640625,1,0.67
2019-10-19 17:42:22.731 -0400,457,1571521342.001543,33.99601161883308,-81.02735136826038,93.66647,1.513026,174.3065786318021,1.203048848344958,25.04387603320244,-9999,338953.0065062917,0.7052001953125,0.2144317626953125,-0.3805389404296875,1,0.67
2019-10-19 17:42:22.771 -0400,458,1571521342.001543,33.99601161883308,-81.02735136826038,93.66647,1.513026,174.3065786318021,1.203048848344958,25.04387603320244,-9999,338953.0464922917,1.046539306640625,0.217987060546875,-0.2375335693359375,1,0.67
2019-10-19 17:42:22.811 -0400,459,1571521342.001543,33.99601161883308,-81.02735136826038,93.66647,1.513026,174.3065786318021,1.203048848344958,25.04387603320244,-9999,338953.086476875,1.219970703125,0.1773529052734375,-0.2551422119140625,1,0.67
2019-10-19 17:42:22.880 -0400,460,1571521342.001543,33.99601161883308,-81.02735136826038,93.66647,1.513026,174.3065786318021,1.203048848344958,25.04387603320244,-9999,338953.126462875,0.982208251953125,0.2122344970703125,-0.323822021484375,1,0.67
2019-10-19 17:42:22.891 -0400,461,1571521342.001543,33.99601161883308,-81.02735136826038,93.66647,1.513026,174.3065786318021,1.203048848344958,25.04387603320244,-9999,338953.166447875,0.8048553466796875,0.2538909912109375,-0.2885894775390625,1,0.67
2019-10-19 17:42:22.931 -0400,462,1571521342.001543,33.99601161883308,-81.02735136826038,93.66647,1.513026,174.3065786318021,1.203048848344958,25.04387603320244,-9999,338953.206433875,0.769317626953125,0.2901153564453125,-0.3212890625,1,0.67
2019-10-19 17:42:22.971 -0400,463,1571521342.001543,33.99601161883308,-81.02735136826038,93.66647,1.513026,174.3065786318021,1.203048848344958,25.04387603320244,-9999,338953.246418875,0.8668212890625,0.2906494140625,-0.320465087890625,1,0.67
2019-10-19 17:42:23.011 -0400,464,1571521342.001543,33.99601161883308,-81.02735136826038,93.66647,1.513026,174.3065786318021,1.203048848344958,25.04387603320244,-9999,338953.286404875,1.088088989257812,0.397369384765625,-0.3976898193359375,1,0.67
2019-10-19 17:42:23.051 -0400,465,1571521342.001543,33.99601161883308,-81.02735136826038,93.66647,1.513026,174.3065786318021,1.203048848344958,25.04387603320244,-9999,338953.326389875,1.143692016601562,0.4084014892578125,-0.4199066162109375,1,0.67
2019-10-19 17:42:23.091 -0400,466,1571521342.001543,33.99601161883308,-81.02735136826038,93.66647,1.513026,174.3065786318021,1.203048848344958,25.04387603320244,-9999,338953.366375875,1.206588745117188,0.46014404296875,-0.49188232421875,1,0.67
2019-10-19 17:42:23.131 -0400,467,1571521342.001543,33.99601161883308,-81.02735136826038,93.66647,1.513026,174.3065786318021,1.203048848344958,25.04387603320244,-9999,338953.406361875,1.19073486328125,0.49334716796875,-0.5377655029296875,1,0.67
2019-10-19 17:42:23.171 -0400,468,1571521342.001543,33.99601161883308,-81.02735136826038,93.66647,1.513026,174.3065786318021,1.203048848344958,25.04387603320244,-9999,338953.446346875,1.453262329101562,0.608795166015625,-0.560302734375,1,0.67
2019-10-19 17:42:23.211 -0400,469,1571521342.001543,33.99601161883308,-81.02735136826038,93.66647,1.513026,174.3065786318021,1.203048848344958,25.04387603320244,-9999,338953.486332875,0.947052001953125,0.5313873291015625,-0.5806121826171875,1,0.67
2019-10-19 17:42:23.251 -0400,470,1571521342.001543,33.99601161883308,-81.02735136826038,93.66647,1.513026,174.3065786318021,1.203048848344958,25.04387603320244,-9999,338953.526317875,1.367233276367188,0.5625457763671875,-0.5242767333984375,1,0.67
2019-10-19 17:42:23.291 -0400,471,1571521343.001546,33.9959991424014,-81.02735219621093,93.18425,1.526317,175.2554331630907,1.177825991302139,27.53136768796878,-9999,338953.566303875,1.520416259765625,0.3284149169921875,-0.2353057861328125,1,0.67
2019-10-19 17:42:23.331 -0400,472,1571521343.001546,33.9959991424014,-81.02735219621093,93.18425,1.526317,175.2554331630907,1.177825991302139,27.53136768796878,-9999,338953.606288875,1.227386474609375,0.1604766845703125,-0.2498931884765625,1,0.67
2019-10-19 17:42:23.371 -0400,473,1571521343.001546,33.9959991424014,-81.02735219621093,93.18425,1.526317,175.2554331630907,1.177825991302139,27.53136768796878,-9999,338953.646274875,0.913665771484375,0.10662841796875,-0.2993316650390625,1,0.67
2019-10-19 17:42:23.411 -0400,474,1571521343.001546,33.9959991424014,-81.02735219621093,93.18425,1.526317,175.2554331630907,1.177825991302139,27.53136768796878,-9999,338953.686259875,0.8182220458984375,0.138702392578125,-0.215911865234375,1,0.67
2019-10-19 17:42:23.451 -0400,475,1571521343.001546,33.9959991424014,-81.02735219621093,93.18425,1.526317,175.2554331630907,1.177825991302139,27.53136768796878,-9999,338953.726245875,0.84039306640625,0.2320556640625,-0.2079620361328125,1,0.67
2019-10-19 17:42:23.491 -0400,476,1571521343.001546,33.9959991424014,-81.02735219621093,93.18425,1.526317,175.2554331630907,1.177825991302139,27.53136768796878,-9999,338953.766230875,0.9676055908203125,0.2479095458984375,-0.18829345703125,1,0.67
2019-10-19 17:42:23.531 -0400,477,1571521343.001546,33.9959991424014,-81.02735219621093,93.18425,1.526317,175.2554331630907,1.177825991302139,27.53136768796878,-9999,338953.806216875,1.051483154296875,0.2657623291015625,-0.147247314453125,1,0.67
2019-10-19 17:42:23.571 -0400,478,1571521343.001546,33.9959991424014,-81.02735219621093,93.18425,1.526317,175.2554331630907,1.177825991302139,27.53136768796878,-9999,338953.846201875,1.113510131835938,0.2284088134765625,-0.135162353515625,1,0.67
2019-10-19 17:42:23.611 -0400,479,1571521343.001546,33.9959991424014,-81.02735219621093,93.18425,1.526317,175.2554331630907,1.177825991302139,27.53136768796878,-9999,338953.886187875,0.9522705078125,0.069854736328125,-0.0469970703125,1,0.67
2019-10-19 17:42:23.651 -0400,480,1571521343.001546,33.9959991424014,-81.02735219621093,93.18425,1.526317,175.2554331630907,1.177825991302139,27.53136768796878,-9999,338953.926172875,0.7989654541015625,0.18072509765625,-0.258331298828125,1,0.67
2019-10-19 17:42:23.691 -0400,481,1571521343.001546,33.9959991424014,-81.02735219621093,93.18425,1.526317,175.2554331630907,1.177825991302139,27.53136768796878,-9999,338953.966158875,0.7958221435546875,0.255615234375,-0.1790924072265625,1,0.67
2019-10-19 17:42:23.731 -0400,482,1571521343.001546,33.9959991424014,-81.02735219621093,93.18425,1.526317,175.2554331630907,1.177825991302139,27.53136768796878,-9999,338954.006143875,0.7034759521484375,0.249237060546875,-0.2343902587890625,1,0.67
2019-10-19 17:42:23.771 -0400,483,1571521343.001546,33.9959991424014,-81.02735219621093,93.18425,1.526317,175.2554331630907,1.177825991302139,27.53136768796878,-9999,338954.046129875,1.060226440429688,0.2170867919921875,-0.3285675048828125,1,0.67
2019-10-19 17:42:23.811 -0400,484,1571521343.001546,33.9959991424014,-81.02735219621093,93.18425,1.526317,175.2554331630907,1.177825991302139,27.53136768796878,-9999,338954.086115375,1.288955688476562,0.359832763671875,-0.4371185302734375,1,0.67
2019-10-19 17:42:23.851 -0400,485,1571521343.001546,33.9959991424014,-81.02735219621093,93.18425,1.526317,175.2554331630907,1.177825991302139,27.53136768796878,-9999,338954.126101375,0.9339599609375,0.4050445556640625,-0.417083740234375,1,0.67
2019-10-19 17:42:23.891 -0400,486,1571521343.001546,33.9959991424014,-81.02735219621093,93.18425,1.526317,175.2554331630907,1.177825991302139,27.53136768796878,-9999,338954.166086375,0.6535797119140625,0.3953399658203125,-0.3210601806640625,1,0.67
2019-10-19 17:42:23.931 -0400,487,1571521343.001546,33.9959991424014,-81.02735219621093,93.18425,1.526317,175.2554331630907,1.177825991302139,27.53136768796878,-9999,338954.206072375,0.6031036376953125,0.479339599609375,-0.4473114013671875,1,0.67
2019-10-19 17:42:23.971 -0400,488,1571521343.001546,33.9959991424014,-81.02735219621093,93.18425,1.526317,175.2554331630907,1.177825991302139,27.53136768796878,-9999,338954.246057375,0.6743927001953125,0.5784149169921875,-0.4890289306640625,1,0.67
2019-10-19 17:42:24.011 -0400,489,1571521343.001546,33.9959991424014,-81.02735219621093,93.18425,1.526317,175.2554331630907,1.177825991302139,27.53136768796878,-9999,338954.286043375,0.7296905517578125,0.467254638671875,-0.5282745361328125,1,0.67
2019-10-19 17:42:24.051 -0400,490,1571521343.001546,33.9959991424014,-81.02735219621093,93.18425,1.526317,175.2554331630907,1.177825991302139,27.53136768796878,-9999,338954.326029375,0.864105224609375,0.53271484375,-0.5876617431640625,1,0.67
2019-10-19 17:42:24.091 -0400,491,1571521343.001546,33.9959991424014,-81.02735219621093,93.18425,1.526317,175.2554331630907,1.177825991302139,27.53136768796878,-9999,338954.366014375,1.08221435546875,0.58428955078125,-0.68182373046875,1,0.67
