loggingTime(txt),accelerometerTimestamp_sinceReboot(s),accelerometerAccelerationX(G),accelerometerAccelerationY(G),accelerometerAccelerationZ(G),batteryState,batteryLevel
2020-05-16 12:04:47.325 -0400,9137.228160666667,-0.0901336669921875,-0.14630126953125,-1.038299560546875,1,1
2020-05-16 12:04:47.444 -0400,9137.347897666667,0.0893402099609375,0.3176727294921875,-1.448898315429688,1,1
2020-05-16 12:04:47.564 -0400,9137.467628791666,-0.12738037109375,0.371551513671875,-1.056243896484375,1,1
2020-05-16 12:04:47.684 -0400,9137.587361791668,0.1476593017578125,0.2145843505859375,-0.515472412109375,1,1
2020-05-16 12:04:47.804 -0400,9137.707088791667,0.3202362060546875,0.1189422607421875,-0.2244110107421875,1,1
2020-05-16 12:04:47.923 -0400,9137.826821791667,0.6482391357421875,0.3842620849609375,-0.2230224609375,1,1
2020-05-16 12:04:48.043 -0400,9137.946557791667,1.769866943359375,0.724395751953125,-0.3538970947265625,1,1
2020-05-16 12:04:48.163 -0400,9138.066295791667,1.9957275390625,0.395721435546875,-0.391998291015625,1,0.99
2020-05-16 12:04:48.283 -0400,9138.186037791667,0.406158447265625,0.4388580322265625,0.05938720703125,1,0.99
2020-05-16 12:04:48.433 -0400,9138.335710791667,0.6168212890625,0.4601593017578125,-0.0419158935546875,1,0.99
2020-05-16 12:04:48.503 -0400,9138.405559791667,0.6761627197265625,0.5931396484375,-0.1305084228515625,1,0.99
2020-05-16 12:04:48.572 -0400,9138.475406791667,0.9183349609375,0.41290283203125,-0.1096649169921875,1,0.99
2020-05-16 12:04:48.642 -0400,9138.545253791668,1.11846923828125,0.276031494140625,-0.07598876953125,1,0.99
2020-05-16 12:04:48.712 -0400,9138.615101791667,0.9930267333984375,0.222076416015625,-0.075927734375,1,0.99
2020-05-16 12:04:48.782 -0400,9138.684947791668,0.7280731201171875,0.3086700439453125,-0.1602020263671875,1,0.99
2020-05-16 12:04:48.851 -0400,9138.754796791667,1.099945068359375,0.637420654296875,-0.2530517578125,1,0.99
2020-05-16 12:04:48.921 -0400,9138.824645791667,1.450729370117188,1.062469482421875,-0.177734375,1,0.99
2020-05-16 12:04:48.991 -0400,9138.894489791668,1.311813354492188,0.3928375244140625,-0.2184295654296875,1,0.99
2020-05-16 12:04:49.061 -0400,9138.964333791668,0.619476318359375,0.2392730712890625,-0.298828125,1,0.99
2020-05-16 12:04:49.131 -0400,9139.034181791667,0.302947998046875,0.450592041015625,-0.1761016845703125,1,0.99
2020-05-16 12:04:49.201 -0400,9139.104028791668,0.3308868408203125,0.3164520263671875,-0.0723114013671875,1,0.99
2020-05-16 12:04:49.271 -0400,9139.173874791668,0.6480255126953125,0.193878173828125,-0.1188507080078125,1,0.99
2020-05-16 12:04:49.340 -0400,9139.243721791667,1.335556030273438,0.3407135009765625,0.069244384765625,1,0.99
2020-05-16 12:04:49.410 -0400,9139.313571791667,1.483367919921875,0.775360107421875,-0.2344970703125,1,0.99
2020-05-16 12:04:49.480 -0400,9139.383416791667,1.429489135742188,0.3036041259765625,-0.7642974853515625,1,0.99
2020-05-16 12:04:49.550 -0400,9139.45325925,1.139022827148438,0.0850830078125,-0.0958709716796875,1,0.99
2020-05-16 12:04:49.620 -0400,9139.523103250001,0.7340850830078125,0.18524169921875,-0.2141876220703125,1,0.99
2020-05-16 12:04:49.690 -0400,9139.592951250001,0.38177490234375,0.5294036865234375,-0.2358856201171875,1,0.99
2020-05-16 12:04:49.759 -0400,9139.662796250001,0.4168701171875,0.5250244140625,-0.1826171875,1,0.99
2020-05-16 12:04:49.829 -0400,9139.732642250001,0.8124847412109375,0.4622344970703125,-0.252777099609375,1,0.99
2020-05-16 12:04:49.899 -0400,9139.802487250001,1.058013916015625,0.4372406005859375,-0.2359619140625,1,0.99
2020-05-16 12:04:49.969 -0400,9139.87233625,1.571548461914062,0.55633544921875,-0.34771728515625,1,0.99
2020-05-16 12:04:50.039 -0400,9139.94217925,1.652999877929688,0.550262451171875,-0.3348388671875,1,0.99
2020-05-16 12:04:50.109 -0400,9140.01202425,1.464859008789062,0.20672607421875,-0.1190032958984375,1,0.99
2020-05-16 12:04:50.179 -0400,9140.08186925,0.851531982421875,0.2926177978515625,-0.1552886962890625,1,0.99
2020-05-16 12:04:50.248 -0400,9140.15171625,0.4416961669921875,0.321197509765625,-0.1161346435546875,1,0.99
2020-05-16 12:04:50.318 -0400,9140.221557250001,0.2613067626953125,0.273345947265625,-0.0152130126953125,1,0.99
2020-05-16 12:04:50.388 -0400,9140.291402250001,0.38720703125,0.248199462890625,-0.0520477294921875,1,0.99
2020-05-16 12:04:50.458 -0400,9140.36124525,1.286041259765625,0.312225341796875,-0.0252685546875,1,0.99
2020-05-16 12:04:50.528 -0400,9140.431086250001,1.587646484375,0.333709716796875,-0.0456695556640625,1,0.99
2020-05-16 12:04:50.598 -0400,9140.500927250001,1.626571655273438,0.6378021240234375,-0.5031280517578125,1,0.99
2020-05-16 12:04:50.667 -0400,9140.57076525,1.208297729492188,0.3594970703125,-0.2084503173828125,1,0.99
2020-05-16 12:04:50.737 -0400,9140.640605250001,0.9884033203125,0.108154296875,-0.131622314453125,1,0.99
2020-05-16 12:04:50.807 -0400,9140.71044425,0.6016082763671875,0.2593231201171875,-0.254150390625,1,0.99
2020-05-16 12:04:50.877 -0400,9140.78028325,0.351806640625,0.4182891845703125,-0.1859283447265625,1,0.99
2020-05-16 12:04:50.947 -0400,9140.850126250001,0.3709869384765625,0.370269775390625,-0.1991729736328125,1,0.99
2020-05-16 12:04:51.017 -0400,9140.919971250001,1.076400756835938,0.4317626953125,-0.3227996826171875,1,0.99
2020-05-16 12:04:51.086 -0400,9140.989815250001,1.488800048828125,0.353668212890625,-0.301727294921875,1,0.99
2020-05-16 12:04:51.156 -0400,9141.059656250001,1.300323486328125,0.4400634765625,-0.3910675048828125,1,0.99
2020-05-16 12:04:51.226 -0400,9141.12949825,1.25909423828125,0.6266021728515625,-0.4167633056640625,1,0.99
2020-05-16 12:04:51.296 -0400,9141.19933825,1.260208129882812,0.20599365234375,-0.0909881591796875,1,0.99
2020-05-16 12:04:51.366 -0400,9141.26917725,1.03021240234375,0.226837158203125,-0.04345703125,1,0.99
2020-05-16 12:04:51.436 -0400,9141.33901525,0.722412109375,0.4281005859375,-0.068572998046875,1,0.99
2020-05-16 12:04:51.505 -0400,9141.408859625,0.4445953369140625,0.363189697265625,0.034423828125,1,0.99
2020-05-16 12:04:51.575 -0400,9141.478701625001,0.5873870849609375,0.3363494873046875,0.0266571044921875,1,0.99
2020-05-16 12:04:51.645 -0400,9141.548542625,1.160781860351562,0.35980224609375,-0.053558349609375,1,0.99
2020-05-16 12:04:51.715 -0400,9141.618384625001,1.3145751953125,0.264251708984375,-0.1502532958984375,1,0.99
2020-05-16 12:04:51.785 -0400,9141.688226625001,1.224853515625,0.16278076171875,-0.130859375,1,0.99
2020-05-16 12:04:51.855 -0400,9141.758069625001,1.30230712890625,0.389251708984375,-0.3063812255859375,1,0.99
2020-05-16 12:04:51.925 -0400,9141.827911625001,1.0032958984375,0.190826416015625,-0.203277587890625,1,0.99
2020-05-16 12:04:51.995 -0400,9141.897752625,0.6881866455078125,0.217498779296875,-0.23883056640625,1,0.99
2020-05-16 12:04:52.064 -0400,9141.967593625001,0.4563446044921875,0.3048858642578125,-0.1930694580078125,1,0.99
2020-05-16 12:04:52.134 -0400,9142.037434625001,0.3506317138671875,0.3117218017578125,-0.15484619140625,1,0.99
2020-05-16 12:04:52.204 -0400,9142.107275625001,0.6015625,0.3499298095703125,-0.1690216064453125,1,0.99
2020-05-16 12:04:52.274 -0400,9142.177115625,1.005462646484375,0.4333038330078125,-0.2385406494140625,1,0.99
2020-05-16 12:04:52.344 -0400,9142.246960625,1.341476440429688,0.5728302001953125,-0.432098388671875,1,0.99
2020-05-16 12:04:52.413 -0400,9142.316805625,1.452987670898438,0.585968017578125,-0.493072509765625,1,0.99
2020-05-16 12:04:52.483 -0400,9142.386649625001,1.183517456054688,0.3714447021484375,-0.4980621337890625,1,0.99
2020-05-16 12:04:52.553 -0400,9142.456493625001,1.457199096679688,0.071624755859375,-0.0871124267578125,1,0.99
2020-05-16 12:04:52.623 -0400,9142.526335625,0.9649505615234375,0.267608642578125,-0.0782470703125,1,0.99
2020-05-16 12:04:52.693 -0400,9142.596174625001,0.578338623046875,0.4322052001953125,-0.1246795654296875,1,0.99
2020-05-16 12:04:52.763 -0400,9142.666014625,0.5177001953125,0.38787841796875,0.0175628662109375,1,0.99
2020-05-16 12:04:52.832 -0400,9142.735855625,0.8641204833984375,0.3396148681640625,0.025726318359375,1,0.99
2020-05-16 12:04:52.902 -0400,9142.805689625,1.1939697265625,0.3105926513671875,-0.0615386962890625,1,0.99
2020-05-16 12:04:52.972 -0400,9142.875525625001,1.299224853515625,0.2810516357421875,-0.11822509765625,1,0.99
2020-05-16 12:04:53.042 -0400,9142.945365625001,1.291213989257812,0.4254608154296875,-0.3491363525390625,1,0.99
2020-05-16 12:04:53.112 -0400,9143.015202625,1.159210205078125,0.2360687255859375,-0.2520294189453125,1,0.99
2020-05-16 12:04:53.182 -0400,9143.085035625001,0.911895751953125,0.1756439208984375,-0.257843017578125,1,0.99
2020-05-16 12:04:53.255 -0400,9143.154869625001,0.5988006591796875,0.299835205078125,-0.37042236328125,1,0.99
2020-05-16 12:04:53.321 -0400,9143.224706625,0.4320068359375,0.31036376953125,-0.308258056640625,1,0.99
2020-05-16 12:04:53.391 -0400,9143.294541625,0.591278076171875,0.3132171630859375,-0.36712646484375,1,0.99
2020-05-16 12:04:53.461 -0400,9143.364377625001,0.813751220703125,0.3523101806640625,-0.3139801025390625,1,0.99
2020-05-16 12:04:53.531 -0400,9143.43421275,1.024017333984375,0.3814849853515625,-0.354095458984375,1,0.99
2020-05-16 12:04:53.601 -0400,9143.504048750001,1.592330932617188,0.5960693359375,-0.524658203125,1,0.99
2020-05-16 12:04:53.671 -0400,9143.57388575,1.2987060546875,0.491485595703125,-0.32440185546875,1,0.99
2020-05-16 12:04:53.740 -0400,9143.64372475,1.484527587890625,0.25714111328125,-0.0322418212890625,1,0.99
2020-05-16 12:04:53.810 -0400,9143.71356075,0.92803955078125,0.26202392578125,-0.0061492919921875,1,0.99
2020-05-16 12:04:53.880 -0400,9143.78339875,0.4212493896484375,0.368438720703125,-0.042388916015625,1,0.99
2020-05-16 12:04:53.950 -0400,9143.853236750001,0.4413604736328125,0.4050750732421875,0.0360870361328125,1,0.99
2020-05-16 12:04:54.020 -0400,9143.92307875,0.7947998046875,0.5713653564453125,0.0438079833984375,1,0.99
2020-05-16 12:04:54.089 -0400,9143.992920750001,1.175994873046875,1.05328369140625,-0.03131103515625,1,0.99
2020-05-16 12:04:54.159 -0400,9144.062761750001,0.9603424072265625,0.84423828125,-0.1796875,1,0.99
2020-05-16 12:04:54.230 -0400,9144.13259775,0.945953369140625,0.540008544921875,-0.28973388671875,1,0.99
2020-05-16 12:04:54.299 -0400,9144.20243775,0.910552978515625,0.1950836181640625,-0.2751617431640625,1,0.99
2020-05-16 12:04:54.369 -0400,9144.27227775,0.9272613525390625,0.0492706298828125,-0.2470245361328125,1,0.99
2020-05-16 12:04:54.439 -0400,9144.34212175,0.745574951171875,0.22393798828125,-0.2734832763671875,1,0.99
2020-05-16 12:04:54.509 -0400,9144.411964500001,0.6436004638671875,0.42181396484375,-0.2076416015625,1,0.99
2020-05-16 12:04:54.578 -0400,9144.481809500001,0.6321258544921875,0.4810943603515625,-0.1596527099609375,1,0.99
2020-05-16 12:04:54.648 -0400,9144.5516515,0.930999755859375,0.402435302734375,-0.116851806640625,1,0.99
2020-05-16 12:04:54.718 -0400,9144.6214965,1.114212036132812,0.462249755859375,-0.216522216796875,1,0.99
2020-05-16 12:04:54.788 -0400,9144.691343500001,1.387603759765625,0.6884918212890625,-0.34979248046875,1,0.99
2020-05-16 12:04:54.858 -0400,9144.761188500001,1.163665771484375,0.706146240234375,-0.624176025390625,1,0.99
2020-05-16 12:04:54.928 -0400,9144.831034500001,1.630035400390625,0.1267547607421875,-0.0874786376953125,1,0.99
2020-05-16 12:04:54.997 -0400,9144.900880500001,1.004562377929688,0.1487274169921875,-0.2011260986328125,1,0.99
2020-05-16 12:04:55.067 -0400,9144.9707265,0.556640625,0.4452362060546875,-0.1824493408203125,1,0.99
2020-05-16 12:04:55.137 -0400,9145.0405735,0.4918212890625,0.364013671875,-0.0096588134765625,1,0.99
2020-05-16 12:04:55.207 -0400,9145.110419500001,0.743316650390625,0.2794342041015625,-0.0184173583984375,1,0.99
2020-05-16 12:04:55.277 -0400,9145.180266500001,1.116485595703125,0.2469329833984375,-0.0240478515625,1,0.99
2020-05-16 12:04:55.347 -0400,9145.250111500001,1.204421997070312,0.310028076171875,-0.165191650390625,1,0.99
2020-05-16 12:04:55.416 -0400,9145.3199625,1.17340087890625,0.37847900390625,-0.25506591796875,1,0.99
2020-05-16 12:04:55.486 -0400,9145.3898095,1.234954833984375,0.3783416748046875,-0.415313720703125,1,0.99
2020-05-16 12:04:55.556 -0400,9145.459657250001,0.9336090087890625,0.1705780029296875,-0.2320709228515625,1,0.99
2020-05-16 12:04:55.626 -0400,9145.529505250001,0.59320068359375,0.29168701171875,-0.32049560546875,1,0.99
2020-05-16 12:04:55.696 -0400,9145.599351250001,0.4892120361328125,0.419464111328125,-0.2339019775390625,1,0.99
2020-05-16 12:04:55.766 -0400,9145.66919825,0.6019134521484375,0.40118408203125,-0.2717132568359375,1,0.99
2020-05-16 12:04:55.836 -0400,9145.73904525,0.8401031494140625,0.4085845947265625,-0.33319091796875,1,0.99
2020-05-16 12:04:55.905 -0400,9145.80889025,1.199478149414062,0.4093780517578125,-0.3777008056640625,1,0.99
2020-05-16 12:04:55.975 -0400,9145.878731250001,1.8602294921875,0.5314483642578125,-0.4839935302734375,1,0.99
2020-05-16 12:04:56.045 -0400,9145.948570250001,1.223709106445312,0.5170440673828125,-0.27362060546875,1,0.99
2020-05-16 12:04:56.115 -0400,9146.01841325,1.416519165039062,0.6419525146484375,-0.0674896240234375,1,0.99
2020-05-16 12:04:56.185 -0400,9146.088257250001,0.8213348388671875,0.577972412109375,-0.0602264404296875,1,0.99
2020-05-16 12:04:56.255 -0400,9146.158101250001,0.4036865234375,0.7984619140625,0.0001373291015625,1,0.99
2020-05-16 12:04:56.325 -0400,9146.227945250001,0.2826690673828125,0.7100830078125,0.02276611328125,1,0.99
2020-05-16 12:04:56.395 -0400,9146.29778925,0.1593780517578125,0.9608154296875,-0.0496978759765625,1,0.99
2020-05-16 12:04:56.464 -0400,9146.367635250001,-0.0245819091796875,0.9604034423828125,-0.0174407958984375,1,0.99
2020-05-16 12:04:56.534 -0400,9146.437484625001,-0.26666259765625,0.8216705322265625,-0.2780914306640625,1,0.99
2020-05-16 12:04:56.604 -0400,9146.507333625001,-0.6180877685546875,1.125,-0.5205230712890625,1,0.99
2020-05-16 12:04:56.674 -0400,9146.577179625001,-0.292022705078125,0.8922271728515625,-0.6331329345703125,1,0.99
2020-05-16 12:04:56.744 -0400,9146.647026625,-0.4741973876953125,0.5558624267578125,-0.3920135498046875,1,0.99
2020-05-16 12:04:56.813 -0400,9146.716874625001,-0.3169708251953125,0.2776336669921875,-0.3812255859375,1,0.99
2020-05-16 12:04:56.883 -0400,9146.786720625001,-0.3193206787109375,0.08734130859375,-0.3469696044921875,1,0.99
2020-05-16 12:04:56.953 -0400,9146.856567625,-0.5197296142578125,0.1383514404296875,-0.4008026123046875,1,0.99
2020-05-16 12:04:57.023 -0400,9146.926411625,-0.863372802734375,0.319183349609375,-0.5406951904296875,1,0.99
2020-05-16 12:04:57.093 -0400,9146.996259625001,-1.043701171875,0.39764404296875,-0.73992919921875,1,0.99
2020-05-16 12:04:57.163 -0400,9147.066104625001,-1.307296752929688,0.348114013671875,-0.49481201171875,1,0.99
2020-05-16 12:04:57.233 -0400,9147.135947625,-1.208740234375,0.50396728515625,-0.40081787109375,1,0.99
2020-05-16 12:04:57.302 -0400,9147.205792625,-0.9852447509765625,0.2838287353515625,-0.2539825439453125,1,0.99
2020-05-16 12:04:57.372 -0400,9147.275641625001,-0.7508087158203125,0.207550048828125,-0.242462158203125,1,0.99
2020-05-16 12:04:57.442 -0400,9147.345488625,-0.571807861328125,0.052459716796875,-0.216156005859375,1,0.99
2020-05-16 12:04:57.512 -0400,9147.415337791666,-0.5233001708984375,0.059783935546875,-0.2366790771484375,1,0.99
2020-05-16 12:04:57.582 -0400,9147.485182791666,-0.6663818359375,0.0944976806640625,-0.35528564453125,1,0.99
2020-05-16 12:04:57.652 -0400,9147.555029791667,-1.165542602539062,0.2206573486328125,-0.6611175537109375,1,0.99
2020-05-16 12:04:57.721 -0400,9147.624876791668,-1.2303466796875,0.1382904052734375,-0.8101348876953125,1,0.99
2020-05-16 12:04:57.791 -0400,9147.694720791667,-0.684356689453125,0.7573089599609375,-1.052520751953125,1,0.99
2020-05-16 12:04:57.861 -0400,9147.764568791667,-0.510284423828125,0.393341064453125,-0.4208984375,1,0.99
2020-05-16 12:04:57.931 -0400,9147.834419791667,-0.6469573974609375,0.4398345947265625,-0.55126953125,1,0.99
2020-05-16 12:04:58.001 -0400,9147.904266791667,-0.3587188720703125,0.1890716552734375,-0.3203125,1,0.99
2020-05-16 12:04:58.071 -0400,9147.974108791666,-0.138946533203125,-0.047698974609375,-0.2339630126953125,1,0.99
2020-05-16 12:04:58.140 -0400,9148.043952791668,-0.1257476806640625,0.14923095703125,0.0401458740234375,1,0.99
2020-05-16 12:04:58.210 -0400,9148.113802791668,-0.0978851318359375,0.61138916015625,-0.1139984130859375,1,0.99
2020-05-16 12:04:58.280 -0400,9148.183653791668,0.0909576416015625,1.261978149414062,-0.177581787109375,1,0.99
2020-05-16 12:04:58.350 -0400,9148.253504791668,0.6914215087890625,1.870620727539062,-0.341949462890625,1,0.99
2020-05-16 12:04:58.420 -0400,9148.323352791667,0.787567138671875,1.824737548828125,-0.3526763916015625,1,0.99
2020-05-16 12:04:58.490 -0400,9148.393197791667,1.053482055664062,1.35736083984375,-0.400909423828125,1,0.99
2020-05-16 12:04:58.560 -0400,9148.463046625,0.8194580078125,0.870361328125,-0.293212890625,1,0.99
2020-05-16 12:04:58.629 -0400,9148.532892625,0.37298583984375,0.4984130859375,-0.196136474609375,1,0.99
2020-05-16 12:04:58.699 -0400,9148.602735625,0.23187255859375,0.4435577392578125,-0.170989990234375,1,0.99
2020-05-16 12:04:58.769 -0400,9148.672580625,0.34814453125,0.410064697265625,-0.10211181640625,1,0.99
2020-05-16 12:04:58.839 -0400,9148.742424625001,0.8764495849609375,0.3962554931640625,-0.1079864501953125,1,0.99
2020-05-16 12:04:58.909 -0400,9148.812271625,1.336135864257812,0.348358154296875,-0.19183349609375,1,0.99
2020-05-16 12:04:58.980 -0400,9148.882118625001,1.595855712890625,0.4332275390625,-0.072357177734375,1,0.99
2020-05-16 12:04:59.049 -0400,9148.951965625001,1.134963989257812,0.6141357421875,-0.243621826171875,1,0.99
2020-05-16 12:04:59.118 -0400,9149.021811625,0.9770660400390625,0.449127197265625,-0.2878570556640625,1,0.99
2020-05-16 12:04:59.188 -0400,9149.091655625001,0.8265228271484375,0.2205657958984375,-0.2602386474609375,1,0.99
2020-05-16 12:04:59.258 -0400,9149.161501625,0.484832763671875,0.299591064453125,-0.2741851806640625,1,0.99
2020-05-16 12:04:59.328 -0400,9149.231348625,0.47021484375,0.4302978515625,-0.25335693359375,1,0.99
2020-05-16 12:04:59.398 -0400,9149.301193625,0.6945648193359375,0.44622802734375,-0.3368377685546875,1,0.99
2020-05-16 12:04:59.468 -0400,9149.371038625,0.92742919921875,0.478759765625,-0.433502197265625,1,0.99
2020-05-16 12:04:59.538 -0400,9149.440888625,1.15972900390625,0.4919891357421875,-0.4915771484375,1,0.99
2020-05-16 12:04:59.607 -0400,9149.510736625001,1.42919921875,0.4716796875,-0.6616668701171875,1,0.99
2020-05-16 12:04:59.677 -0400,9149.580588625,1.343246459960938,0.255828857421875,-0.417449951171875,1,0.99
2020-05-16 12:04:59.747 -0400,9149.650436625001,1.400619506835938,0.230133056640625,-0.2048492431640625,1,0.99
2020-05-16 12:04:59.817 -0400,9149.720284625,0.73370361328125,0.4654541015625,-0.31121826171875,1,0.99
2020-05-16 12:04:59.887 -0400,9149.790134625,0.424224853515625,0.336639404296875,-0.37054443359375,1,0.99
2020-05-16 12:04:59.957 -0400,9149.859984625,0.2987060546875,0.154998779296875,-0.2470703125,1,0.99
2020-05-16 12:05:00.026 -0400,9149.929832625001,0.4798736572265625,0.152374267578125,-0.13433837890625,1,0.99
2020-05-16 12:05:00.096 -0400,9149.999679625,1.365692138671875,0.379669189453125,-0.16253662109375,1,0.99
2020-05-16 12:05:00.166 -0400,9150.069531625,1.588134765625,0.4715423583984375,-0.1376495361328125,1,0.99
2020-05-16 12:05:00.236 -0400,9150.139383625001,1.3494873046875,0.6082305908203125,-0.65301513671875,1,0.99
2020-05-16 12:05:00.306 -0400,9150.209229625001,1.052566528320312,0.1898651123046875,-0.2119598388671875,1,0.99
2020-05-16 12:05:00.376 -0400,9150.279076625,0.5810699462890625,0.2117767333984375,-0.445587158203125,1,0.99
2020-05-16 12:05:00.446 -0400,9150.348926625,0.317291259765625,0.46209716796875,-0.22467041015625,1,0.99
2020-05-16 12:05:00.515 -0400,9150.418776,0.4320220947265625,0.654937744140625,-0.405975341796875,1,0.99
2020-05-16 12:05:00.585 -0400,9150.488627000001,0.9323272705078125,0.539825439453125,-0.4453277587890625,1,0.99
2020-05-16 12:05:00.655 -0400,9150.558477,1.310089111328125,0.4158477783203125,-0.529510498046875,1,0.99
2020-05-16 12:05:00.725 -0400,9150.628325,1.76727294921875,0.414581298828125,-0.49432373046875,1,0.99
2020-05-16 12:05:00.795 -0400,9150.698174000001,1.226516723632812,0.4009857177734375,-0.35394287109375,1,0.99
2020-05-16 12:05:00.865 -0400,9150.768020000001,1.205001831054688,0.4434661865234375,-0.263031005859375,1,0.99
2020-05-16 12:05:00.934 -0400,9150.837870000001,1.011627197265625,0.2652740478515625,-0.064605712890625,1,0.99
2020-05-16 12:05:01.004 -0400,9150.907721000001,0.5464630126953125,0.2512969970703125,-0.03033447265625,1,0.99
2020-05-16 12:05:01.074 -0400,9150.977571000001,0.4135894775390625,0.34033203125,0.008941650390625,1,0.99
2020-05-16 12:05:01.144 -0400,9151.047416000001,0.56854248046875,0.308502197265625,0.02337646484375,1,0.99
2020-05-16 12:05:01.214 -0400,9151.117264,0.928497314453125,0.31512451171875,-0.068634033203125,1,0.99
2020-05-16 12:05:01.284 -0400,9151.187108,1.2662353515625,0.349090576171875,-0.1941375732421875,1,0.99
2020-05-16 12:05:01.354 -0400,9151.256954,1.355987548828125,0.34515380859375,-0.3088226318359375,1,0.99
2020-05-16 12:05:01.423 -0400,9151.326797,1.117111206054688,0.4282684326171875,-0.6490020751953125,1,0.99
2020-05-16 12:05:01.493 -0400,9151.396640000001,1.142913818359375,0.1388702392578125,-0.3560943603515625,1,0.99
2020-05-16 12:05:01.563 -0400,9151.466485750001,0.78387451171875,0.331817626953125,-0.455230712890625,1,0.99
2020-05-16 12:05:01.633 -0400,9151.536335750001,0.3647308349609375,0.5264892578125,-0.337493896484375,1,0.99
2020-05-16 12:05:01.703 -0400,9151.606185750001,0.3029022216796875,0.4559326171875,-0.3125457763671875,1,0.99
2020-05-16 12:05:01.774 -0400,9151.67603375,0.7574005126953125,0.487030029296875,-0.45977783203125,1,0.99
2020-05-16 12:05:01.843 -0400,9151.745880750001,1.463638305664062,0.44677734375,-0.4116668701171875,1,0.99
2020-05-16 12:05:01.912 -0400,9151.815727750001,1.523040771484375,0.407379150390625,-0.40838623046875,1,0.99
2020-05-16 12:05:01.982 -0400,9151.88557475,1.31817626953125,0.541412353515625,-0.4239349365234375,1,0.99
2020-05-16 12:05:02.052 -0400,9151.955421750001,1.417327880859375,0.27838134765625,-0.1037139892578125,1,0.99
2020-05-16 12:05:02.122 -0400,9152.02527075,0.97796630859375,0.2201080322265625,-0.0556182861328125,1,0.99
2020-05-16 12:05:02.192 -0400,9152.095118750001,0.573822021484375,0.3524932861328125,-0.046356201171875,1,0.99
2020-05-16 12:05:02.262 -0400,9152.16496575,0.4139251708984375,0.3506927490234375,0.023712158203125,1,0.99
2020-05-16 12:05:02.331 -0400,9152.234812750001,0.6002197265625,0.2751007080078125,0.03680419921875,1,0.99
2020-05-16 12:05:02.401 -0400,9152.304658750001,1.002914428710938,0.2885284423828125,-0.047882080078125,1,0.99
2020-05-16 12:05:02.471 -0400,9152.374508750001,1.289352416992188,0.2940673828125,-0.140411376953125,1,0.99
2020-05-16 12:05:02.543 -0400,9152.444358791667,1.620346069335938,0.5436248779296875,-0.5274200439453125,1,0.99
2020-05-16 12:05:02.611 -0400,9152.514207791668,1.255416870117188,0.2483062744140625,-0.3720855712890625,1,0.99
2020-05-16 12:05:02.681 -0400,9152.584049791667,1.071044921875,0.0106658935546875,-0.39453125,1,0.99
2020-05-16 12:05:02.750 -0400,9152.653890791667,0.5518035888671875,0.2411651611328125,-0.4313201904296875,1,0.99
2020-05-16 12:05:02.820 -0400,9152.723730791668,0.2828521728515625,0.4405364990234375,-0.334686279296875,1,0.99
2020-05-16 12:05:02.890 -0400,9152.793572791667,0.42816162109375,0.34210205078125,-0.2918243408203125,1,0.99
2020-05-16 12:05:02.960 -0400,9152.863412791667,0.8079681396484375,0.340728759765625,-0.364715576171875,1,0.99
2020-05-16 12:05:03.030 -0400,9152.933254791667,1.336563110351562,0.498016357421875,-0.4703521728515625,1,0.99
2020-05-16 12:05:03.100 -0400,9153.003099791667,1.658294677734375,0.5818023681640625,-0.5850677490234375,1,0.99
2020-05-16 12:05:03.169 -0400,9153.072945791668,1.247833251953125,0.2421875,-0.2650299072265625,1,0.99
2020-05-16 12:05:03.239 -0400,9153.142793791667,1.143295288085938,0.20001220703125,-0.0789642333984375,1,0.99
2020-05-16 12:05:03.309 -0400,9153.212641791668,0.65313720703125,0.37542724609375,-0.1168670654296875,1,0.99
2020-05-16 12:05:03.379 -0400,9153.282488791667,0.46734619140625,0.4010162353515625,-0.06927490234375,1,0.99
2020-05-16 12:05:03.449 -0400,9153.352333791667,0.581085205078125,0.3476715087890625,-0.0152130126953125,1,0.99
2020-05-16 12:05:03.519 -0400,9153.422178750001,1.097015380859375,0.29742431640625,-0.0509796142578125,1,0.99
2020-05-16 12:05:03.589 -0400,9153.49202175,1.067367553710938,0.1990203857421875,-0.0915069580078125,1,0.99
2020-05-16 12:05:03.658 -0400,9153.561864750001,1.292694091796875,0.380279541015625,-0.1475067138671875,1,0.99
2020-05-16 12:05:03.729 -0400,9153.631709750001,1.180587768554688,0.468017578125,-0.35321044921875,1,0.99
2020-05-16 12:05:03.798 -0400,9153.701553750001,1.332855224609375,0.362213134765625,-0.2394561767578125,1,0.99
2020-05-16 12:05:03.868 -0400,9153.771398750001,0.6868743896484375,0.3218994140625,-0.3725128173828125,1,0.99
2020-05-16 12:05:03.938 -0400,9153.841243750001,0.4335174560546875,0.4103240966796875,-0.3228607177734375,1,0.99
2020-05-16 12:05:04.008 -0400,9153.911089750001,0.6243896484375,0.39935302734375,-0.3728179931640625,1,0.99
2020-05-16 12:05:04.077 -0400,9153.98093575,1.114227294921875,0.293792724609375,-0.42071533203125,1,0.99
2020-05-16 12:05:04.147 -0400,9154.050783750001,1.237091064453125,0.3430938720703125,-0.4521484375,1,0.99
2020-05-16 12:05:04.217 -0400,9154.12063275,1.558929443359375,0.6424560546875,-0.563812255859375,1,0.99
2020-05-16 12:05:04.287 -0400,9154.190483750001,1.362335205078125,0.3893280029296875,-0.3630218505859375,1,0.99
2020-05-16 12:05:04.357 -0400,9154.260328750001,1.296844482421875,0.1830596923828125,-0.060821533203125,1,0.99
2020-05-16 12:05:04.427 -0400,9154.330174750001,0.785614013671875,0.382598876953125,-0.1532135009765625,1,0.99
2020-05-16 12:05:04.497 -0400,9154.40002775,0.4659423828125,0.355804443359375,-0.0570831298828125,1,0.99
2020-05-16 12:05:04.567 -0400,9154.469875291667,0.533782958984375,0.327117919921875,-0.0104522705078125,1,0.99
2020-05-16 12:05:04.636 -0400,9154.539723291668,0.9203643798828125,0.2654266357421875,-0.0326690673828125,1,0.99
2020-05-16 12:05:04.707 -0400,9154.609569291668,1.115753173828125,0.195220947265625,-0.0334014892578125,1,0.99
2020-05-16 12:05:04.776 -0400,9154.679416291667,1.263870239257812,0.370208740234375,-0.126983642578125,1,0.99
2020-05-16 12:05:04.846 -0400,9154.749260291666,1.251693725585938,0.59796142578125,-0.62481689453125,1,0.99
2020-05-16 12:05:04.916 -0400,9154.819109291668,1.323989868164062,0.338470458984375,-0.4224395751953125,1,0.99
2020-05-16 12:05:04.985 -0400,9154.888958291667,0.7882537841796875,-0.0244903564453125,-0.3641815185546875,1,0.99
2020-05-16 12:05:05.055 -0400,9154.958811291668,0.5339813232421875,0.303863525390625,-0.2815704345703125,1,0.99
2020-05-16 12:05:05.125 -0400,9155.028660291668,0.4782867431640625,0.6023712158203125,-0.3812103271484375,1,0.99
2020-05-16 12:05:05.195 -0400,9155.098508291667,0.7650146484375,0.497802734375,-0.49957275390625,1,0.99
2020-05-16 12:05:05.265 -0400,9155.168353291667,1.184051513671875,0.212188720703125,-0.3491363525390625,1,0.99
2020-05-16 12:05:05.345 -0400,9155.238197291666,1.312408447265625,0.3859100341796875,-0.353424072265625,1,0.99
2020-05-16 12:05:05.405 -0400,9155.308045291667,1.422088623046875,0.6339111328125,-0.51397705078125,1,0.99
2020-05-16 12:05:05.474 -0400,9155.377890291667,1.502899169921875,0.2134246826171875,-0.0893707275390625,1,0.99
2020-05-16 12:05:05.544 -0400,9155.447734041667,1.055023193359375,0.10491943359375,-0.0654754638671875,1,0.99
2020-05-16 12:05:05.614 -0400,9155.517581041668,0.5705718994140625,0.3876800537109375,-0.1376800537109375,1,0.99
2020-05-16 12:05:05.684 -0400,9155.587429041667,0.4873809814453125,0.333953857421875,-0.0120849609375,1,0.99
2020-05-16 12:05:05.754 -0400,9155.657276041668,0.77301025390625,0.24188232421875,-0.0098876953125,1,0.99
2020-05-16 12:05:05.824 -0400,9155.727125041667,0.837005615234375,0.1516876220703125,-0.0282440185546875,1,0.99
2020-05-16 12:05:05.894 -0400,9155.796975041667,0.96319580078125,0.24359130859375,-0.1009674072265625,1,0.99
2020-05-16 12:05:05.963 -0400,9155.866822041668,1.248031616210938,0.41693115234375,-0.16778564453125,1,0.99
2020-05-16 12:05:06.033 -0400,9155.936670041667,1.625823974609375,0.5470733642578125,-0.55706787109375,1,0.99
2020-05-16 12:05:06.103 -0400,9156.006518041668,1.2703857421875,0.2610626220703125,-0.1589508056640625,1,0.99
2020-05-16 12:05:06.173 -0400,9156.076367041667,0.62542724609375,0.260162353515625,-0.4364471435546875,1,0.99
2020-05-16 12:05:06.243 -0400,9156.146213041668,0.4572296142578125,0.531524658203125,-0.2794189453125,1,0.99
2020-05-16 12:05:06.313 -0400,9156.216059041668,0.6612396240234375,0.658721923828125,-0.5245361328125,1,0.99
2020-05-16 12:05:06.383 -0400,9156.285906041667,1.114990234375,0.31756591796875,-0.4922332763671875,1,0.99
2020-05-16 12:05:06.452 -0400,9156.355754041668,1.3104248046875,0.22357177734375,-0.440643310546875,1,0.99
2020-05-16 12:05:06.522 -0400,9156.425601625,1.475845336914062,0.4998779296875,-0.40606689453125,1,0.99
2020-05-16 12:05:06.592 -0400,9156.495448625001,1.512039184570312,0.387542724609375,-0.0624847412109375,1,0.99
2020-05-16 12:05:06.662 -0400,9156.565301625,1.240280151367188,0.2236175537109375,0.077484130859375,1,0.99
2020-05-16 12:05:06.732 -0400,9156.635152625,0.4279937744140625,0.1710052490234375,0.073394775390625,1,0.99
2020-05-16 12:05:06.802 -0400,9156.704999625001,0.333770751953125,0.2923736572265625,0.0195465087890625,1,0.99
2020-05-16 12:05:06.871 -0400,9156.774846625001,0.518585205078125,0.30120849609375,-0.0279388427734375,1,0.99
2020-05-16 12:05:06.942 -0400,9156.844692625,1.061752319335938,0.2763671875,-0.1402740478515625,1,0.99
2020-05-16 12:05:07.011 -0400,9156.914538625,1.444808959960938,0.2218475341796875,-0.069366455078125,1,0.99
2020-05-16 12:05:07.081 -0400,9156.984384625001,1.371719360351562,0.44281005859375,-0.3421630859375,1,0.99
2020-05-16 12:05:07.151 -0400,9157.054231625001,1.097412109375,0.578857421875,-0.3238372802734375,1,0.99
2020-05-16 12:05:07.221 -0400,9157.124076625001,0.9754638671875,0.401885986328125,-0.38812255859375,1,0.99
2020-05-16 12:05:07.296 -0400,9157.193922625,0.934326171875,0.24267578125,-0.2331695556640625,1,0.99
2020-05-16 12:05:07.361 -0400,9157.263768625,0.5002288818359375,0.44293212890625,-0.2757415771484375,1,0.99
2020-05-16 12:05:07.430 -0400,9157.333610625001,0.4334564208984375,0.5009307861328125,-0.1977081298828125,1,0.99
2020-05-16 12:05:07.500 -0400,9157.403452625,0.6260223388671875,0.4237823486328125,-0.272735595703125,1,0.99
2020-05-16 12:05:07.570 -0400,9157.473297291666,1.052398681640625,0.3932342529296875,-0.313873291015625,1,0.99
2020-05-16 12:05:07.640 -0400,9157.543143291667,1.311813354492188,0.3431549072265625,-0.2857818603515625,1,0.99
2020-05-16 12:05:07.710 -0400,9157.612988291667,1.455673217773438,0.5172576904296875,-0.3350982666015625,1,0.99
2020-05-16 12:05:07.779 -0400,9157.682832291668,1.252349853515625,0.2088165283203125,-0.2391204833984375,1,0.99
2020-05-16 12:05:07.849 -0400,9157.752672291666,1.09490966796875,0.2464752197265625,-0.0369415283203125,1,0.99
2020-05-16 12:05:07.919 -0400,9157.822513291667,0.5730133056640625,0.4297637939453125,-0.1736602783203125,1,0.99
2020-05-16 12:05:07.989 -0400,9157.892354291667,0.2935943603515625,0.29443359375,-0.058502197265625,1,0.99
2020-05-16 12:05:08.059 -0400,9157.962193291667,0.3781280517578125,0.2664337158203125,-0.0691375732421875,1,0.99
2020-05-16 12:05:08.131 -0400,9158.032033291667,1.212478637695312,0.26971435546875,-0.063018798828125,1,0.99
2020-05-16 12:05:08.199 -0400,9158.101878291667,1.357955932617188,0.38311767578125,0.003173828125,1,0.99
2020-05-16 12:05:08.268 -0400,9158.171718291667,1.473098754882812,0.575927734375,-0.2820892333984375,1,0.99
2020-05-16 12:05:08.338 -0400,9158.241562291667,1.17010498046875,0.6139068603515625,-0.4703826904296875,1,0.99
2020-05-16 12:05:08.408 -0400,9158.311405291668,1.028488159179688,0.18853759765625,-0.1116180419921875,1,0.99
2020-05-16 12:05:08.478 -0400,9158.381247291667,0.481903076171875,0.1861114501953125,-0.1817626953125,1,0.99
2020-05-16 12:05:08.548 -0400,9158.451086500001,0.3155364990234375,0.3921966552734375,-0.138397216796875,1,0.99
2020-05-16 12:05:08.617 -0400,9158.520924500001,0.4258575439453125,0.4223785400390625,-0.2087249755859375,1,0.99
2020-05-16 12:05:08.687 -0400,9158.590766500001,0.708038330078125,0.4333038330078125,-0.3619537353515625,1,0.99
2020-05-16 12:05:08.757 -0400,9158.6606075,1.196548461914062,0.4349365234375,-0.3972015380859375,1,0.99
2020-05-16 12:05:08.827 -0400,9158.730451500001,1.600265502929688,0.547760009765625,-0.538909912109375,1,0.99
2020-05-16 12:05:08.897 -0400,9158.8002925,1.319427490234375,0.424041748046875,-0.2710418701171875,1,0.99
2020-05-16 12:05:08.967 -0400,9158.8701375,1.064178466796875,0.2280731201171875,-0.1192474365234375,1,0.99
2020-05-16 12:05:09.037 -0400,9158.939975500001,0.5135955810546875,0.39459228515625,-0.196533203125,1,0.99
2020-05-16 12:05:09.106 -0400,9159.0098165,0.357391357421875,0.366546630859375,-0.1235809326171875,1,0.99
2020-05-16 12:05:09.176 -0400,9159.079660500001,0.5417022705078125,0.2419891357421875,-0.0614471435546875,1,0.99
2020-05-16 12:05:09.246 -0400,9159.149504500001,0.9651031494140625,0.246185302734375,-0.018035888671875,1,0.99
2020-05-16 12:05:09.316 -0400,9159.219349500001,1.195419311523438,0.4628753662109375,-0.0429534912109375,1,0.99
2020-05-16 12:05:09.386 -0400,9159.289195500001,1.303237915039062,0.62188720703125,-0.4397430419921875,1,0.99
2020-05-16 12:05:09.456 -0400,9159.3590415,0.9927520751953125,0.4076690673828125,-0.4430694580078125,1,0.99
2020-05-16 12:05:09.525 -0400,9159.428885666668,0.9415740966796875,0.1069488525390625,-0.139923095703125,1,0.99
2020-05-16 12:05:09.595 -0400,9159.498728666667,0.467193603515625,0.265106201171875,-0.320587158203125,1,0.99
2020-05-16 12:05:09.665 -0400,9159.568569666668,0.42669677734375,0.4534149169921875,-0.3217010498046875,1,0.99
2020-05-16 12:05:09.735 -0400,9159.638408666668,0.7746429443359375,0.448272705078125,-0.38629150390625,1,0.99
2020-05-16 12:05:09.805 -0400,9159.708253666668,0.9315643310546875,0.31207275390625,-0.304534912109375,1,0.99
2020-05-16 12:05:09.875 -0400,9159.778097666667,1.098724365234375,0.3884124755859375,-0.3397674560546875,1,0.99
2020-05-16 12:05:09.945 -0400,9159.847943666668,1.367477416992188,0.5920562744140625,-0.51214599609375,1,0.99
2020-05-16 12:05:10.014 -0400,9159.917789666668,1.200042724609375,0.3748931884765625,-0.2780609130859375,1,0.99
2020-05-16 12:05:10.084 -0400,9159.987633666668,1.119720458984375,0.2052001953125,-0.2582244873046875,1,0.99
2020-05-16 12:05:10.154 -0400,9160.057473666668,0.55413818359375,0.3101348876953125,-0.20135498046875,1,0.99
2020-05-16 12:05:10.224 -0400,9160.127317666667,0.392303466796875,0.3666534423828125,-0.1663665771484375,1,0.99
2020-05-16 12:05:10.294 -0400,9160.197165666666,0.5720672607421875,0.260040283203125,-0.118316650390625,1,0.99
2020-05-16 12:05:10.365 -0400,9160.267012666667,0.9051971435546875,0.196197509765625,-0.1035919189453125,1,0.99
2020-05-16 12:05:10.434 -0400,9160.336857666667,1.1510009765625,0.3252410888671875,-0.1555938720703125,1,0.99
2020-05-16 12:05:10.503 -0400,9160.406702666667,1.451324462890625,0.5284423828125,-0.296539306640625,1,0.99
2020-05-16 12:05:10.573 -0400,9160.476546916667,1.426223754882812,0.3611297607421875,-0.5005950927734375,1,0.99
2020-05-16 12:05:10.643 -0400,9160.546392916667,0.7350006103515625,0.15057373046875,-0.20989990234375,1,0.99
2020-05-16 12:05:10.713 -0400,9160.616243916667,0.3852691650390625,0.280975341796875,-0.2491455078125,1,0.99
2020-05-16 12:05:10.783 -0400,9160.686095916668,0.395355224609375,0.4790496826171875,-0.252410888671875,1,0.99
2020-05-16 12:05:10.853 -0400,9160.755946916668,0.682525634765625,0.5173187255859375,-0.366912841796875,1,0.99
2020-05-16 12:05:10.923 -0400,9160.825797916666,1.104721069335938,0.506866455078125,-0.3795166015625,1,0.99
2020-05-16 12:05:10.992 -0400,9160.895644916667,1.696319580078125,0.685791015625,-0.6022491455078125,1,0.99
2020-05-16 12:05:11.062 -0400,9160.965493916667,1.221420288085938,0.5168914794921875,-0.5464630126953125,1,0.99
2020-05-16 12:05:11.132 -0400,9161.035337916666,1.460723876953125,0.2407073974609375,-0.226806640625,1,0.99
2020-05-16 12:05:11.202 -0400,9161.105184916667,0.8990020751953125,0.1908416748046875,-0.198333740234375,1,0.99
2020-05-16 12:05:11.272 -0400,9161.175035916667,0.5009307861328125,0.3404388427734375,-0.1578826904296875,1,0.99
2020-05-16 12:05:11.341 -0400,9161.244885916667,0.5077667236328125,0.3350067138671875,-0.0590972900390625,1,0.99
2020-05-16 12:05:11.412 -0400,9161.314731916667,0.769073486328125,0.2506866455078125,-0.0815887451171875,1,0.99
2020-05-16 12:05:11.481 -0400,9161.384581916667,0.948516845703125,0.2412261962890625,-0.0935821533203125,1,0.99
2020-05-16 12:05:11.551 -0400,9161.454429250001,1.253677368164062,0.4219970703125,-0.2539520263671875,1,0.99
2020-05-16 12:05:11.621 -0400,9161.524273250001,1.195571899414062,0.4627838134765625,-0.4652252197265625,1,0.99
2020-05-16 12:05:11.691 -0400,9161.59411625,1.426254272460938,0.3871917724609375,-0.5569610595703125,1,0.99
2020-05-16 12:05:11.760 -0400,9161.663959250001,0.7402801513671875,0.200042724609375,-0.3781280517578125,1,0.99
2020-05-16 12:05:11.830 -0400,9161.733803250001,0.4726104736328125,0.408660888671875,-0.35101318359375,1,0.99
2020-05-16 12:05:11.900 -0400,9161.803648250001,0.5306854248046875,0.5066680908203125,-0.368743896484375,1,0.99
2020-05-16 12:05:11.970 -0400,9161.873493250001,0.914703369140625,0.4178466796875,-0.3839111328125,1,0.99
2020-05-16 12:05:12.040 -0400,9161.94333625,1.024856567382812,0.4045257568359375,-0.44189453125,1,0.99
2020-05-16 12:05:12.110 -0400,9162.01317925,1.249526977539062,0.3819732666015625,-0.3985137939453125,1,0.99
2020-05-16 12:05:12.180 -0400,9162.08302025,1.369033813476562,0.43218994140625,-0.4926910400390625,1,0.99
2020-05-16 12:05:12.250 -0400,9162.15286425,1.344802856445312,0.2176055908203125,-0.2338714599609375,1,0.99
2020-05-16 12:05:12.319 -0400,9162.222708250001,0.9630126953125,0.1584930419921875,-0.1360015869140625,1,0.99
2020-05-16 12:05:12.390 -0400,9162.292551250001,0.4170074462890625,0.303619384765625,-0.144317626953125,1,0.99
2020-05-16 12:05:12.459 -0400,9162.36239025,0.3413238525390625,0.3226470947265625,-0.0850372314453125,1,0.99
2020-05-16 12:05:12.529 -0400,9162.432229625001,0.5405120849609375,0.2459259033203125,-0.068389892578125,1,0.99
2020-05-16 12:05:12.599 -0400,9162.502069625001,0.984527587890625,0.3052215576171875,-0.09173583984375,1,0.99
2020-05-16 12:05:12.668 -0400,9162.571905625,1.295501708984375,0.4597015380859375,-0.3160400390625,1,0.99
2020-05-16 12:05:12.738 -0400,9162.641744625,1.162734985351562,0.4609375,-0.4552154541015625,1,0.99
2020-05-16 12:05:12.808 -0400,9162.711585625,1.300338745117188,0.3207244873046875,-0.4509124755859375,1,0.99
2020-05-16 12:05:12.878 -0400,9162.781421625001,0.98065185546875,0.3010406494140625,-0.43157958984375,1,0.99
2020-05-16 12:05:12.948 -0400,9162.851262625001,0.515899658203125,0.44183349609375,-0.3874664306640625,1,0.99
2020-05-16 12:05:13.018 -0400,9162.921103625,0.3846893310546875,0.3675689697265625,-0.3083038330078125,1,0.99
2020-05-16 12:05:13.088 -0400,9162.990942625,0.5299530029296875,0.3447723388671875,-0.318511962890625,1,0.99
2020-05-16 12:05:13.157 -0400,9163.060781625001,0.7643890380859375,0.4012451171875,-0.3311309814453125,1,0.99
2020-05-16 12:05:13.237 -0400,9163.130622625,1.044509887695312,0.4686126708984375,-0.40655517578125,1,0.99
2020-05-16 12:05:13.297 -0400,9163.200464625001,1.442138671875,0.50616455078125,-0.381988525390625,1,0.99
2020-05-16 12:05:13.367 -0400,9163.270302625,1.198348999023438,0.55047607421875,-0.4617462158203125,1,0.99
2020-05-16 12:05:13.437 -0400,9163.340141625,1.307083129882812,0.3533477783203125,-0.2190704345703125,1,0.99
2020-05-16 12:05:13.506 -0400,9163.409981625,0.816192626953125,0.3129425048828125,-0.2286224365234375,1,0.99
2020-05-16 12:05:13.576 -0400,9163.479818375001,0.4889678955078125,0.3721160888671875,-0.17022705078125,1,0.99
2020-05-16 12:05:13.646 -0400,9163.549661375,0.42083740234375,0.2752685546875,-0.1226348876953125,1,0.99
2020-05-16 12:05:13.716 -0400,9163.619503375001,0.5389556884765625,0.1979522705078125,-0.09521484375,1,0.99
2020-05-16 12:05:13.786 -0400,9163.689347375001,0.8582611083984375,0.3171539306640625,-0.0478668212890625,1,0.99
2020-05-16 12:05:13.856 -0400,9163.759186375,1.452529907226562,0.62353515625,-0.2893218994140625,1,0.99
2020-05-16 12:05:13.926 -0400,9163.829026375,1.379241943359375,0.700775146484375,-0.700408935546875,1,0.99
2020-05-16 12:05:13.995 -0400,9163.898864375,1.452239990234375,0.1432952880859375,-0.1695098876953125,1,0.99
2020-05-16 12:05:14.065 -0400,9163.968702375001,0.63848876953125,0.2610626220703125,-0.3033294677734375,1,0.99
2020-05-16 12:05:14.135 -0400,9164.038542375001,0.2942657470703125,0.5520172119140625,-0.334228515625,1,0.99
2020-05-16 12:05:14.205 -0400,9164.108380375001,0.3831024169921875,0.4571075439453125,-0.3826446533203125,1,0.99
2020-05-16 12:05:14.275 -0400,9164.178215375001,0.8473663330078125,0.2606353759765625,-0.3057708740234375,1,0.99
2020-05-16 12:05:14.345 -0400,9164.248051375,1.432510375976562,0.3483123779296875,-0.1985931396484375,1,0.99
2020-05-16 12:05:14.414 -0400,9164.317884375001,1.263916015625,0.7444915771484375,-0.18707275390625,1,0.99
2020-05-16 12:05:14.484 -0400,9164.387721375,1.159500122070312,0.5198974609375,-0.19488525390625,1,0.99
2020-05-16 12:05:14.554 -0400,9164.457561166668,1.119949340820312,0.347198486328125,0.0664520263671875,1,0.99
2020-05-16 12:05:14.624 -0400,9164.527398166667,0.621917724609375,0.245697021484375,0.0018310546875,1,0.99
2020-05-16 12:05:14.694 -0400,9164.597238166667,0.40472412109375,0.316314697265625,0.023345947265625,1,0.99
2020-05-16 12:05:14.764 -0400,9164.667077166667,0.493560791015625,0.269287109375,0.0205078125,1,0.99
2020-05-16 12:05:14.834 -0400,9164.736917166667,0.8600311279296875,0.25775146484375,-0.0217742919921875,1,0.99
2020-05-16 12:05:14.903 -0400,9164.806756166667,2.0302734375,0.392242431640625,0.0837554931640625,1,0.99
2020-05-16 12:05:14.973 -0400,9164.876596166667,1.8421630859375,0.611602783203125,-0.245941162109375,1,0.99
2020-05-16 12:05:15.043 -0400,9164.946438166668,1.069595336914062,0.5906219482421875,-0.52105712890625,1,0.99
2020-05-16 12:05:15.113 -0400,9165.016278166668,0.596343994140625,0.0883636474609375,-0.1080780029296875,1,0.99
2020-05-16 12:05:15.183 -0400,9165.086118166668,0.6078643798828125,-0.0847930908203125,-0.13409423828125,1,0.99
2020-05-16 12:05:15.253 -0400,9165.155960166667,0.60394287109375,0.3326873779296875,-0.194610595703125,1,0.99
2020-05-16 12:05:15.322 -0400,9165.225803166668,0.6982574462890625,0.3976898193359375,-0.223602294921875,1,0.99
2020-05-16 12:05:15.392 -0400,9165.295649166666,0.9230804443359375,0.330963134765625,-0.1786346435546875,1,0.99
2020-05-16 12:05:15.462 -0400,9165.365490166667,0.8808441162109375,0.272613525390625,-0.20550537109375,1,0.99
2020-05-16 12:05:15.532 -0400,9165.435330541668,0.66119384765625,0.2079010009765625,-0.2094879150390625,1,0.99
2020-05-16 12:05:15.602 -0400,9165.505177541667,0.53466796875,0.2691497802734375,-0.31610107421875,1,0.99
2020-05-16 12:05:15.672 -0400,9165.575022541667,0.4219970703125,0.2686920166015625,-0.3178558349609375,1,0.99
2020-05-16 12:05:15.741 -0400,9165.644868541667,0.210784912109375,0.240264892578125,-0.1851806640625,1,0.99
2020-05-16 12:05:15.812 -0400,9165.714707541667,1.922637939453125,0.984344482421875,-0.1776123046875,1,0.99
2020-05-16 12:05:15.881 -0400,9165.784547541667,1.303573608398438,0.834228515625,-0.2034149169921875,1,0.99
2020-05-16 12:05:15.951 -0400,9165.854391541667,0.8000335693359375,0.86883544921875,-0.4014129638671875,1,0.99
2020-05-16 12:05:16.021 -0400,9165.924233541667,0.5084075927734375,0.205352783203125,-0.2393341064453125,1,0.99
2020-05-16 12:05:16.091 -0400,9165.994079541668,0.2758636474609375,0.1658172607421875,-0.012969970703125,1,0.99
2020-05-16 12:05:16.160 -0400,9166.063926541667,0.636627197265625,0.286285400390625,-0.0709991455078125,1,0.99
2020-05-16 12:05:16.230 -0400,9166.133772541667,2.434722900390625,0.510101318359375,0.003997802734375,1,0.99
2020-05-16 12:05:16.300 -0400,9166.203617541667,1.319259643554688,0.6423187255859375,-0.681243896484375,1,0.99
2020-05-16 12:05:16.370 -0400,9166.273459541668,0.66766357421875,0.3746185302734375,-0.05853271484375,1,0.99
2020-05-16 12:05:16.440 -0400,9166.343303541667,0.222625732421875,0.2300567626953125,-0.08935546875,1,0.99
2020-05-16 12:05:16.510 -0400,9166.413146541667,0.2344512939453125,0.3466796875,-0.065948486328125,1,0.99
2020-05-16 12:05:16.580 -0400,9166.482991125,0.6752166748046875,0.5363922119140625,-0.1560516357421875,1,0.99
2020-05-16 12:05:16.649 -0400,9166.552838125001,1.1932373046875,0.60699462890625,-0.196380615234375,1,0.99
2020-05-16 12:05:16.719 -0400,9166.622683125001,1.260986328125,0.7905120849609375,-0.431640625,1,0.99
2020-05-16 12:05:16.789 -0400,9166.692527125,1.280929565429688,0.7261962890625,-0.38751220703125,1,0.99
2020-05-16 12:05:16.859 -0400,9166.762372125,1.225509643554688,0.4534912109375,-0.2957611083984375,1,0.99
2020-05-16 12:05:16.929 -0400,9166.832217125,0.981536865234375,0.3480682373046875,-0.3268890380859375,1,0.99
2020-05-16 12:05:16.999 -0400,9166.902062125,0.58489990234375,0.3002777099609375,-0.1689605712890625,1,0.99
2020-05-16 12:05:17.068 -0400,9166.971911125,0.5262603759765625,0.3012542724609375,-0.1301422119140625,1,0.99
2020-05-16 12:05:17.139 -0400,9167.041761125001,0.73162841796875,0.231201171875,-0.1268310546875,1,0.99
2020-05-16 12:05:17.208 -0400,9167.111606125001,0.8543701171875,0.1927032470703125,0.00201416015625,1,0.99
2020-05-16 12:05:17.278 -0400,9167.181449125001,1.33074951171875,0.496551513671875,-0.0027008056640625,1,0.99
2020-05-16 12:05:17.348 -0400,9167.251296125001,1.5201416015625,0.751190185546875,-0.6004791259765625,1,0.99
2020-05-16 12:05:17.418 -0400,9167.321142125,1.05303955078125,0.4690093994140625,-0.2805023193359375,1,0.99
2020-05-16 12:05:17.488 -0400,9167.390986125001,0.6000823974609375,0.1853790283203125,-0.2315521240234375,1,0.99
2020-05-16 12:05:17.557 -0400,9167.460832250001,0.51947021484375,0.5143585205078125,-0.332794189453125,1,0.99
2020-05-16 12:05:17.627 -0400,9167.530679250001,0.5110321044921875,0.66656494140625,-0.3814697265625,1,0.99
2020-05-16 12:05:17.697 -0400,9167.60052625,0.9084320068359375,0.887359619140625,-0.358795166015625,1,0.99
2020-05-16 12:05:17.767 -0400,9167.67037125,1.835861206054688,1.073837280273438,-0.3166656494140625,1,0.99
2020-05-16 12:05:17.837 -0400,9167.740214250001,1.62677001953125,0.514373779296875,-0.172332763671875,1,0.99
2020-05-16 12:05:17.907 -0400,9167.81006125,1.350662231445312,0.527252197265625,-0.111083984375,1,0.99
2020-05-16 12:05:17.976 -0400,9167.879909250001,0.6666107177734375,0.308319091796875,-0.03228759765625,1,0.99
2020-05-16 12:05:18.046 -0400,9167.94976225,0.4446868896484375,0.3042144775390625,0.0865631103515625,1,0.99
2020-05-16 12:05:18.116 -0400,9168.019614250001,0.7509613037109375,0.208282470703125,0.0643768310546875,1,0.99
2020-05-16 12:05:18.186 -0400,9168.08946225,0.978973388671875,0.231292724609375,0.1411285400390625,1,0.99
2020-05-16 12:05:18.256 -0400,9168.15930725,0.6958465576171875,0.3089599609375,0.0010528564453125,1,0.99
2020-05-16 12:05:18.326 -0400,9168.229149250001,1.189849853515625,0.471771240234375,-0.1455841064453125,1,0.99
2020-05-16 12:05:18.396 -0400,9168.29899725,1.7401123046875,0.789581298828125,-0.7928924560546875,1,0.99
2020-05-16 12:05:18.465 -0400,9168.368850250001,0.9207000732421875,0.35394287109375,-0.4796142578125,1,0.99
2020-05-16 12:05:18.535 -0400,9168.438702250001,0.6017303466796875,0.181915283203125,-0.4049530029296875,1,0.99
2020-05-16 12:05:18.605 -0400,9168.508550250001,0.5450897216796875,0.61053466796875,-0.462493896484375,1,0.99
2020-05-16 12:05:18.675 -0400,9168.578392250001,0.6541748046875,0.86419677734375,-0.5384674072265625,1,0.99
2020-05-16 12:05:18.745 -0400,9168.648236250001,0.9913177490234375,0.9696502685546875,-0.5483856201171875,1,0.99
2020-05-16 12:05:18.815 -0400,9168.718082250001,1.58966064453125,0.4604949951171875,-0.4355316162109375,1,0.99
2020-05-16 12:05:18.884 -0400,9168.787926250001,1.626754760742188,0.5756378173828125,-0.234405517578125,1,0.99
2020-05-16 12:05:18.954 -0400,9168.85777425,1.960678100585938,0.57086181640625,-0.1737518310546875,1,0.99
2020-05-16 12:05:19.024 -0400,9168.92762925,1.168350219726562,0.2820587158203125,-0.11328125,1,0.99
2020-05-16 12:05:19.094 -0400,9168.997487250001,0.8527984619140625,0.3339996337890625,-0.0199127197265625,1,0.99
2020-05-16 12:05:19.164 -0400,9169.067339250001,0.68157958984375,0.14385986328125,0.05670166015625,1,0.99
2020-05-16 12:05:19.234 -0400,9169.13719125,0.5840301513671875,-0.0532989501953125,0.0598602294921875,1,0.99
2020-05-16 12:05:19.304 -0400,9169.20704125,0.4222869873046875,0.0341033935546875,0.0488128662109375,1,0.99
2020-05-16 12:05:19.374 -0400,9169.276894250001,0.679168701171875,0.66217041015625,0.041900634765625,1,0.99
2020-05-16 12:05:19.443 -0400,9169.34674425,1.427337646484375,0.8634033203125,-0.9586944580078125,1,0.99
2020-05-16 12:05:19.513 -0400,9169.416596250001,1.861297607421875,0.7213897705078125,-0.3555450439453125,1,0.99
2020-05-16 12:05:19.583 -0400,9169.486442875001,1.075347900390625,0.6918487548828125,-0.4330291748046875,1,0.99
2020-05-16 12:05:19.653 -0400,9169.556293875001,0.7432403564453125,0.3961639404296875,-0.5238037109375,1,0.99
2020-05-16 12:05:19.723 -0400,9169.626142875,0.7006988525390625,0.861480712890625,-0.4751739501953125,1,0.99
2020-05-16 12:05:19.793 -0400,9169.695991875,0.83734130859375,1.520187377929688,-0.4430694580078125,1,0.99
2020-05-16 12:05:19.862 -0400,9169.765842875,1.92120361328125,0.6260986328125,-0.669189453125,1,0.99
2020-05-16 12:05:19.932 -0400,9169.835692875,2.74737548828125,0.188507080078125,0.0360565185546875,1,0.99
2020-05-16 12:05:20.002 -0400,9169.905544875,2.059844970703125,0.6871337890625,-0.174713134765625,1,0.99
2020-05-16 12:05:20.072 -0400,9169.975398875,1.335708618164062,0.5449066162109375,-0.0970306396484375,1,0.99
2020-05-16 12:05:20.142 -0400,9170.045247875001,1.138839721679688,0.2570343017578125,0.1993255615234375,1,0.99
2020-05-16 12:05:20.212 -0400,9170.115095875,0.851470947265625,-0.2523345947265625,0.2003326416015625,1,0.99
2020-05-16 12:05:20.281 -0400,9170.184945875,0.443511962890625,-0.0819091796875,0.11737060546875,1,0.99
2020-05-16 12:05:20.352 -0400,9170.254795875,0.376708984375,0.4406280517578125,0.041778564453125,1,0.99
2020-05-16 12:05:20.421 -0400,9170.324643875001,0.8515167236328125,0.643524169921875,-0.5638275146484375,1,0.99
2020-05-16 12:05:20.491 -0400,9170.394493875001,1.936691284179688,0.9647216796875,-0.401275634765625,1,0.99
2020-05-16 12:05:20.561 -0400,9170.464345416667,1.431625366210938,0.992340087890625,-0.4003143310546875,1,0.99
2020-05-16 12:05:20.631 -0400,9170.534195416667,0.883514404296875,0.5377655029296875,-0.3178253173828125,1,0.99
2020-05-16 12:05:20.701 -0400,9170.604044416667,0.820465087890625,0.6722564697265625,-0.3888702392578125,1,0.99
2020-05-16 12:05:20.770 -0400,9170.673896416667,0.644378662109375,0.809814453125,-0.3870086669921875,1,0.99
2020-05-16 12:05:20.840 -0400,9170.743744416668,1.072280883789062,0.920501708984375,-0.5546875,1,0.99
2020-05-16 12:05:20.910 -0400,9170.813591416667,1.80267333984375,0.3908843994140625,-0.239349365234375,1,0.99
2020-05-16 12:05:20.980 -0400,9170.883445416668,1.837631225585938,0.2231292724609375,-0.350067138671875,1,0.99
2020-05-16 12:05:21.050 -0400,9170.953299416668,1.29864501953125,0.4923553466796875,-0.2515106201171875,1,0.99
2020-05-16 12:05:21.120 -0400,9171.023148416667,0.9460296630859375,0.248565673828125,-0.058349609375,1,0.99
2020-05-16 12:05:21.190 -0400,9171.092995416668,0.6013641357421875,0.0537567138671875,0.0501556396484375,1,0.99
2020-05-16 12:05:21.259 -0400,9171.162843416667,0.66033935546875,0.0830078125,0.03216552734375,1,0.99
2020-05-16 12:05:21.329 -0400,9171.232691416668,0.5524749755859375,0.20452880859375,-0.0630950927734375,1,0.99
2020-05-16 12:05:21.399 -0400,9171.302541416668,0.7346649169921875,0.57733154296875,-0.2247314453125,1,0.99
2020-05-16 12:05:21.469 -0400,9171.372390416667,1.130355834960938,0.63677978515625,-0.555023193359375,1,0.99
2020-05-16 12:05:21.539 -0400,9171.442229875001,1.324996948242188,0.688232421875,-0.440704345703125,1,0.99
2020-05-16 12:05:21.609 -0400,9171.512072875001,1.12469482421875,0.63970947265625,-0.4053955078125,1,0.99
2020-05-16 12:05:21.678 -0400,9171.581915875,0.8405914306640625,0.9233245849609375,-0.5622100830078125,1,0.99
2020-05-16 12:05:21.748 -0400,9171.651759875,0.747711181640625,0.7217864990234375,-0.5291290283203125,1,0.99
2020-05-16 12:05:21.818 -0400,9171.721603875001,0.8848114013671875,0.675262451171875,-0.5589141845703125,1,0.99
2020-05-16 12:05:21.888 -0400,9171.791451875,2.634109497070312,1.088729858398438,-0.6446075439453125,1,0.99
2020-05-16 12:05:21.958 -0400,9171.861301875,1.621353149414062,0.121368408203125,-0.2115478515625,1,0.99
2020-05-16 12:05:22.028 -0400,9171.931150875,1.40802001953125,0.76116943359375,-0.1967620849609375,1,0.99
2020-05-16 12:05:22.098 -0400,9172.000999875001,0.909576416015625,0.3273468017578125,0.0569305419921875,1,0.99
2020-05-16 12:05:22.167 -0400,9172.070847875,0.723175048828125,0.259246826171875,0.2234344482421875,1,0.99
2020-05-16 12:05:22.237 -0400,9172.140693875001,0.54449462890625,0.1746826171875,0.1463165283203125,1,0.99
2020-05-16 12:05:22.307 -0400,9172.210540875001,0.53387451171875,0.1849365234375,0.151611328125,1,0.99
2020-05-16 12:05:22.377 -0400,9172.280382875,0.4725799560546875,0.2371368408203125,0.0031585693359375,1,0.99
2020-05-16 12:05:22.447 -0400,9172.350225875001,1.483718872070312,0.4305267333984375,-0.0151824951171875,1,0.99
2020-05-16 12:05:22.517 -0400,9172.420066875,1.434036254882812,0.8260650634765625,-0.6471099853515625,1,0.99
2020-05-16 12:05:22.586 -0400,9172.489912916668,1.383209228515625,1.025497436523438,-0.71405029296875,1,0.99
2020-05-16 12:05:22.656 -0400,9172.559762916668,0.7521820068359375,0.3779296875,-0.422271728515625,1,0.99
2020-05-16 12:05:22.726 -0400,9172.629612916668,0.5473785400390625,0.531280517578125,-0.3744354248046875,1,0.99
2020-05-16 12:05:22.796 -0400,9172.699461916667,0.6571807861328125,0.6207427978515625,-0.475860595703125,1,0.99
2020-05-16 12:05:22.866 -0400,9172.769309916666,0.8941650390625,0.5926971435546875,-0.3714447021484375,1,0.99
2020-05-16 12:05:22.936 -0400,9172.839153916668,1.856719970703125,0.6673126220703125,-0.5497894287109375,1,0.99
2020-05-16 12:05:23.006 -0400,9172.908994916666,1.902664184570312,0.6105499267578125,-0.1127471923828125,1,0.99
2020-05-16 12:05:23.075 -0400,9172.978839916666,1.529861450195312,0.4224395751953125,-0.107574462890625,1,0.99
2020-05-16 12:05:23.145 -0400,9173.048684916666,0.9112091064453125,0.312652587890625,-0.0140380859375,1,0.99
2020-05-16 12:05:23.215 -0400,9173.118528916668,0.6366424560546875,0.2944183349609375,0.08770751953125,1,0.99
2020-05-16 12:05:23.285 -0400,9173.188373916668,0.520111083984375,0.124755859375,0.10784912109375,1,0.99
2020-05-16 12:05:23.355 -0400,9173.258212916668,0.53607177734375,0.1181640625,0.10784912109375,1,0.99
2020-05-16 12:05:23.425 -0400,9173.328053916668,0.5474395751953125,0.3257904052734375,-0.1154632568359375,1,0.99
2020-05-16 12:05:23.495 -0400,9173.397894916667,1.23760986328125,0.944366455078125,-0.2269744873046875,1,0.99
2020-05-16 12:05:23.564 -0400,9173.467742791667,1.870880126953125,0.8079071044921875,-0.6054840087890625,1,0.99
2020-05-16 12:05:23.634 -0400,9173.537583791667,0.9724273681640625,0.721832275390625,-0.3749847412109375,1,0.99
2020-05-16 12:05:23.704 -0400,9173.607426791667,0.6477203369140625,0.2949066162109375,-0.2837371826171875,1,0.99
2020-05-16 12:05:23.774 -0400,9173.677268791667,0.510284423828125,0.46044921875,-0.299224853515625,1,0.99
2020-05-16 12:05:23.844 -0400,9173.747110791668,0.6634063720703125,0.8321685791015625,-0.4371337890625,1,0.99
2020-05-16 12:05:23.914 -0400,9173.816951791667,1.578399658203125,0.8342132568359375,-0.41021728515625,1,0.99
2020-05-16 12:05:23.983 -0400,9173.886794791668,1.483383178710938,0.33734130859375,-0.337799072265625,1,0.99
2020-05-16 12:05:24.053 -0400,9173.956636791667,1.743270874023438,0.4780120849609375,-0.2451171875,1,0.99
2020-05-16 12:05:24.123 -0400,9174.026479791668,1.2108154296875,0.54248046875,-0.3068084716796875,1,0.99
2020-05-16 12:05:24.193 -0400,9174.096325791666,0.8301849365234375,0.1728363037109375,-0.082733154296875,1,0.99
2020-05-16 12:05:24.263 -0400,9174.166169791668,0.5553131103515625,0.1562957763671875,-0.05462646484375,1,0.99
2020-05-16 12:05:24.335 -0400,9174.236016791667,0.369903564453125,0.10601806640625,-0.011016845703125,1,0.99
2020-05-16 12:05:24.403 -0400,9174.305859791668,0.2989044189453125,0.0786285400390625,0.0509033203125,1,0.99
2020-05-16 12:05:24.472 -0400,9174.375702791667,0.2733612060546875,0.186370849609375,-0.0443267822265625,1,0.99
2020-05-16 12:05:24.542 -0400,9174.4455485,2.181747436523438,0.8857269287109375,-0.023956298828125,1,0.99
2020-05-16 12:05:24.612 -0400,9174.5153935,2.12493896484375,0.8125457763671875,-0.8450164794921875,1,0.99
2020-05-16 12:05:24.682 -0400,9174.585242500001,0.9344635009765625,0.5261688232421875,-0.33233642578125,1,0.99
2020-05-16 12:05:24.751 -0400,9174.655091500001,0.6434478759765625,0.3801116943359375,-0.400421142578125,1,0.99
2020-05-16 12:05:24.822 -0400,9174.724932500001,0.4033050537109375,0.62518310546875,-0.35845947265625,1,0.99
2020-05-16 12:05:24.891 -0400,9174.7947785,0.5787506103515625,0.7747344970703125,-0.48052978515625,1,0.99
2020-05-16 12:05:24.961 -0400,9174.864626500001,1.018585205078125,0.7035064697265625,-0.43408203125,1,0.99
2020-05-16 12:05:25.031 -0400,9174.9344745,1.817108154296875,0.7986297607421875,-0.75616455078125,1,0.99
2020-05-16 12:05:25.101 -0400,9175.0043195,1.892959594726562,0.5293121337890625,-0.3314361572265625,1,0.99
2020-05-16 12:05:25.171 -0400,9175.0741645,1.871627807617188,0.322845458984375,-0.2498321533203125,1,0.99
2020-05-16 12:05:25.241 -0400,9175.1440115,1.12469482421875,0.2752685546875,-0.18243408203125,1,0.99
2020-05-16 12:05:25.310 -0400,9175.213857500001,0.836639404296875,0.208526611328125,-0.0041961669921875,1,0.99
2020-05-16 12:05:25.380 -0400,9175.2837015,0.29339599609375,0.0242462158203125,0.0386199951171875,1,0.99
2020-05-16 12:05:25.450 -0400,9175.353541500001,0.1058807373046875,0.0466156005859375,0.020965576171875,1,0.99
2020-05-16 12:05:25.520 -0400,9175.423382500001,0.23773193359375,0.153167724609375,-0.042510986328125,1,0.99
2020-05-16 12:05:25.590 -0400,9175.493221750001,1.152236938476562,0.972259521484375,-0.1415863037109375,1,0.99
2020-05-16 12:05:25.660 -0400,9175.563062750001,1.880538940429688,0.7126007080078125,-0.729339599609375,1,0.99
2020-05-16 12:05:25.730 -0400,9175.632907750001,1.356216430664062,0.857696533203125,-0.393218994140625,1,0.99
2020-05-16 12:05:25.799 -0400,9175.702750750001,0.719207763671875,0.51025390625,-0.4720306396484375,1,0.99
2020-05-16 12:05:25.869 -0400,9175.772597750001,0.5560455322265625,0.4342193603515625,-0.3869476318359375,1,0.99
2020-05-16 12:05:25.939 -0400,9175.84243975,0.5055999755859375,0.7317352294921875,-0.4427490234375,1,0.99
2020-05-16 12:05:26.009 -0400,9175.912281750001,1.044296264648438,0.9561767578125,-0.4311981201171875,1,0.99
2020-05-16 12:05:26.079 -0400,9175.98212275,1.791885375976562,0.92120361328125,-0.6106719970703125,1,0.99
2020-05-16 12:05:26.148 -0400,9176.05196775,1.706619262695312,0.1954803466796875,-0.297119140625,1,0.99
2020-05-16 12:05:26.218 -0400,9176.12180975,1.477859497070312,0.47003173828125,-0.2091522216796875,1,0.99
2020-05-16 12:05:26.288 -0400,9176.19164875,0.8688201904296875,0.346954345703125,-0.0893707275390625,1,0.99
2020-05-16 12:05:26.358 -0400,9176.261489750001,0.68963623046875,0.3037109375,-0.0077362060546875,1,0.99
2020-05-16 12:05:26.428 -0400,9176.33132875,0.607330322265625,0.1289825439453125,0.0630340576171875,1,0.99
2020-05-16 12:05:26.498 -0400,9176.40117175,0.474700927734375,0.1143798828125,0.0608367919921875,1,0.99
2020-05-16 12:05:26.568 -0400,9176.471009875,0.5546875,0.2325897216796875,-0.0860137939453125,1,0.99
2020-05-16 12:05:26.637 -0400,9176.540850875001,0.943359375,0.7194366455078125,-0.4324951171875,1,0.99
2020-05-16 12:05:26.707 -0400,9176.610692875001,1.497604370117188,0.77728271484375,-0.4683990478515625,1,0.99
2020-05-16 12:05:26.777 -0400,9176.680531875001,1.476531982421875,0.7646942138671875,-0.4825439453125,1,0.99
2020-05-16 12:05:26.847 -0400,9176.750374875,0.8350677490234375,0.6540069580078125,-0.364837646484375,1,0.99
2020-05-16 12:05:26.917 -0400,9176.820216875001,0.644439697265625,0.5988616943359375,-0.3139190673828125,1,0.99
2020-05-16 12:05:26.987 -0400,9176.890057875,0.5847625732421875,0.75262451171875,-0.260498046875,1,0.99
2020-05-16 12:05:27.056 -0400,9176.959896875,0.787750244140625,0.886505126953125,-0.3012237548828125,1,0.99
2020-05-16 12:05:27.130 -0400,9177.029736875,1.744064331054688,1.245574951171875,-0.4929046630859375,1,0.99
2020-05-16 12:05:27.196 -0400,9177.099572875,1.511474609375,0.521026611328125,-0.2665863037109375,1,0.99
2020-05-16 12:05:27.266 -0400,9177.169413875001,1.74407958984375,0.57135009765625,-0.270172119140625,1,0.99
2020-05-16 12:05:27.336 -0400,9177.239255875,1.2252197265625,0.2926788330078125,-0.1726531982421875,1,0.99
2020-05-16 12:05:27.406 -0400,9177.309095875,0.7452545166015625,0.220672607421875,-0.013946533203125,1,0.99
2020-05-16 12:05:27.475 -0400,9177.378930875,0.5707550048828125,0.1653900146484375,0.03997802734375,1,0.99
2020-05-16 12:05:27.545 -0400,9177.448770416668,0.6440582275390625,0.136260986328125,0.092803955078125,1,0.99
2020-05-16 12:05:27.615 -0400,9177.518611416666,0.85150146484375,0.1756744384765625,0.122467041015625,1,0.99
2020-05-16 12:05:27.685 -0400,9177.588453416667,1.05804443359375,0.4203338623046875,-0.053375244140625,1,0.99
2020-05-16 12:05:27.755 -0400,9177.658295416668,1.536102294921875,0.6627960205078125,-0.74658203125,1,0.99
2020-05-16 12:05:27.825 -0400,9177.728140416668,1.823165893554688,0.5956878662109375,-0.3460693359375,1,0.99
2020-05-16 12:05:27.894 -0400,9177.797982416667,1.009109497070312,0.96319580078125,-0.646209716796875,1,0.99
2020-05-16 12:05:27.964 -0400,9177.867823416667,0.7558746337890625,0.1725311279296875,-0.6011810302734375,1,0.99
2020-05-16 12:05:28.034 -0400,9177.937667416667,0.5028533935546875,0.837677001953125,-0.607574462890625,1,0.99
2020-05-16 12:05:28.104 -0400,9178.007511416667,0.930572509765625,0.956817626953125,-0.508087158203125,1,0.99
2020-05-16 12:05:28.174 -0400,9178.077354416668,2.102752685546875,0.4034271240234375,-0.5229339599609375,1,0.99
2020-05-16 12:05:28.244 -0400,9178.147196416667,1.87567138671875,0.1170196533203125,-0.120635986328125,1,0.99
2020-05-16 12:05:28.314 -0400,9178.217036416667,1.915634155273438,0.6929168701171875,-0.0134735107421875,1,0.99
2020-05-16 12:05:28.383 -0400,9178.286877416667,1.2208251953125,0.340606689453125,0.104949951171875,1,0.99
2020-05-16 12:05:28.453 -0400,9178.356715416667,0.7407684326171875,0.141845703125,0.1441802978515625,1,0.99
2020-05-16 12:05:28.523 -0400,9178.426553416668,0.445892333984375,0.0142364501953125,0.1290283203125,1,0.99
2020-05-16 12:05:28.593 -0400,9178.496391250001,0.3174285888671875,0.022247314453125,0.0412750244140625,1,0.99
2020-05-16 12:05:28.663 -0400,9178.56623025,0.4001007080078125,0.0619354248046875,0.0203857421875,1,0.99
2020-05-16 12:05:28.733 -0400,9178.63606825,0.758056640625,0.27325439453125,-0.2655029296875,1,0.99
2020-05-16 12:05:28.802 -0400,9178.70590725,2.40704345703125,0.7521820068359375,-0.3194732666015625,1,0.99
2020-05-16 12:05:28.872 -0400,9178.775744250001,2.139495849609375,0.8776702880859375,-0.90673828125,1,0.99
2020-05-16 12:05:28.942 -0400,9178.84558125,1.074356079101562,0.0554046630859375,-0.258026123046875,1,0.99
2020-05-16 12:05:29.012 -0400,9178.915419250001,0.78338623046875,0.43896484375,-0.36993408203125,1,0.99
2020-05-16 12:05:29.082 -0400,9178.98525625,0.533477783203125,0.9615936279296875,-0.4768829345703125,1,0.99
2020-05-16 12:05:29.152 -0400,9179.05509525,0.6539306640625,0.626678466796875,-0.4146881103515625,1,0.99
2020-05-16 12:05:29.221 -0400,9179.12493625,0.81097412109375,0.3349151611328125,-0.3232574462890625,1,0.99
2020-05-16 12:05:29.291 -0400,9179.19477625,1.163681030273438,0.326446533203125,-0.225341796875,1,0.99
2020-05-16 12:05:29.361 -0400,9179.26461625,2.135787963867188,0.5047454833984375,-0.2722930908203125,1,0.99
2020-05-16 12:05:29.431 -0400,9179.33445925,1.869476318359375,0.4448394775390625,0.1707611083984375,1,0.99
2020-05-16 12:05:29.501 -0400,9179.40429925,1.258895874023438,0.4140167236328125,-0.08740234375,1,0.99
2020-05-16 12:05:29.571 -0400,9179.47413975,0.689544677734375,0.4014739990234375,0.061859130859375,1,0.99
2020-05-16 12:05:29.640 -0400,9179.543982750001,0.5115203857421875,0.23046875,0.0921173095703125,1,0.99
2020-05-16 12:05:29.710 -0400,9179.613825750001,0.4743194580078125,0.0920257568359375,0.052825927734375,1,0.99
2020-05-16 12:05:29.780 -0400,9179.683670750001,0.4278106689453125,0.0960693359375,-0.03973388671875,1,0.99
2020-05-16 12:05:29.850 -0400,9179.75351475,0.49822998046875,0.193634033203125,-0.11669921875,1,0.99
2020-05-16 12:05:29.920 -0400,9179.823361750001,1.06817626953125,0.3608245849609375,-0.2955780029296875,1,0.99
2020-05-16 12:05:29.990 -0400,9179.893206750001,1.981231689453125,0.7816314697265625,-0.7228851318359375,1,0.99
2020-05-16 12:05:30.060 -0400,9179.963052750001,1.379898071289062,0.80023193359375,-0.7516937255859375,1,0.99
2020-05-16 12:05:30.129 -0400,9180.03289875,0.87982177734375,0.1850433349609375,-0.3770904541015625,1,0.99
2020-05-16 12:05:30.199 -0400,9180.102746750001,0.5301055908203125,0.5134429931640625,-0.3172454833984375,1,0.99
2020-05-16 12:05:30.276 -0400,9180.17259075,0.3084869384765625,0.8056793212890625,-0.2762603759765625,1,0.99
2020-05-16 12:05:30.339 -0400,9180.242431750001,0.6473388671875,0.7648468017578125,-0.33294677734375,1,0.99
2020-05-16 12:05:30.409 -0400,9180.31227475,1.7017822265625,0.6747589111328125,-0.21014404296875,1,0.99
2020-05-16 12:05:30.479 -0400,9180.38211875,1.643524169921875,0.3877716064453125,-0.12432861328125,1,0.99
2020-05-16 12:05:30.548 -0400,9180.451964041667,1.56256103515625,0.5702667236328125,-0.2189788818359375,1,0.99
2020-05-16 12:05:30.618 -0400,9180.521812041667,1.034393310546875,0.358642578125,-0.031036376953125,1,0.99
2020-05-16 12:05:30.688 -0400,9180.591662041666,0.6697235107421875,0.23406982421875,-0.0006256103515625,1,0.99
2020-05-16 12:05:30.758 -0400,9180.661507041666,0.594085693359375,0.19781494140625,0.054107666015625,1,0.99
2020-05-16 12:05:30.828 -0400,9180.731350041668,0.545257568359375,0.2248687744140625,0.059844970703125,1,0.99
2020-05-16 12:05:30.898 -0400,9180.801194041667,0.5506591796875,0.2649688720703125,0.05767822265625,1,0.99
2020-05-16 12:05:30.968 -0400,9180.871040041668,0.6191558837890625,0.3347320556640625,-0.0426483154296875,1,0.99
2020-05-16 12:05:31.037 -0400,9180.940884041667,1.01910400390625,0.462432861328125,-0.3773193359375,1,0.99
2020-05-16 12:05:31.107 -0400,9181.010725041668,2.173110961914062,0.580291748046875,-0.249603271484375,1,0.99
2020-05-16 12:05:31.177 -0400,9181.080567041667,1.395004272460938,0.8438873291015625,-0.871246337890625,1,0.99
2020-05-16 12:05:31.247 -0400,9181.150410041668,0.846893310546875,0.3499298095703125,-0.4422454833984375,1,0.99
2020-05-16 12:05:31.317 -0400,9181.220250041668,0.4481353759765625,0.4444122314453125,-0.3173370361328125,1,0.99
2020-05-16 12:05:31.387 -0400,9181.290098041667,0.414947509765625,0.519775390625,-0.3661956787109375,1,0.99
2020-05-16 12:05:31.456 -0400,9181.359944041667,0.7890777587890625,0.5184173583984375,-0.3560333251953125,1,0.99
2020-05-16 12:05:31.526 -0400,9181.429788041667,0.8359527587890625,0.41595458984375,-0.294677734375,1,0.99
2020-05-16 12:05:31.596 -0400,9181.499629625001,1.996231079101562,0.7078704833984375,-0.407470703125,1,0.99
2020-05-16 12:05:31.666 -0400,9181.569475625001,1.305343627929688,0.3507843017578125,-0.097137451171875,1,0.99
2020-05-16 12:05:31.736 -0400,9181.639317625,1.388916015625,0.474945068359375,-0.22821044921875,1,0.99
2020-05-16 12:05:31.806 -0400,9181.709160625001,1.045333862304688,0.3749847412109375,-0.08038330078125,1,0.99
2020-05-16 12:05:31.876 -0400,9181.779004625001,0.65631103515625,0.2409515380859375,-0.0392608642578125,1,0.99
2020-05-16 12:05:31.946 -0400,9181.848849625001,0.476531982421875,0.2227783203125,-0.0251617431640625,1,0.99
2020-05-16 12:05:32.015 -0400,9181.918693625001,0.560028076171875,0.1915130615234375,-0.01971435546875,1,0.99
2020-05-16 12:05:32.085 -0400,9181.988540625001,0.6845245361328125,0.2386474609375,-0.035552978515625,1,0.99
2020-05-16 12:05:32.155 -0400,9182.058385625001,1.171707153320312,0.4044952392578125,-0.195068359375,1,0.99
2020-05-16 12:05:32.225 -0400,9182.128235625001,1.326904296875,0.519744873046875,-0.432861328125,1,0.99
2020-05-16 12:05:32.295 -0400,9182.198086625001,1.676498413085938,0.4005584716796875,-0.5041351318359375,1,0.99
2020-05-16 12:05:32.364 -0400,9182.267937625,0.8602752685546875,0.263275146484375,-0.4320068359375,1,0.99
2020-05-16 12:05:32.435 -0400,9182.337786625001,0.48345947265625,0.38134765625,-0.384521484375,1,0.99
2020-05-16 12:05:32.504 -0400,9182.407635625001,0.4487457275390625,0.4199371337890625,-0.3105316162109375,1,0.99
2020-05-16 12:05:32.574 -0400,9182.477489291667,0.631683349609375,0.4957122802734375,-0.365142822265625,1,0.99
2020-05-16 12:05:32.644 -0400,9182.547339291667,0.7380523681640625,0.48541259765625,-0.3909149169921875,1,0.99
2020-05-16 12:05:32.714 -0400,9182.617190291667,1.966583251953125,0.621795654296875,-0.5017242431640625,1,0.99
2020-05-16 12:05:32.784 -0400,9182.687042291667,1.5631103515625,0.3737335205078125,-0.268646240234375,1,0.99
2020-05-16 12:05:32.853 -0400,9182.756895291668,1.5208740234375,0.4916839599609375,-0.2905426025390625,1,0.99
2020-05-16 12:05:32.923 -0400,9182.826744291668,0.97174072265625,0.355224609375,-0.192535400390625,1,0.99
2020-05-16 12:05:32.993 -0400,9182.896595291668,0.6821136474609375,0.229156494140625,-0.0706634521484375,1,0.99
2020-05-16 12:05:33.063 -0400,9182.966444291667,0.51806640625,0.1744537353515625,-0.0288543701171875,1,0.99
2020-05-16 12:05:33.133 -0400,9183.036295291668,0.49005126953125,0.18096923828125,-0.0072174072265625,1,0.99
2020-05-16 12:05:33.203 -0400,9183.106146291668,0.6494598388671875,0.2515106201171875,0.0109405517578125,1,0.99
2020-05-16 12:05:33.276 -0400,9183.175996291668,1.353622436523438,0.411651611328125,0.038360595703125,1,0.99
2020-05-16 12:05:33.342 -0400,9183.245850291667,1.195831298828125,0.7296905517578125,-0.6169586181640625,1,0.99
2020-05-16 12:05:33.412 -0400,9183.315702291668,1.583831787109375,0.4500274658203125,-0.3542022705078125,1,0.99
2020-05-16 12:05:33.482 -0400,9183.385553291668,0.843505859375,0.1844940185546875,-0.4459686279296875,1,0.99
2020-05-16 12:05:33.552 -0400,9183.455404,0.582061767578125,0.4755706787109375,-0.4340972900390625,1,0.99
2020-05-16 12:05:33.622 -0400,9183.525255,0.5445098876953125,0.5330352783203125,-0.421356201171875,1,0.99
2020-05-16 12:05:33.692 -0400,9183.595106000001,0.507598876953125,0.4447479248046875,-0.366455078125,1,0.99
2020-05-16 12:05:33.761 -0400,9183.664954,0.848052978515625,0.5125732421875,-0.374053955078125,1,0.99
2020-05-16 12:05:33.831 -0400,9183.734796000001,1.817092895507812,0.508331298828125,-0.418365478515625,1,0.99
2020-05-16 12:05:33.901 -0400,9183.804642000001,1.462539672851562,0.3961029052734375,-0.32196044921875,1,0.99
2020-05-16 12:05:33.971 -0400,9183.874486000001,1.407669067382812,0.4520263671875,-0.263153076171875,1,0.99
2020-05-16 12:05:34.041 -0400,9183.944331000001,0.8586883544921875,0.333984375,-0.225830078125,1,0.99
2020-05-16 12:05:34.111 -0400,9184.014177000001,0.65594482421875,0.25531005859375,-0.1583709716796875,1,0.99
2020-05-16 12:05:34.181 -0400,9184.084026,0.5191497802734375,0.185821533203125,-0.074493408203125,1,0.99
2020-05-16 12:05:34.251 -0400,9184.153875,0.4744720458984375,0.2235870361328125,-0.05303955078125,1,0.99
2020-05-16 12:05:34.320 -0400,9184.223722000001,0.6056671142578125,0.3029022216796875,-0.0209503173828125,1,0.99
2020-05-16 12:05:34.390 -0400,9184.293564000001,0.9486846923828125,0.4412078857421875,-0.0537872314453125,1,0.99
2020-05-16 12:05:34.460 -0400,9184.363405,1.772125244140625,0.775909423828125,-0.1683349609375,1,0.99
2020-05-16 12:05:34.530 -0400,9184.433246000001,1.19091796875,0.70257568359375,-0.676025390625,1,0.99
2020-05-16 12:05:34.600 -0400,9184.503089541668,1.05682373046875,0.1949310302734375,-0.2216644287109375,1,0.99
2020-05-16 12:05:34.669 -0400,9184.572933541667,0.681427001953125,0.407684326171875,-0.2550506591796875,1,0.99
2020-05-16 12:05:34.740 -0400,9184.642776541667,0.4982452392578125,0.653900146484375,-0.3920440673828125,1,0.99
2020-05-16 12:05:34.809 -0400,9184.712618541667,0.586029052734375,0.40673828125,-0.37158203125,1,0.99
2020-05-16 12:05:34.879 -0400,9184.782462541667,0.703277587890625,0.5588531494140625,-0.332855224609375,1,0.99
2020-05-16 12:05:34.949 -0400,9184.852306541667,0.8875732421875,0.7612457275390625,-0.3623199462890625,1,0.99
2020-05-16 12:05:35.019 -0400,9184.922150541668,1.199783325195312,0.56927490234375,-0.237762451171875,1,0.99
2020-05-16 12:05:35.089 -0400,9184.991991541667,1.628890991210938,0.722930908203125,-0.2020416259765625,1,0.99
2020-05-16 12:05:35.158 -0400,9185.061833541668,1.3826904296875,0.4713134765625,-0.144256591796875,1,0.99
2020-05-16 12:05:35.228 -0400,9185.131677541667,0.9864959716796875,0.37493896484375,-0.13885498046875,1,0.99
2020-05-16 12:05:35.298 -0400,9185.201519541668,0.5996246337890625,0.317626953125,-0.1082000732421875,1,0.99
2020-05-16 12:05:35.368 -0400,9185.271361541667,0.5464630126953125,0.31060791015625,-0.121856689453125,1,0.99
2020-05-16 12:05:35.438 -0400,9185.341207541667,0.5272216796875,0.216339111328125,-0.18499755859375,1,0.99
2020-05-16 12:05:35.508 -0400,9185.411047541667,0.59112548828125,0.3524322509765625,-0.465911865234375,1,0.99
2020-05-16 12:05:35.577 -0400,9185.480890375,0.8568572998046875,0.32110595703125,-0.1928863525390625,1,0.99
2020-05-16 12:05:35.647 -0400,9185.550737375001,1.499191284179688,0.9651031494140625,-0.4398040771484375,1,0.99
2020-05-16 12:05:35.717 -0400,9185.620584375001,1.08734130859375,0.7138671875,-0.5032806396484375,1,0.99
2020-05-16 12:05:35.787 -0400,9185.690425375,0.4005126953125,0.7235565185546875,-0.3427276611328125,1,0.99
2020-05-16 12:05:35.857 -0400,9185.760265375,0.3643646240234375,0.905242919921875,-0.021881103515625,1,0.99
2020-05-16 12:05:35.927 -0400,9185.830107375001,0.512664794921875,0.6880035400390625,-0.1767730712890625,1,0.99
2020-05-16 12:05:35.997 -0400,9185.899952375001,0.7967071533203125,0.6401214599609375,-0.2735748291015625,1,0.99
2020-05-16 12:05:36.066 -0400,9185.969794375,0.716064453125,0.54754638671875,-0.0879669189453125,1,0.99
2020-05-16 12:05:36.136 -0400,9186.039639375,0.6307525634765625,0.565032958984375,0.061126708984375,1,0.99
2020-05-16 12:05:36.206 -0400,9186.109482375001,0.8971710205078125,0.8238677978515625,0.0063323974609375,1,0.99
2020-05-16 12:05:36.276 -0400,9186.179321375001,1.457550048828125,0.933868408203125,-0.066131591796875,1,0.99
2020-05-16 12:05:36.346 -0400,9186.249162375001,1.024978637695312,0.376220703125,-0.4166412353515625,1,0.99
2020-05-16 12:05:36.416 -0400,9186.319004375,0.499664306640625,0.4220428466796875,-0.550506591796875,1,0.99
2020-05-16 12:05:36.485 -0400,9186.388845375001,0.7279052734375,0.30767822265625,-0.220489501953125,1,0.99
2020-05-16 12:05:36.555 -0400,9186.45868575,0.7543182373046875,0.3022918701171875,-0.35302734375,1,0.99
2020-05-16 12:05:36.625 -0400,9186.528532750001,0.7590484619140625,0.3605194091796875,-0.2484893798828125,1,0.99
2020-05-16 12:05:36.695 -0400,9186.598378750001,0.7745361328125,0.4029541015625,-0.1195526123046875,1,0.99
2020-05-16 12:05:36.765 -0400,9186.668224750001,1.773040771484375,0.6982421875,-0.0042572021484375,1,0.99
2020-05-16 12:05:36.835 -0400,9186.73806775,0.6802520751953125,0.4920654296875,-0.6898651123046875,1,0.99
2020-05-16 12:05:36.904 -0400,9186.80791075,0.7052459716796875,0.4608001708984375,-0.15301513671875,1,0.99
2020-05-16 12:05:36.974 -0400,9186.877752750001,0.727783203125,0.76031494140625,-0.0385589599609375,1,0.99
2020-05-16 12:05:37.044 -0400,9186.94759575,0.596893310546875,0.6763916015625,-0.2852020263671875,1,0.99
2020-05-16 12:05:37.114 -0400,9187.01744175,0.6792144775390625,0.6070098876953125,-0.2012481689453125,1,0.99
2020-05-16 12:05:37.184 -0400,9187.08728675,0.8321990966796875,0.7870025634765625,-0.163726806640625,1,0.99
2020-05-16 12:05:37.254 -0400,9187.15713075,0.726043701171875,0.6242523193359375,-0.195281982421875,1,0.99
2020-05-16 12:05:37.326 -0400,9187.226977750001,1.1246337890625,0.6771697998046875,-0.144927978515625,1,0.99
2020-05-16 12:05:37.393 -0400,9187.29681675,1.317108154296875,0.6214752197265625,-0.193115234375,1,0.99
2020-05-16 12:05:37.463 -0400,9187.36665575,0.9837799072265625,0.311065673828125,-0.22222900390625,1,0.99
2020-05-16 12:05:37.533 -0400,9187.43649575,0.676116943359375,0.3345184326171875,-0.32763671875,1,0.99
2020-05-16 12:05:37.603 -0400,9187.506338750001,0.662384033203125,0.330810546875,-0.1319732666015625,1,0.99
2020-05-16 12:05:37.673 -0400,9187.57618075,0.674102783203125,0.3105010986328125,-0.2888336181640625,1,0.99
2020-05-16 12:05:37.743 -0400,9187.64602475,0.674346923828125,0.3355560302734375,-0.235870361328125,1,0.99
2020-05-16 12:05:37.812 -0400,9187.71587075,0.5222015380859375,0.3147430419921875,-0.2269744873046875,1,0.99
2020-05-16 12:05:37.882 -0400,9187.785718750001,2.041229248046875,0.627777099609375,-0.0391998291015625,1,0.99
2020-05-16 12:05:37.952 -0400,9187.85556475,0.845855712890625,0.5652618408203125,-0.6517333984375,1,0.99
2020-05-16 12:05:38.022 -0400,9187.925413750001,0.6252593994140625,0.526214599609375,0.078216552734375,1,0.99
2020-05-16 12:05:38.092 -0400,9187.99526075,0.4489593505859375,0.8061065673828125,-0.222381591796875,1,0.99
2020-05-16 12:05:38.162 -0400,9188.065109750001,0.656951904296875,0.66998291015625,-0.3338623046875,1,0.99
2020-05-16 12:05:38.232 -0400,9188.13495775,0.7625579833984375,0.541595458984375,-0.3093109130859375,1,0.99
2020-05-16 12:05:38.301 -0400,9188.204804750001,0.6395263671875,0.4445343017578125,-0.3306121826171875,1,0.99
2020-05-16 12:05:38.371 -0400,9188.27465275,0.730499267578125,0.5035552978515625,-0.1716156005859375,1,0.99
2020-05-16 12:05:38.441 -0400,9188.344498750001,1.2708740234375,0.697601318359375,-0.0315704345703125,1,0.99
2020-05-16 12:05:38.511 -0400,9188.414338750001,0.9101104736328125,0.5592041015625,-0.0243072509765625,1,0.99
2020-05-16 12:05:38.581 -0400,9188.48418225,1.083755493164062,0.5373992919921875,-0.0295562744140625,1,0.99
2020-05-16 12:05:38.651 -0400,9188.55402725,0.8433837890625,0.390960693359375,-0.1513214111328125,1,0.99
2020-05-16 12:05:38.721 -0400,9188.62387225,0.7209014892578125,0.364593505859375,-0.120269775390625,1,0.99
2020-05-16 12:05:38.790 -0400,9188.69371725,0.7677764892578125,0.3580322265625,-0.1861114501953125,1,0.99
2020-05-16 12:05:38.860 -0400,9188.763564250001,0.70294189453125,0.41656494140625,-0.21002197265625,1,0.99
2020-05-16 12:05:38.930 -0400,9188.833414250001,0.7807464599609375,0.5318603515625,-0.2781829833984375,1,0.99
2020-05-16 12:05:39.000 -0400,9188.903265250001,1.157394409179688,0.55047607421875,-0.0560455322265625,1,0.99
2020-05-16 12:05:39.069 -0400,9188.973111250001,1.030288696289062,0.6115264892578125,-0.341827392578125,1,0.99
2020-05-16 12:05:39.139 -0400,9189.042960250001,0.705291748046875,0.284576416015625,-0.4272003173828125,1,0.99
2020-05-16 12:05:39.209 -0400,9189.112807250001,0.6691131591796875,0.4585418701171875,-0.15167236328125,1,0.99
2020-05-16 12:05:39.279 -0400,9189.18265825,0.6515045166015625,0.3696746826171875,-0.2719268798828125,1,0.99
2020-05-16 12:05:39.349 -0400,9189.252507250001,0.840362548828125,0.42547607421875,-0.3332672119140625,1,0.99
2020-05-16 12:05:39.419 -0400,9189.32235325,0.7309417724609375,0.3621978759765625,-0.2601470947265625,1,0.99
2020-05-16 12:05:39.489 -0400,9189.39219925,0.6073455810546875,0.28192138671875,-0.1999053955078125,1,0.99
2020-05-16 12:05:39.559 -0400,9189.462047166668,0.715728759765625,0.4451751708984375,-0.1746826171875,1,0.99
2020-05-16 12:05:39.628 -0400,9189.531892166668,0.7537841796875,0.5317535400390625,-0.193603515625,1,0.99
2020-05-16 12:05:39.698 -0400,9189.601736166667,1.401748657226562,0.79510498046875,-0.3701171875,1,0.99
2020-05-16 12:05:39.768 -0400,9189.671583166668,1.2259521484375,0.765167236328125,-0.2251739501953125,1,0.99
2020-05-16 12:05:39.838 -0400,9189.741432166667,1.18841552734375,0.2777557373046875,-0.23626708984375,1,0.99
2020-05-16 12:05:39.908 -0400,9189.811277166667,0.833282470703125,0.34381103515625,-0.1765289306640625,1,0.99
2020-05-16 12:05:39.978 -0400,9189.881126166667,0.663909912109375,0.418182373046875,-0.1276397705078125,1,0.99
2020-05-16 12:05:40.047 -0400,9189.950974166668,0.5753021240234375,0.3097076416015625,-0.11737060546875,1,0.99
2020-05-16 12:05:40.117 -0400,9190.020823166667,0.7155914306640625,0.2545318603515625,-0.0853729248046875,1,0.99
2020-05-16 12:05:40.187 -0400,9190.090668166667,1.8944091796875,0.2325286865234375,0.23541259765625,1,0.99
2020-05-16 12:05:40.266 -0400,9190.160509166668,1.185684204101562,0.883331298828125,-0.40179443359375,1,0.99
2020-05-16 12:05:40.327 -0400,9190.230354166668,1.108795166015625,0.5023040771484375,-0.3105316162109375,1,0.99
2020-05-16 12:05:40.397 -0400,9190.300199166668,0.80682373046875,0.324432373046875,-0.13409423828125,1,0.99
2020-05-16 12:05:40.467 -0400,9190.370048166667,0.64154052734375,0.45123291015625,-0.2742767333984375,1,0.99
2020-05-16 12:05:40.536 -0400,9190.439897166667,0.54278564453125,0.9496612548828125,-0.2690582275390625,1,0.99
2020-05-16 12:05:40.606 -0400,9190.509744625,0.6127166748046875,0.841339111328125,-0.2398223876953125,1,0.99
2020-05-16 12:05:40.676 -0400,9190.579591625001,1.148178100585938,0.8453521728515625,-0.057281494140625,1,0.99
2020-05-16 12:05:40.746 -0400,9190.649434625,1.55035400390625,0.7835540771484375,-0.246856689453125,1,0.99
2020-05-16 12:05:40.816 -0400,9190.719283625,1.3209228515625,0.422027587890625,-0.0643157958984375,1,0.99
2020-05-16 12:05:40.886 -0400,9190.789129625,1.271560668945312,0.42156982421875,-0.1856689453125,1,0.99
2020-05-16 12:05:40.956 -0400,9190.858972625001,0.8343353271484375,0.29296875,-0.1206817626953125,1,0.99
2020-05-16 12:05:41.025 -0400,9190.928814625,0.5262298583984375,0.23284912109375,-0.1124267578125,1,0.99
2020-05-16 12:05:41.095 -0400,9190.998656625001,0.4449615478515625,0.2568359375,-0.0822601318359375,1,0.99
2020-05-16 12:05:41.165 -0400,9191.068498625,0.716888427734375,0.43463134765625,-0.1192626953125,1,0.99
2020-05-16 12:05:41.235 -0400,9191.138338625,0.902557373046875,0.4354095458984375,-0.123626708984375,1,0.99
2020-05-16 12:05:41.305 -0400,9191.208177625,0.9593963623046875,0.4455718994140625,-0.13525390625,1,0.99
2020-05-16 12:05:41.375 -0400,9191.278023625,1.128402709960938,0.41998291015625,0.0514984130859375,1,0.99
2020-05-16 12:05:41.444 -0400,9191.347871625001,1.43487548828125,0.7855072021484375,0.31756591796875,1,0.99
2020-05-16 12:05:41.514 -0400,9191.417720625001,0.9199371337890625,0.666473388671875,-0.3218994140625,1,0.99
2020-05-16 12:05:41.584 -0400,9191.487566125001,0.9532928466796875,0.597442626953125,-0.0455322265625,1,0.99
2020-05-16 12:05:41.654 -0400,9191.557406125001,0.668121337890625,0.276580810546875,-0.1184844970703125,1,0.99
2020-05-16 12:05:41.724 -0400,9191.627246125001,0.6662139892578125,0.2845001220703125,-0.1424560546875,1,0.99
2020-05-16 12:05:41.794 -0400,9191.697087125001,0.9976806640625,0.294708251953125,-0.478515625,1,0.99
2020-05-16 12:05:41.863 -0400,9191.766926125001,0.852874755859375,0.2178497314453125,-0.5614166259765625,1,0.99
2020-05-16 12:05:41.933 -0400,9191.836769125001,0.919952392578125,0.3852691650390625,-0.40087890625,1,0.99
2020-05-16 12:05:42.003 -0400,9191.906614125,1.063201904296875,0.422088623046875,-0.1745758056640625,1,0.99
2020-05-16 12:05:42.073 -0400,9191.976457125,1.063812255859375,0.4814605712890625,-0.199981689453125,1,0.99
2020-05-16 12:05:42.143 -0400,9192.046303125,1.05621337890625,0.50396728515625,-0.16204833984375,1,0.99
2020-05-16 12:05:42.213 -0400,9192.116149125,0.8585662841796875,0.3664398193359375,-0.12432861328125,1,0.99
2020-05-16 12:05:42.283 -0400,9192.185993125,0.754425048828125,0.337158203125,0.005035400390625,1,0.99
2020-05-16 12:05:42.352 -0400,9192.255840125001,0.6146240234375,0.41204833984375,-0.0580596923828125,1,0.99
2020-05-16 12:05:42.422 -0400,9192.325685125001,0.4217987060546875,0.324005126953125,-0.0050811767578125,1,0.99
2020-05-16 12:05:42.492 -0400,9192.395529125,0.4070587158203125,0.3726806640625,-0.02740478515625,1,0.99
2020-05-16 12:05:42.562 -0400,9192.465369375001,1.437210083007812,1.240936279296875,-0.077880859375,1,0.99
2020-05-16 12:05:42.632 -0400,9192.535209375001,2.362747192382812,1.077102661132812,-0.516845703125,1,0.99
2020-05-16 12:05:42.702 -0400,9192.605049375001,0.6169891357421875,0.74615478515625,-0.2190704345703125,1,0.99
2020-05-16 12:05:42.772 -0400,9192.674890375001,-0.8864898681640625,-0.2464599609375,-0.2029571533203125,1,0.99
2020-05-16 12:05:42.841 -0400,9192.744734375001,-0.01629638671875,-0.4129486083984375,0.0129852294921875,1,0.99
2020-05-16 12:05:42.911 -0400,9192.814575375001,3.29705810546875,0.593841552734375,0.8725738525390625,1,0.99
2020-05-16 12:05:42.981 -0400,9192.884412375,1.799575805664062,-0.0341644287109375,0.1808929443359375,1,0.99
2020-05-16 12:05:43.051 -0400,9192.954252375001,1.29327392578125,0.312652587890625,0.1041259765625,1,0.99
2020-05-16 12:05:43.121 -0400,9193.024094375001,0.651336669921875,0.29766845703125,0.1576995849609375,1,0.99
2020-05-16 12:05:43.190 -0400,9193.093934375,0.2831573486328125,0.2963409423828125,0.027496337890625,1,0.99
2020-05-16 12:05:43.260 -0400,9193.163780375,0.268524169921875,0.2507781982421875,0.060333251953125,1,0.99
2020-05-16 12:05:43.330 -0400,9193.233623375001,0.51025390625,0.3295440673828125,0.0386810302734375,1,0.99
2020-05-16 12:05:43.400 -0400,9193.303468375001,1.05517578125,0.6029205322265625,-0.0713043212890625,1,0.99
2020-05-16 12:05:43.470 -0400,9193.373313375001,1.080413818359375,0.7286376953125,-0.20123291015625,1,0.99
2020-05-16 12:05:43.540 -0400,9193.443154375,0.82037353515625,0.1745452880859375,-0.1350860595703125,1,0.99
2020-05-16 12:05:43.610 -0400,9193.512996166668,0.966827392578125,0.228302001953125,-0.17669677734375,1,0.99
2020-05-16 12:05:43.679 -0400,9193.582838166667,0.93817138671875,0.522064208984375,-0.143157958984375,1,0.99
2020-05-16 12:05:43.749 -0400,9193.652677166667,0.9777069091796875,0.554931640625,-0.0679931640625,1,0.99
2020-05-16 12:05:43.819 -0400,9193.722517166667,0.933990478515625,0.5719757080078125,-0.1924591064453125,1,0.99
2020-05-16 12:05:43.889 -0400,9193.792359166668,1.05230712890625,0.7178192138671875,-0.4493255615234375,1,0.99
2020-05-16 12:05:43.959 -0400,9193.862200166668,1.175888061523438,-0.0365753173828125,-0.2827606201171875,1,0.99
2020-05-16 12:05:44.029 -0400,9193.932043166667,0.8480224609375,0.2071380615234375,-0.127777099609375,1,0.99
2020-05-16 12:05:44.098 -0400,9194.001889166668,0.6639404296875,0.3249664306640625,-0.0807952880859375,1,0.99
2020-05-16 12:05:44.168 -0400,9194.071732166667,0.6943511962890625,0.3849334716796875,-0.1775970458984375,1,0.99
2020-05-16 12:05:44.238 -0400,9194.141574166668,0.777496337890625,0.384368896484375,-0.198577880859375,1,0.99
2020-05-16 12:05:44.308 -0400,9194.211424166668,0.97344970703125,0.4221649169921875,-0.3281707763671875,1,0.99
2020-05-16 12:05:44.378 -0400,9194.281267166667,0.8470916748046875,0.8486328125,-0.5177459716796875,1,0.99
2020-05-16 12:05:44.448 -0400,9194.351112166667,0.7545928955078125,0.4034576416015625,-0.26373291015625,1,0.99
2020-05-16 12:05:44.518 -0400,9194.420959166668,0.79498291015625,0.451019287109375,-0.30828857421875,1,0.99
2020-05-16 12:05:44.587 -0400,9194.490803125,0.8207550048828125,0.3361358642578125,-0.37054443359375,1,0.99
2020-05-16 12:05:44.657 -0400,9194.560647125001,0.76202392578125,0.4087982177734375,-0.317352294921875,1,0.99
2020-05-16 12:05:44.727 -0400,9194.630491125001,0.6635589599609375,0.3888397216796875,-0.17303466796875,1,0.99
2020-05-16 12:05:44.797 -0400,9194.700334125,0.98529052734375,0.5406036376953125,-0.3028411865234375,1,0.99
2020-05-16 12:05:44.867 -0400,9194.770175125001,0.9669342041015625,0.5386810302734375,-0.53216552734375,1,0.99
2020-05-16 12:05:44.937 -0400,9194.840017125001,0.9852294921875,0.1589202880859375,-0.5476226806640625,1,0.99
2020-05-16 12:05:45.006 -0400,9194.909861125001,1.01336669921875,0.3092498779296875,-0.3199005126953125,1,0.99
2020-05-16 12:05:45.076 -0400,9194.979703125,0.81268310546875,0.3142547607421875,-0.193603515625,1,0.99
2020-05-16 12:05:45.146 -0400,9195.049547125,0.7802581787109375,0.2737579345703125,-0.3527984619140625,1,0.99
2020-05-16 12:05:45.216 -0400,9195.119392125,0.77056884765625,0.4539794921875,-0.333251953125,1,0.99
2020-05-16 12:05:45.286 -0400,9195.189238125,0.8136444091796875,0.5893402099609375,-0.3746337890625,1,0.99
2020-05-16 12:05:45.356 -0400,9195.259087125001,0.7706451416015625,0.453155517578125,-0.3735809326171875,1,0.99
2020-05-16 12:05:45.425 -0400,9195.328934125,0.8923187255859375,0.4028167724609375,-0.320220947265625,1,0.99
2020-05-16 12:05:45.495 -0400,9195.398780125,1.102645874023438,0.4513092041015625,-0.2388458251953125,1,0.99
2020-05-16 12:05:45.565 -0400,9195.468630500001,0.98223876953125,0.3443603515625,-0.2108001708984375,1,0.99
2020-05-16 12:05:45.635 -0400,9195.5384815,0.8251800537109375,0.3109130859375,-0.193328857421875,1,0.99
2020-05-16 12:05:45.705 -0400,9195.6083275,0.7747039794921875,0.264984130859375,-0.2180328369140625,1,0.99
2020-05-16 12:05:45.775 -0400,9195.6781735,0.7528076171875,0.36773681640625,-0.4970245361328125,1,0.99
2020-05-16 12:05:45.845 -0400,9195.748014500001,0.478851318359375,0.878173828125,-0.2276611328125,1,0.99
2020-05-16 12:05:45.914 -0400,9195.817858500001,0.55511474609375,0.893829345703125,-0.2350006103515625,1,0.99
2020-05-16 12:05:45.984 -0400,9195.8877025,0.7171630859375,0.9903106689453125,-0.2067108154296875,1,0.99
2020-05-16 12:05:46.054 -0400,9195.957540500001,0.85540771484375,0.812591552734375,-0.19329833984375,1,0.99
2020-05-16 12:05:46.124 -0400,9196.0273825,0.798370361328125,0.736053466796875,-0.10504150390625,1,0.99
2020-05-16 12:05:46.194 -0400,9196.097224500001,0.8003387451171875,0.4822845458984375,-0.0502471923828125,1,0.99
2020-05-16 12:05:46.264 -0400,9196.1670675,0.83935546875,0.46453857421875,-0.064605712890625,1,0.99
2020-05-16 12:05:46.334 -0400,9196.2369115,0.85076904296875,0.4836883544921875,-0.0582427978515625,1,0.99
2020-05-16 12:05:46.403 -0400,9196.3067575,0.77105712890625,0.5487213134765625,-0.1358795166015625,1,0.99
2020-05-16 12:05:46.473 -0400,9196.3766025,0.829315185546875,0.5489501953125,-0.1888580322265625,1,0.99
2020-05-16 12:05:46.543 -0400,9196.4464465,0.8740234375,0.637725830078125,-0.16162109375,1,0.99
2020-05-16 12:05:46.613 -0400,9196.516295250001,0.855438232421875,0.559417724609375,-0.06072998046875,1,0.99
2020-05-16 12:05:46.683 -0400,9196.58613725,0.8616485595703125,0.54705810546875,-0.082916259765625,1,0.99
2020-05-16 12:05:46.753 -0400,9196.65598125,0.78240966796875,0.5245513916015625,-0.0203857421875,1,0.99
2020-05-16 12:05:46.823 -0400,9196.725824250001,0.7861480712890625,0.5862884521484375,-0.01202392578125,1,0.99
2020-05-16 12:05:46.892 -0400,9196.79566525,0.82073974609375,0.5772857666015625,-0.1005706787109375,1,0.99
2020-05-16 12:05:46.962 -0400,9196.86551125,0.7382659912109375,0.6629180908203125,-0.10797119140625,1,0.99
2020-05-16 12:05:47.032 -0400,9196.93535725,0.610931396484375,0.8243560791015625,-0.0599212646484375,1,0.99
2020-05-16 12:05:47.102 -0400,9197.00520225,0.610595703125,0.991485595703125,-0.0047760009765625,1,0.99
2020-05-16 12:05:47.172 -0400,9197.075049250001,0.6915435791015625,0.9335479736328125,0.2103729248046875,1,0.99
2020-05-16 12:05:47.241 -0400,9197.144893250001,0.7824249267578125,0.787353515625,0.3194732666015625,1,0.99
2020-05-16 12:05:47.312 -0400,9197.214738250001,1.134414672851562,0.869049072265625,0.334808349609375,1,0.99
2020-05-16 12:05:47.381 -0400,9197.284585250001,1.184066772460938,0.462860107421875,0.328826904296875,1,0.99
2020-05-16 12:05:47.451 -0400,9197.35443225,0.792938232421875,0.3830413818359375,-0.092681884765625,1,0.99
2020-05-16 12:05:47.521 -0400,9197.42427725,0.5645751953125,0.1569671630859375,0.0477142333984375,1,0.99
2020-05-16 12:05:47.591 -0400,9197.49411575,0.8450469970703125,0.3680267333984375,-0.1443328857421875,1,0.99
2020-05-16 12:05:47.660 -0400,9197.563954750001,0.9502105712890625,0.3544769287109375,0.035369873046875,1,0.99
2020-05-16 12:05:47.730 -0400,9197.633792750001,0.781707763671875,0.7123565673828125,-0.2562255859375,1,0.99
2020-05-16 12:05:47.800 -0400,9197.70363075,0.958526611328125,0.847259521484375,-0.50177001953125,1,0.99
2020-05-16 12:05:47.870 -0400,9197.77346975,0.5697784423828125,0.4195098876953125,-0.29302978515625,1,0.99
2020-05-16 12:05:47.940 -0400,9197.843312750001,0.43988037109375,0.6608734130859375,-0.2506561279296875,1,0.99
2020-05-16 12:05:48.010 -0400,9197.913156750001,0.8480682373046875,0.57342529296875,-0.2440643310546875,1,0.99
2020-05-16 12:05:48.079 -0400,9197.983001750001,1.04833984375,0.299407958984375,-0.231414794921875,1,0.99
2020-05-16 12:05:48.149 -0400,9198.05285075,1.328903198242188,0.55780029296875,-0.035888671875,1,0.99
2020-05-16 12:05:48.219 -0400,9198.122698750001,0.914581298828125,0.263092041015625,0.1777801513671875,1,0.99
2020-05-16 12:05:48.289 -0400,9198.19254475,0.843536376953125,0.2266845703125,0.17767333984375,1,0.99
2020-05-16 12:05:48.359 -0400,9198.26239175,0.6029205322265625,0.4859619140625,0.0528411865234375,1,0.99
2020-05-16 12:05:48.429 -0400,9198.33224075,0.8312835693359375,0.5803680419921875,-0.039276123046875,1,0.99
2020-05-16 12:05:48.499 -0400,9198.402084750001,1.086700439453125,0.49822998046875,0.0003814697265625,1,0.99
2020-05-16 12:05:48.569 -0400,9198.471932375001,1.05535888671875,0.39520263671875,-0.072021484375,1,0.99
2020-05-16 12:05:48.639 -0400,9198.541779375,0.817626953125,0.336578369140625,-0.1068878173828125,1,0.99
2020-05-16 12:05:48.708 -0400,9198.611621375001,0.8888397216796875,0.357208251953125,-0.1042633056640625,1,0.99
2020-05-16 12:05:48.778 -0400,9198.681467375001,0.9176025390625,0.392303466796875,-0.0533905029296875,1,0.99
2020-05-16 12:05:48.848 -0400,9198.751312375001,1.086181640625,0.454559326171875,0.0288848876953125,1,0.99
2020-05-16 12:05:48.918 -0400,9198.821161375001,0.9889984130859375,0.4009857177734375,-0.0067138671875,1,0.99
2020-05-16 12:05:48.988 -0400,9198.891010375,0.9356231689453125,0.27587890625,0.20587158203125,1,0.99
2020-05-16 12:05:49.057 -0400,9198.960857375001,0.9727630615234375,0.2887115478515625,0.112945556640625,1,0.99
2020-05-16 12:05:49.127 -0400,9199.030705375,0.967742919921875,0.3519287109375,0.1013031005859375,1,0.99
2020-05-16 12:05:49.197 -0400,9199.100555375,1.0242919921875,0.467987060546875,-0.1464691162109375,1,0.99
2020-05-16 12:05:49.267 -0400,9199.170400375,0.8703155517578125,0.414764404296875,-0.1673583984375,1,0.99
2020-05-16 12:05:49.337 -0400,9199.240249375001,0.74652099609375,0.3623809814453125,-0.096435546875,1,0.99
2020-05-16 12:05:49.407 -0400,9199.310098375001,0.8477325439453125,0.34405517578125,-0.027191162109375,1,0.99
2020-05-16 12:05:49.476 -0400,9199.379943375001,0.9299163818359375,0.3089141845703125,0.019744873046875,1,0.99
2020-05-16 12:05:49.546 -0400,9199.449792375,1.101882934570312,0.34210205078125,-0.00335693359375,1,0.99
2020-05-16 12:05:49.616 -0400,9199.519638125001,0.9172210693359375,0.389801025390625,-0.0964508056640625,1,0.99
2020-05-16 12:05:49.686 -0400,9199.589479125001,0.61383056640625,0.44757080078125,-0.35272216796875,1,0.99
2020-05-16 12:05:49.756 -0400,9199.659320125,0.6505126953125,0.3265228271484375,-0.37738037109375,1,0.99
2020-05-16 12:05:49.826 -0400,9199.729165125,1.117782592773438,0.408966064453125,-0.5254058837890625,1,0.99
2020-05-16 12:05:49.896 -0400,9199.799011125,1.1065673828125,0.42742919921875,-0.397491455078125,1,0.99
2020-05-16 12:05:49.965 -0400,9199.868858125001,0.9300537109375,0.5261993408203125,-0.1964263916015625,1,0.99
2020-05-16 12:05:50.035 -0400,9199.938703125001,0.581573486328125,0.3579864501953125,-0.1749420166015625,1,0.99
2020-05-16 12:05:50.105 -0400,9200.008552125,0.8245849609375,0.3238067626953125,-0.0660247802734375,1,0.99
2020-05-16 12:05:50.175 -0400,9200.078398125001,0.900054931640625,0.35626220703125,-0.0843505859375,1,0.99
2020-05-16 12:05:50.245 -0400,9200.148243125001,0.763824462890625,0.2990570068359375,-0.0601959228515625,1,0.99
2020-05-16 12:05:50.315 -0400,9200.218087125,1.01031494140625,0.5083770751953125,-0.1986236572265625,1,0.99
2020-05-16 12:05:50.384 -0400,9200.287932125,1.06488037109375,0.371124267578125,-0.14654541015625,1,0.99
2020-05-16 12:05:50.454 -0400,9200.357780125001,0.9822998046875,0.3718109130859375,-0.1643829345703125,1,0.99
2020-05-16 12:05:50.524 -0400,9200.427627125,1.05194091796875,0.4884185791015625,-0.1368255615234375,1,0.99
2020-05-16 12:05:50.594 -0400,9200.497475375001,0.8642425537109375,0.3994140625,-0.1578521728515625,1,0.99
2020-05-16 12:05:50.664 -0400,9200.567321375,0.9956512451171875,0.3962554931640625,-0.1615753173828125,1,0.99
2020-05-16 12:05:50.734 -0400,9200.637170375001,1.028305053710938,0.4624786376953125,-0.146514892578125,1,0.99
2020-05-16 12:05:50.804 -0400,9200.707017375,1.02508544921875,0.3722381591796875,-0.10418701171875,1,0.99
2020-05-16 12:05:50.874 -0400,9200.776865375001,0.841033935546875,0.3211212158203125,0.0106353759765625,1,0.99
2020-05-16 12:05:50.943 -0400,9200.846709375001,0.8512725830078125,0.3517303466796875,-0.0537109375,1,0.99
2020-05-16 12:05:51.013 -0400,9200.916553375,0.7918243408203125,0.3697509765625,-0.2620391845703125,1,0.99
2020-05-16 12:05:51.083 -0400,9200.986398375,1.065109252929688,1.872421264648438,-0.265533447265625,1,0.99
2020-05-16 12:05:51.153 -0400,9201.056240375001,1.1009521484375,0.1675872802734375,-0.0061187744140625,1,0.99
2020-05-16 12:05:51.223 -0400,9201.126079375001,0.7823486328125,0.20361328125,-0.0929718017578125,1,0.99
2020-05-16 12:05:51.293 -0400,9201.195922375,0.8329620361328125,0.3362579345703125,-0.01116943359375,1,0.99
2020-05-16 12:05:51.363 -0400,9201.265767375,0.7673797607421875,0.4165191650390625,-0.0457611083984375,1,0.99
2020-05-16 12:05:51.432 -0400,9201.335613375,0.567169189453125,0.9626922607421875,-0.5129852294921875,1,0.99
2020-05-16 12:05:51.502 -0400,9201.405455375001,0.8520660400390625,0.2843780517578125,-0.1288604736328125,1,0.99
2020-05-16 12:05:51.572 -0400,9201.475300375001,0.800445556640625,0.7913665771484375,-0.22802734375,1,0.99
2020-05-16 12:05:51.642 -0400,9201.545147375,0.8675537109375,0.092437744140625,-0.2066650390625,1,0.99
2020-05-16 12:05:51.711 -0400,9201.614994375001,0.900390625,0.4351806640625,-0.1619110107421875,1,0.99
2020-05-16 12:05:51.781 -0400,9201.684842375,0.9309234619140625,0.417144775390625,-0.0619049072265625,1,0.99
2020-05-16 12:05:51.851 -0400,9201.754688375,0.9789276123046875,0.630828857421875,0.164520263671875,1,0.99
2020-05-16 12:05:51.921 -0400,9201.824537375001,0.6902618408203125,0.64276123046875,0.0787506103515625,1,0.99
2020-05-16 12:05:51.991 -0400,9201.894384375,0.543701171875,0.2609710693359375,0.08154296875,1,0.99
2020-05-16 12:05:52.061 -0400,9201.964234375,0.9412841796875,0.9349517822265625,-0.3379669189453125,1,0.99
2020-05-16 12:05:52.131 -0400,9202.034079375,1.001541137695312,0.614410400390625,-0.0666961669921875,1,0.99
2020-05-16 12:05:52.200 -0400,9202.103926375001,1.300704956054688,0.600494384765625,-0.35296630859375,1,0.99
2020-05-16 12:05:52.270 -0400,9202.173771375001,1.124954223632812,0.576812744140625,-0.0969696044921875,1,0.99
2020-05-16 12:05:52.340 -0400,9202.243620375,0.50140380859375,0.5498199462890625,-0.0170745849609375,1,0.99
2020-05-16 12:05:52.410 -0400,9202.313461375001,0.685638427734375,0.5767059326171875,0.0100860595703125,1,0.99
2020-05-16 12:05:52.480 -0400,9202.383304375,0.9853057861328125,0.4440765380859375,-0.0026092529296875,1,0.99
2020-05-16 12:05:52.550 -0400,9202.453149375,0.87939453125,0.43182373046875,0.006561279296875,1,0.99
2020-05-16 12:05:52.620 -0400,9202.522997,0.924285888671875,0.646728515625,-0.056976318359375,1,0.99
2020-05-16 12:05:52.689 -0400,9202.592844000001,1.081253051757812,0.5858154296875,0.0482635498046875,1,0.99
2020-05-16 12:05:52.760 -0400,9202.662697,0.7659912109375,0.2997589111328125,-0.004638671875,1,0.99
2020-05-16 12:05:52.829 -0400,9202.732554,0.75177001953125,0.3774261474609375,-0.032470703125,1,0.99
2020-05-16 12:05:52.899 -0400,9202.802407000001,0.9590911865234375,0.4245147705078125,0.0496063232421875,1,0.99
2020-05-16 12:05:52.969 -0400,9202.872258000001,1.08197021484375,0.455291748046875,-0.0754547119140625,1,0.99
2020-05-16 12:05:53.039 -0400,9202.942108000001,0.9936981201171875,0.412841796875,0.011138916015625,1,0.99
2020-05-16 12:05:53.109 -0400,9203.011963000001,0.7402801513671875,0.296142578125,-0.1905517578125,1,0.99
2020-05-16 12:05:53.179 -0400,9203.081816,0.2267913818359375,0.08416748046875,-0.013153076171875,1,0.99
2020-05-16 12:05:53.248 -0400,9203.151663000001,1.061386108398438,0.503173828125,-0.431427001953125,1,0.99
2020-05-16 12:05:53.318 -0400,9203.221511,1.280364990234375,0.2612457275390625,-0.132568359375,1,0.99
2020-05-16 12:05:53.388 -0400,9203.291362,1.056182861328125,0.21478271484375,-0.2256622314453125,1,0.99
2020-05-16 12:05:53.458 -0400,9203.361213,0.731231689453125,0.6479644775390625,-0.240966796875,1,0.99
2020-05-16 12:05:53.528 -0400,9203.431059,0.851593017578125,0.5809173583984375,-0.7006988525390625,1,0.99
2020-05-16 12:05:53.597 -0400,9203.500908625001,0.973724365234375,1.102401733398438,-0.2567138671875,1,0.99
2020-05-16 12:05:53.667 -0400,9203.570758625001,0.9402618408203125,0.5986480712890625,-0.0290679931640625,1,0.99
2020-05-16 12:05:53.737 -0400,9203.640608625001,0.645660400390625,0.5184478759765625,-0.0027618408203125,1,0.99
2020-05-16 12:05:53.807 -0400,9203.710460625001,0.49639892578125,0.362396240234375,0.048248291015625,1,0.99
2020-05-16 12:05:53.877 -0400,9203.780313625,0.601043701171875,0.3369140625,0.00531005859375,1,0.99
2020-05-16 12:05:53.947 -0400,9203.850166625001,0.907501220703125,0.3849029541015625,0.105194091796875,1,0.99
2020-05-16 12:05:54.016 -0400,9203.920020625001,1.191131591796875,0.5655059814453125,-0.0493011474609375,1,0.99
2020-05-16 12:05:54.086 -0400,9203.989872625001,1.092727661132812,0.4614410400390625,-0.028839111328125,1,0.99
2020-05-16 12:05:54.156 -0400,9204.059722625001,1.208526611328125,0.3198394775390625,-0.3274688720703125,1,0.99
2020-05-16 12:05:54.226 -0400,9204.129572625001,1.194305419921875,0.2894744873046875,-0.29058837890625,1,0.99
2020-05-16 12:05:54.296 -0400,9204.199424625,0.68988037109375,0.33544921875,-0.380035400390625,1,0.99
2020-05-16 12:05:54.366 -0400,9204.269275625,0.836395263671875,0.5157318115234375,-0.681121826171875,1,0.99
2020-05-16 12:05:54.436 -0400,9204.339127625,1.0401611328125,0.37091064453125,-0.104248046875,1,0.99
2020-05-16 12:05:54.505 -0400,9204.408986625,1.343505859375,0.29608154296875,-0.08331298828125,1,0.99
2020-05-16 12:05:54.575 -0400,9204.4788415,0.973876953125,0.3002166748046875,-0.104827880859375,1,0.99
2020-05-16 12:05:54.645 -0400,9204.5486975,0.6988372802734375,0.3489532470703125,0.0091705322265625,1,0.99
2020-05-16 12:05:54.715 -0400,9204.618550500001,0.4759521484375,0.2611083984375,-0.081939697265625,1,0.99
2020-05-16 12:05:54.785 -0400,9204.6884025,0.4467010498046875,0.2151641845703125,-0.2086181640625,1,0.99
2020-05-16 12:05:54.855 -0400,9204.7582525,0.5812835693359375,0.188720703125,-0.2224578857421875,1,0.99
2020-05-16 12:05:54.925 -0400,9204.828105500001,0.6668701171875,0.265228271484375,-0.2476654052734375,1,0.99
2020-05-16 12:05:54.995 -0400,9204.8979545,0.85302734375,0.4064483642578125,-0.4324798583984375,1,0.99
2020-05-16 12:05:55.064 -0400,9204.967806500001,1.179702758789062,0.503875732421875,-0.583648681640625,1,0.99
2020-05-16 12:05:55.134 -0400,9205.037656500001,1.504318237304688,0.7721099853515625,-0.0731353759765625,1,0.99
2020-05-16 12:05:55.204 -0400,9205.107507500001,1.542892456054688,0.5238037109375,-0.2426300048828125,1,0.99
2020-05-16 12:05:55.274 -0400,9205.1773605,0.9569854736328125,0.36859130859375,-0.1740264892578125,1,0.99
2020-05-16 12:05:55.344 -0400,9205.247213500001,0.6185455322265625,0.339508056640625,-0.109832763671875,1,0.99
2020-05-16 12:05:55.414 -0400,9205.3170665,0.5728912353515625,0.302276611328125,-0.112030029296875,1,0.99
2020-05-16 12:05:55.484 -0400,9205.386916500001,0.71954345703125,0.2608489990234375,-0.171875,1,0.99
2020-05-16 12:05:55.553 -0400,9205.456760500001,0.9926910400390625,0.2940216064453125,-0.1469268798828125,1,0.99
2020-05-16 12:05:55.623 -0400,9205.526604750001,1.148941040039062,0.357879638671875,-0.158477783203125,1,0.99
2020-05-16 12:05:55.693 -0400,9205.59645275,1.17193603515625,0.4933929443359375,-0.193084716796875,1,0.99
2020-05-16 12:05:55.763 -0400,9205.66630275,1.16131591796875,0.114776611328125,-0.2681732177734375,1,0.99
2020-05-16 12:05:55.833 -0400,9205.73614775,1.081283569335938,0.1815032958984375,0.1167449951171875,1,0.99
2020-05-16 12:05:55.903 -0400,9205.805994750001,0.7464752197265625,0.4443206787109375,-0.1447296142578125,1,0.99
2020-05-16 12:05:55.972 -0400,9205.875841750001,0.5700836181640625,0.4841461181640625,-0.1698455810546875,1,0.99
2020-05-16 12:05:56.042 -0400,9205.94568975,0.55908203125,0.424560546875,-0.2081451416015625,1,0.99
2020-05-16 12:05:56.112 -0400,9206.01553975,0.7587890625,0.389373779296875,-0.3129119873046875,1,0.99
2020-05-16 12:05:56.182 -0400,9206.08539075,1.036178588867188,0.32952880859375,-0.321380615234375,1,0.99
2020-05-16 12:05:56.258 -0400,9206.15524075,1.240097045898438,0.35943603515625,-0.3986663818359375,1,0.99
2020-05-16 12:05:56.322 -0400,9206.22508975,1.321990966796875,0.548583984375,-0.458831787109375,1,0.99
2020-05-16 12:05:56.392 -0400,9206.294937750001,1.10589599609375,0.41650390625,-0.20916748046875,1,0.99
2020-05-16 12:05:56.461 -0400,9206.364787750001,1.202667236328125,0.2695770263671875,-0.1296234130859375,1,0.99
2020-05-16 12:05:56.531 -0400,9206.43463675,0.97412109375,0.3004302978515625,-0.0562286376953125,1,0.99
2020-05-16 12:05:56.601 -0400,9206.504484375,0.807647705078125,0.3126068115234375,0.0261383056640625,1,0.99
2020-05-16 12:05:56.671 -0400,9206.574330375,0.89788818359375,0.34735107421875,0.0464019775390625,1,0.99
2020-05-16 12:05:56.741 -0400,9206.644177375001,0.979217529296875,0.2947235107421875,0.0407257080078125,1,0.99
2020-05-16 12:05:56.811 -0400,9206.714024375,1.123931884765625,0.3534698486328125,-0.055419921875,1,0.99
2020-05-16 12:05:56.880 -0400,9206.783872375001,1.25323486328125,0.33966064453125,-0.138275146484375,1,0.99
2020-05-16 12:05:56.951 -0400,9206.853718375001,1.107009887695312,0.3649139404296875,-0.44500732421875,1,0.99
2020-05-16 12:05:57.020 -0400,9206.923567375001,0.9784698486328125,0.161651611328125,-0.421783447265625,1,0.99
2020-05-16 12:05:57.090 -0400,9206.993414375,0.97003173828125,0.1078338623046875,-0.3217620849609375,1,0.99
2020-05-16 12:05:57.160 -0400,9207.063258375001,0.8329925537109375,0.0980224609375,-0.3662567138671875,1,0.99
2020-05-16 12:05:57.230 -0400,9207.133102375001,0.700286865234375,0.3827056884765625,-0.2057037353515625,1,0.99
2020-05-16 12:05:57.306 -0400,9207.202947375001,0.654205322265625,0.2218475341796875,-0.1301422119140625,1,0.99
2020-05-16 12:05:57.370 -0400,9207.272794375001,0.80841064453125,0.3233642578125,-0.1931610107421875,1,0.99
2020-05-16 12:05:57.439 -0400,9207.342643375001,0.967742919921875,0.2895965576171875,-0.221435546875,1,0.99
2020-05-16 12:05:57.509 -0400,9207.412489375001,1.041854858398438,0.319091796875,-0.2234649658203125,1,0.99
2020-05-16 12:05:57.579 -0400,9207.482334291668,1.44915771484375,0.476409912109375,-0.3517303466796875,1,0.99
2020-05-16 12:05:57.649 -0400,9207.552178291668,1.260162353515625,0.3134765625,-0.1253662109375,1,0.99
2020-05-16 12:05:57.719 -0400,9207.622025291666,1.185638427734375,0.2548370361328125,-0.2477264404296875,1,0.99
2020-05-16 12:05:57.788 -0400,9207.691877291667,0.8538055419921875,0.2847900390625,-0.1512298583984375,1,0.99
2020-05-16 12:05:57.858 -0400,9207.761721291667,0.5923004150390625,0.296356201171875,-0.156463623046875,1,0.99
2020-05-16 12:05:57.928 -0400,9207.831575291668,0.4078826904296875,0.27166748046875,-0.047332763671875,1,0.99
2020-05-16 12:05:57.998 -0400,9207.901429291667,0.5702972412109375,0.3300323486328125,-0.10357666015625,1,0.99
2020-05-16 12:05:58.068 -0400,9207.971274291667,1.00244140625,0.379486083984375,-0.1795196533203125,1,0.99
2020-05-16 12:05:58.138 -0400,9208.041118291667,1.5186767578125,0.29888916015625,-0.2322540283203125,1,0.99
2020-05-16 12:05:58.207 -0400,9208.110961291668,1.478652954101562,0.2660980224609375,-0.157806396484375,1,0.99
2020-05-16 12:05:58.277 -0400,9208.180806291668,1.429672241210938,0.4947967529296875,-0.3201446533203125,1,0.99
2020-05-16 12:05:58.347 -0400,9208.250651291668,0.98846435546875,0.153656005859375,-0.1235809326171875,1,0.99
2020-05-16 12:05:58.417 -0400,9208.320493291667,0.9351959228515625,0.0544586181640625,0.048858642578125,1,0.99
2020-05-16 12:05:58.487 -0400,9208.390337291667,0.7681884765625,0.24334716796875,-0.10870361328125,1,0.99
2020-05-16 12:05:58.557 -0400,9208.460179291667,0.53582763671875,0.2830047607421875,-0.1757354736328125,1,0.99
2020-05-16 12:05:58.627 -0400,9208.530023625,0.5044403076171875,0.1907196044921875,-0.108184814453125,1,0.99
2020-05-16 12:05:58.696 -0400,9208.599864625001,0.7616729736328125,0.2182159423828125,-0.1629791259765625,1,0.99
2020-05-16 12:05:58.766 -0400,9208.669707625,1.011734008789062,0.283905029296875,-0.276092529296875,1,0.99
2020-05-16 12:05:58.836 -0400,9208.739547625,1.200775146484375,0.3503265380859375,-0.360382080078125,1,0.99
2020-05-16 12:05:58.906 -0400,9208.809388625001,1.364944458007812,0.3935089111328125,-0.3204345703125,1,0.99
2020-05-16 12:05:58.976 -0400,9208.879231625,1.04052734375,0.333099365234375,-0.2402191162109375,1,0.99
2020-05-16 12:05:59.046 -0400,9208.949074625001,0.9857177734375,0.3944854736328125,-0.2134246826171875,1,0.99
2020-05-16 12:05:59.115 -0400,9209.018921625,0.993255615234375,0.3610687255859375,-0.0555572509765625,1,0.99
2020-05-16 12:05:59.185 -0400,9209.088770625001,0.7899322509765625,0.3558197021484375,-0.0635223388671875,1,0.99
2020-05-16 12:05:59.255 -0400,9209.158619625001,0.84344482421875,0.417205810546875,-0.058074951171875,1,0.99
2020-05-16 12:05:59.325 -0400,9209.228467625,0.97808837890625,0.322296142578125,-0.0218658447265625,1,0.99
2020-05-16 12:05:59.395 -0400,9209.298310625001,1.2269287109375,0.317840576171875,-0.0877227783203125,1,0.99
2020-05-16 12:05:59.465 -0400,9209.368152625,1.27838134765625,0.2900848388671875,-0.1048736572265625,1,0.99
2020-05-16 12:05:59.535 -0400,9209.437997625,0.9738006591796875,0.254180908203125,-0.1366424560546875,1,0.99
2020-05-16 12:05:59.604 -0400,9209.507839625001,1.126312255859375,0.322357177734375,-0.409393310546875,1,0.99
2020-05-16 12:05:59.674 -0400,9209.577684625001,1.027923583984375,0.0235137939453125,-0.157012939453125,1,0.99
2020-05-16 12:05:59.744 -0400,9209.647531625,0.6602325439453125,0.1633148193359375,-0.31591796875,1,0.99
2020-05-16 12:05:59.814 -0400,9209.717375625001,0.549163818359375,0.3213958740234375,-0.2682342529296875,1,0.99
2020-05-16 12:05:59.884 -0400,9209.787220625001,0.6571197509765625,0.3084716796875,-0.2895355224609375,1,0.99
2020-05-16 12:05:59.954 -0400,9209.857067625,0.87615966796875,0.389495849609375,-0.3363800048828125,1,0.99
2020-05-16 12:06:00.023 -0400,9209.926916625001,1.10858154296875,0.46875,-0.3707122802734375,1,0.99
2020-05-16 12:06:00.093 -0400,9209.996765625001,1.35833740234375,0.599456787109375,-0.54541015625,1,0.99
2020-05-16 12:06:00.163 -0400,9210.066615625001,1.265090942382812,0.4078826904296875,-0.2429656982421875,1,0.99
2020-05-16 12:06:00.233 -0400,9210.136461625001,1.285842895507812,0.1423797607421875,-0.0966033935546875,1,0.99
2020-05-16 12:06:00.303 -0400,9210.206309625,0.8275299072265625,0.3399810791015625,-0.1155853271484375,1,0.99
2020-05-16 12:06:00.373 -0400,9210.276150625001,0.5822296142578125,0.3638916015625,0.0095367431640625,1,0.99
2020-05-16 12:06:00.443 -0400,9210.345996625001,0.8592376708984375,0.341827392578125,0.06097412109375,1,0.99
2020-05-16 12:06:00.512 -0400,9210.415848625,1.242324829101562,0.295257568359375,0.0353240966796875,1,0.99
2020-05-16 12:06:00.582 -0400,9210.485698291668,1.2855224609375,0.31561279296875,-0.0722198486328125,1,0.99
2020-05-16 12:06:00.652 -0400,9210.555547291668,1.203216552734375,0.2486724853515625,-0.0980987548828125,1,0.99
2020-05-16 12:06:00.722 -0400,9210.625393291668,1.07635498046875,0.372711181640625,-0.51373291015625,1,0.99
2020-05-16 12:06:00.792 -0400,9210.695239291666,1.06195068359375,0.1221160888671875,-0.23382568359375,1,0.99
2020-05-16 12:06:00.862 -0400,9210.765081291667,0.9796600341796875,0.2124481201171875,-0.483245849609375,1,0.99
2020-05-16 12:06:00.931 -0400,9210.834931291667,0.603057861328125,0.415924072265625,-0.4588165283203125,1,0.99
2020-05-16 12:06:01.001 -0400,9210.904780291667,0.5490264892578125,0.34747314453125,-0.355682373046875,1,0.99
2020-05-16 12:06:01.071 -0400,9210.974626291667,0.766326904296875,0.3117218017578125,-0.4061279296875,1,0.99
2020-05-16 12:06:01.141 -0400,9211.044473291668,0.9770355224609375,0.295806884765625,-0.3415679931640625,1,0.99
2020-05-16 12:06:01.211 -0400,9211.114320291666,1.459060668945312,0.4526824951171875,-0.2822418212890625,1,0.99
2020-05-16 12:06:01.281 -0400,9211.184170291668,1.528549194335938,0.6746063232421875,-0.3795928955078125,1,0.99
2020-05-16 12:06:01.351 -0400,9211.254020291668,1.709060668945312,0.2029266357421875,0.011993408203125,1,0.99
2020-05-16 12:06:01.420 -0400,9211.323865291668,1.005844116210938,0.29888916015625,-0.08197021484375,1,0.99
2020-05-16 12:06:01.490 -0400,9211.393707291667,0.6013641357421875,0.3060302734375,-0.0134429931640625,1,0.99
2020-05-16 12:06:01.560 -0400,9211.463548291667,0.6356353759765625,0.22711181640625,0.0383148193359375,1,0.99
2020-05-16 12:06:01.630 -0400,9211.533392166668,0.761993408203125,0.1563720703125,0.0509033203125,1,0.99
2020-05-16 12:06:01.700 -0400,9211.603238166666,0.9009857177734375,0.251434326171875,-0.03143310546875,1,0.99
2020-05-16 12:06:01.770 -0400,9211.673087166668,1.3519287109375,0.4206695556640625,-0.120849609375,1,0.99
2020-05-16 12:06:01.839 -0400,9211.742933166668,1.504165649414062,0.6451568603515625,-0.515533447265625,1,0.99
2020-05-16 12:06:01.909 -0400,9211.812773166666,1.2640380859375,0.3139495849609375,-0.2933502197265625,1,0.99
2020-05-16 12:06:01.979 -0400,9211.882612166668,1.014633178710938,-0.0148162841796875,-0.3192596435546875,1,0.99
2020-05-16 12:06:02.049 -0400,9211.952452166668,0.66845703125,0.366363525390625,-0.40875244140625,1,0.99
2020-05-16 12:06:02.119 -0400,9212.022293166667,0.4861602783203125,0.465301513671875,-0.3740386962890625,1,0.99
2020-05-16 12:06:02.189 -0400,9212.092132166666,0.6076812744140625,0.3126678466796875,-0.33685302734375,1,0.99
2020-05-16 12:06:02.259 -0400,9212.161975166668,1.016799926757812,0.154510498046875,-0.32879638671875,1,0.99
2020-05-16 12:06:02.328 -0400,9212.231820166668,1.255706787109375,0.26092529296875,-0.3079986572265625,1,0.99
2020-05-16 12:06:02.398 -0400,9212.301664166667,1.186309814453125,0.522064208984375,-0.2748565673828125,1,0.99
2020-05-16 12:06:02.468 -0400,9212.371505166668,1.105972290039062,0.49298095703125,-0.198822021484375,1,0.99
2020-05-16 12:06:02.538 -0400,9212.441349166667,1.412445068359375,0.2984466552734375,-0.00726318359375,1,0.99
2020-05-16 12:06:02.608 -0400,9212.511195125,1.137802124023438,0.2895355224609375,-0.0302581787109375,1,0.99
2020-05-16 12:06:02.678 -0400,9212.581038125001,0.7322845458984375,0.364013671875,-0.029449462890625,1,0.99
2020-05-16 12:06:02.747 -0400,9212.650879125,0.6486968994140625,0.30078125,-0.004425048828125,1,0.99
2020-05-16 12:06:02.817 -0400,9212.720724125,0.705169677734375,0.19000244140625,0.019500732421875,1,0.99
2020-05-16 12:06:02.887 -0400,9212.790568125001,0.8033294677734375,0.2170867919921875,-0.0087127685546875,1,0.99
2020-05-16 12:06:02.957 -0400,9212.860410125,1.196853637695312,0.3741912841796875,-0.0305633544921875,1,0.99
2020-05-16 12:06:03.027 -0400,9212.930255125,1.27740478515625,0.5490570068359375,-0.4783935546875,1,0.99
2020-05-16 12:06:03.097 -0400,9213.000102125001,1.290206909179688,0.3244781494140625,-0.3101806640625,1,0.99
2020-05-16 12:06:03.166 -0400,9213.069947125001,0.9129791259765625,-0.031982421875,-0.3269500732421875,1,0.99
2020-05-16 12:06:03.237 -0400,9213.139792125001,0.694183349609375,0.3817596435546875,-0.388671875,1,0.99
2020-05-16 12:06:03.307 -0400,9213.209638125001,0.489105224609375,0.32489013671875,-0.2736358642578125,1,0.99
2020-05-16 12:06:03.376 -0400,9213.279487125001,0.690826416015625,0.2328643798828125,-0.14166259765625,1,0.99
2020-05-16 12:06:03.446 -0400,9213.349336125,0.962799072265625,0.2700042724609375,-0.1465606689453125,1,0.99
2020-05-16 12:06:03.516 -0400,9213.419185125,1.176498413085938,0.2950897216796875,-0.2379150390625,1,0.99
2020-05-16 12:06:03.586 -0400,9213.489037875001,1.281005859375,0.281829833984375,-0.159515380859375,1,0.99
2020-05-16 12:06:03.655 -0400,9213.558891875,1.141632080078125,0.47601318359375,-0.17071533203125,1,0.99
2020-05-16 12:06:03.725 -0400,9213.628739875001,0.8090057373046875,0.450439453125,-0.1706390380859375,1,0.99
2020-05-16 12:06:03.795 -0400,9213.698581875,1.1446533203125,0.5225372314453125,-0.139739990234375,1,0.99
2020-05-16 12:06:03.865 -0400,9213.768423875001,0.9358978271484375,0.4102630615234375,-0.11798095703125,1,0.99
2020-05-16 12:06:03.935 -0400,9213.838265875,0.7027435302734375,0.44378662109375,-0.160003662109375,1,0.99
2020-05-16 12:06:04.005 -0400,9213.908109875001,0.613525390625,0.3925018310546875,-0.115966796875,1,0.99
2020-05-16 12:06:04.075 -0400,9213.977952875,0.5720367431640625,0.3187255859375,-0.1225128173828125,1,0.99
2020-05-16 12:06:04.144 -0400,9214.047797875,0.6895904541015625,0.344268798828125,-0.1114349365234375,1,0.99
2020-05-16 12:06:04.214 -0400,9214.117643875001,1.270721435546875,0.4340057373046875,-0.1544189453125,1,0.99
2020-05-16 12:06:04.284 -0400,9214.187490875001,1.68658447265625,0.442230224609375,-0.14959716796875,1,0.99
2020-05-16 12:06:04.354 -0400,9214.257334875001,1.455123901367188,0.60528564453125,-0.371002197265625,1,0.99
2020-05-16 12:06:04.424 -0400,9214.327175875,0.8955535888671875,0.1053009033203125,-0.2563018798828125,1,0.99
2020-05-16 12:06:04.494 -0400,9214.397018875001,0.6553192138671875,-0.173614501953125,-0.1450042724609375,1,0.99
2020-05-16 12:06:04.563 -0400,9214.466856875,0.6068878173828125,0.354949951171875,-0.142913818359375,1,0.99
2020-05-16 12:06:04.633 -0400,9214.536696875,0.472137451171875,0.399139404296875,-0.178619384765625,1,0.99
2020-05-16 12:06:04.703 -0400,9214.606540875,0.464141845703125,0.3180084228515625,-0.1683197021484375,1,0.99
2020-05-16 12:06:04.773 -0400,9214.676384875,0.69549560546875,0.309906005859375,-0.2100982666015625,1,0.99
2020-05-16 12:06:04.843 -0400,9214.746228875001,0.9281158447265625,0.3769073486328125,-0.3947601318359375,1,0.99
2020-05-16 12:06:04.913 -0400,9214.816073875001,1.373611450195312,0.3694610595703125,-0.390899658203125,1,0.99
2020-05-16 12:06:04.982 -0400,9214.885918875001,1.5880126953125,0.542755126953125,-0.4496307373046875,1,0.99
