loggingTime(txt),accelerometerTimestamp_sinceReboot(s),accelerometerAccelerationX(G),accelerometerAccelerationY(G),accelerometerAccelerationZ(G),batteryState,batteryLevel
2020-05-16 12:42:00.395 -0400,11057.16623904167,-0.052032470703125,0.2958526611328125,-1.340744018554688,1,0.96
2020-05-16 12:42:00.496 -0400,11057.28596804167,-0.1358184814453125,0.0555877685546875,-0.907073974609375,1,0.96
2020-05-16 12:42:00.616 -0400,11057.40570004167,-0.02496337890625,-0.0718231201171875,-0.5171051025390625,1,0.96
2020-05-16 12:42:00.736 -0400,11057.52543316667,-0.0132293701171875,-0.014801025390625,-0.908203125,1,0.96
2020-05-16 12:42:00.856 -0400,11057.64516516667,0.6229705810546875,-0.0516510009765625,-0.64459228515625,1,0.96
2020-05-16 12:42:00.975 -0400,11057.76490016667,1.228515625,0.63958740234375,-0.5947265625,1,0.96
2020-05-16 12:42:01.095 -0400,11057.88464516667,0.8238677978515625,0.850311279296875,-0.1096343994140625,1,0.96
2020-05-16 12:42:01.215 -0400,11058.00438616667,0.697509765625,0.9873199462890625,-0.0075531005859375,1,0.96
2020-05-16 12:42:01.374 -0400,11058.16403116667,1.324050903320312,1.369842529296875,-0.1309661865234375,1,0.96
2020-05-16 12:42:01.446 -0400,11058.23387816667,1.7470703125,0.6143341064453125,-0.4597930908203125,1,0.96
2020-05-16 12:42:01.514 -0400,11058.30372616667,1.282135009765625,0.626251220703125,-0.37103271484375,1,0.96
2020-05-16 12:42:01.584 -0400,11058.37357416667,0.736236572265625,0.187042236328125,-0.1902618408203125,1,0.96
2020-05-16 12:42:01.653 -0400,11058.44342225,0.614410400390625,0.1777801513671875,-0.0829620361328125,1,0.96
2020-05-16 12:42:01.723 -0400,11058.51326825,0.8099212646484375,0.177642822265625,-0.1226043701171875,1,0.96
2020-05-16 12:42:01.793 -0400,11058.58311725,0.8829345703125,0.222015380859375,0.063995361328125,1,0.96
2020-05-16 12:42:01.863 -0400,11058.65296725,1.103851318359375,0.2669525146484375,0.164398193359375,1,0.96
2020-05-16 12:42:01.933 -0400,11058.72281825,1.09771728515625,0.748565673828125,-0.4855804443359375,1,0.96
2020-05-16 12:42:02.003 -0400,11058.79266725,1.704986572265625,0.9630889892578125,-0.1363525390625,1,0.96
2020-05-16 12:42:02.073 -0400,11058.86251325,0.8660125732421875,0.2375946044921875,-0.123199462890625,1,0.96
2020-05-16 12:42:02.144 -0400,11058.93236125,0.75421142578125,0.04205322265625,-0.2171478271484375,1,0.96
2020-05-16 12:42:02.213 -0400,11059.00220725,0.8471832275390625,0.743377685546875,-0.3368988037109375,1,0.96
2020-05-16 12:42:02.282 -0400,11059.07204725,0.790985107421875,0.7917633056640625,-0.4597625732421875,1,0.96
2020-05-16 12:42:02.352 -0400,11059.14189325,1.177490234375,0.66766357421875,-0.4614715576171875,1,0.96
2020-05-16 12:42:02.422 -0400,11059.21173725,1.484695434570312,0.5214691162109375,-0.649658203125,1,0.96
2020-05-16 12:42:02.492 -0400,11059.28158125,1.708602905273438,0.334320068359375,-0.2725677490234375,1,0.96
2020-05-16 12:42:02.562 -0400,11059.35142325,1.216537475585938,0.2940521240234375,-0.2170257568359375,1,0.96
2020-05-16 12:42:02.631 -0400,11059.42126525,0.681610107421875,0.3313140869140625,-0.171600341796875,1,0.96
2020-05-16 12:42:02.701 -0400,11059.49111254167,0.5393218994140625,0.3562774658203125,0.027069091796875,1,0.96
2020-05-16 12:42:02.771 -0400,11059.56095754167,0.820770263671875,0.26092529296875,0.039337158203125,1,0.96
2020-05-16 12:42:02.841 -0400,11059.63080454167,0.97149658203125,0.1251373291015625,0.1508026123046875,1,0.96
2020-05-16 12:42:02.911 -0400,11059.70065054167,0.82781982421875,0.2426605224609375,-0.0231170654296875,1,0.96
2020-05-16 12:42:02.981 -0400,11059.77049254167,1.143325805664062,0.554473876953125,-0.241302490234375,1,0.96
2020-05-16 12:42:03.051 -0400,11059.84033754167,1.961105346679688,0.7620849609375,-0.654754638671875,1,0.96
2020-05-16 12:42:03.121 -0400,11059.91018254167,0.98992919921875,0.07781982421875,-0.2660369873046875,1,0.96
2020-05-16 12:42:03.190 -0400,11059.98002754167,0.8706817626953125,0.1890106201171875,-0.3753204345703125,1,0.96
2020-05-16 12:42:03.260 -0400,11060.04987354167,0.7409210205078125,0.76483154296875,-0.363861083984375,1,0.96
2020-05-16 12:42:03.330 -0400,11060.11971854167,0.827545166015625,1.223129272460938,-0.5561370849609375,1,0.96
2020-05-16 12:42:03.400 -0400,11060.18956154167,1.19561767578125,0.9369354248046875,-0.450927734375,1,0.96
2020-05-16 12:42:03.470 -0400,11060.25940054167,1.490509033203125,0.3022308349609375,-0.49835205078125,1,0.96
2020-05-16 12:42:03.540 -0400,11060.32923654167,2.064285278320312,0.3753814697265625,-0.13983154296875,1,0.96
2020-05-16 12:42:03.609 -0400,11060.39907554167,1.405517578125,0.3896026611328125,-0.247222900390625,1,0.96
2020-05-16 12:42:03.679 -0400,11060.46891725,0.8139801025390625,0.3437957763671875,-0.0299835205078125,1,0.96
2020-05-16 12:42:03.749 -0400,11060.53876025,0.842742919921875,0.3719940185546875,0.052276611328125,1,0.96
2020-05-16 12:42:03.819 -0400,11060.60860325,1.029815673828125,0.2168426513671875,0.037689208984375,1,0.96
2020-05-16 12:42:03.889 -0400,11060.67844725,0.7645416259765625,0.0554962158203125,0.051055908203125,1,0.96
2020-05-16 12:42:03.959 -0400,11060.74829625,0.717529296875,0.1836395263671875,-0.014373779296875,1,0.96
2020-05-16 12:42:04.028 -0400,11060.81814525,0.99169921875,0.7871551513671875,-0.4281158447265625,1,0.96
2020-05-16 12:42:04.098 -0400,11060.88799325,1.576766967773438,0.5752410888671875,-0.3223419189453125,1,0.96
2020-05-16 12:42:04.168 -0400,11060.95784325,1.30108642578125,0.8660125732421875,-0.3762969970703125,1,0.96
2020-05-16 12:42:04.238 -0400,11061.02769125,0.8594970703125,0.7680511474609375,-0.221405029296875,1,0.96
2020-05-16 12:42:04.315 -0400,11061.09753625,0.8249664306640625,0.701629638671875,-0.204254150390625,1,0.96
2020-05-16 12:42:04.378 -0400,11061.16738225,1.094482421875,0.8959197998046875,-0.2698516845703125,1,0.96
2020-05-16 12:42:04.447 -0400,11061.23723125,0.9520111083984375,0.899505615234375,-0.240234375,1,0.96
2020-05-16 12:42:04.517 -0400,11061.30708025,1.310531616210938,0.950439453125,-0.577545166015625,1,0.96
2020-05-16 12:42:04.587 -0400,11061.37692925,1.998199462890625,0.5906524658203125,-0.2475738525390625,1,0.96
2020-05-16 12:42:04.657 -0400,11061.446777125,1.79736328125,0.2184906005859375,-0.1874542236328125,1,0.96
2020-05-16 12:42:04.727 -0400,11061.516624125,0.992645263671875,0.3123779296875,-0.075103759765625,1,0.96
2020-05-16 12:42:04.797 -0400,11061.586466125,0.841033935546875,0.365142822265625,0.04034423828125,1,0.96
2020-05-16 12:42:04.867 -0400,11061.656305125,0.869659423828125,0.20721435546875,0.1071929931640625,1,0.96
2020-05-16 12:42:04.936 -0400,11061.726144125,0.754669189453125,0.1925506591796875,0.1107940673828125,1,0.96
2020-05-16 12:42:05.006 -0400,11061.795985125,0.65679931640625,0.517547607421875,-0.0490570068359375,1,0.96
2020-05-16 12:42:05.076 -0400,11061.865827125,0.6998443603515625,1.335906982421875,-0.2354278564453125,1,0.96
2020-05-16 12:42:05.148 -0400,11061.935669125,0.95556640625,1.540084838867188,-0.7470550537109375,1,0.96
2020-05-16 12:42:05.216 -0400,11062.005516125,0.3815765380859375,0.6630401611328125,-0.4248199462890625,1,0.96
2020-05-16 12:42:05.286 -0400,11062.075361125,0.1161651611328125,0.5729217529296875,-0.4610443115234375,1,0.96
2020-05-16 12:42:05.355 -0400,11062.145205125,0.00799560546875,0.6108245849609375,-0.35760498046875,1,0.96
2020-05-16 12:42:05.425 -0400,11062.215048125,0.373870849609375,1.275711059570312,-0.48223876953125,1,0.96
2020-05-16 12:42:05.495 -0400,11062.284892125,0.7061309814453125,1.249298095703125,-0.3536529541015625,1,0.96
2020-05-16 12:42:05.565 -0400,11062.354734125,1.25665283203125,1.402252197265625,-0.2260284423828125,1,0.96
2020-05-16 12:42:05.635 -0400,11062.424577125,1.424514770507812,0.837799072265625,0.161468505859375,1,0.96
2020-05-16 12:42:05.705 -0400,11062.494420875,0.927093505859375,0.61322021484375,-0.1052703857421875,1,0.96
2020-05-16 12:42:05.774 -0400,11062.564265875,0.4260406494140625,0.40606689453125,-0.18023681640625,1,0.96
2020-05-16 12:42:05.844 -0400,11062.634112875,0.2119598388671875,0.1983795166015625,-0.0676727294921875,1,0.96
2020-05-16 12:42:05.914 -0400,11062.703958875,0.2465057373046875,0.197540283203125,-0.119598388671875,1,0.96
2020-05-16 12:42:05.984 -0400,11062.773806875,0.692108154296875,0.2427978515625,-0.10662841796875,1,0.96
2020-05-16 12:42:06.054 -0400,11062.843657875,0.944976806640625,0.3800506591796875,0.068389892578125,1,0.96
2020-05-16 12:42:06.124 -0400,11062.913508875,2.064498901367188,0.9374847412109375,-0.2723236083984375,1,0.96
2020-05-16 12:42:06.194 -0400,11062.983355875,1.594451904296875,0.8333587646484375,-0.3904876708984375,1,0.96
2020-05-16 12:42:06.264 -0400,11063.053199875,0.921051025390625,0.0734405517578125,-0.1650543212890625,1,0.96
2020-05-16 12:42:06.333 -0400,11063.123044875,0.4997711181640625,0.557708740234375,-0.20928955078125,1,0.96
2020-05-16 12:42:06.403 -0400,11063.192889875,0.2138824462890625,0.6658172607421875,-0.2159271240234375,1,0.96
2020-05-16 12:42:06.473 -0400,11063.262732875,0.197723388671875,0.482208251953125,-0.1555328369140625,1,0.96
2020-05-16 12:42:06.543 -0400,11063.332577875,0.9070587158203125,0.86981201171875,-0.0779876708984375,1,0.96
2020-05-16 12:42:06.613 -0400,11063.402427875,1.655807495117188,1.32232666015625,-0.3668975830078125,1,0.96
2020-05-16 12:42:06.683 -0400,11063.47227275,2.122802734375,0.809783935546875,-0.2276458740234375,1,0.96
2020-05-16 12:42:06.752 -0400,11063.54211575,1.83538818359375,0.5338287353515625,-0.2165985107421875,1,0.96
2020-05-16 12:42:06.822 -0400,11063.61195875,0.9912261962890625,0.275726318359375,-0.230621337890625,1,0.96
2020-05-16 12:42:06.892 -0400,11063.68180075,0.709625244140625,0.2570648193359375,-0.1013641357421875,1,0.96
2020-05-16 12:42:06.962 -0400,11063.75164375,0.5027923583984375,0.0621795654296875,0.0166015625,1,0.96
2020-05-16 12:42:07.032 -0400,11063.82149075,0.3054656982421875,0.0694580078125,-0.001495361328125,1,0.96
2020-05-16 12:42:07.102 -0400,11063.89133375,0.510986328125,0.2259368896484375,0.1182861328125,1,0.96
2020-05-16 12:42:07.171 -0400,11063.96117875,0.868255615234375,0.7896881103515625,-0.055816650390625,1,0.96
2020-05-16 12:42:07.243 -0400,11064.03101975,1.723480224609375,0.787445068359375,-0.759429931640625,1,0.96
2020-05-16 12:42:07.311 -0400,11064.10085975,1.5382080078125,0.7253265380859375,-0.392364501953125,1,0.96
2020-05-16 12:42:07.381 -0400,11064.17070775,1.036773681640625,0.60687255859375,-0.3607635498046875,1,0.96
2020-05-16 12:42:07.451 -0400,11064.24055675,0.6500091552734375,0.8421478271484375,-0.3413848876953125,1,0.96
2020-05-16 12:42:07.521 -0400,11064.31040475,0.4498138427734375,1.020233154296875,-0.3209686279296875,1,0.96
2020-05-16 12:42:07.590 -0400,11064.38024975,0.650604248046875,1.074188232421875,-0.31402587890625,1,0.96
2020-05-16 12:42:07.660 -0400,11064.45009704167,1.268173217773438,0.9310760498046875,-0.41424560546875,1,0.96
2020-05-16 12:42:07.730 -0400,11064.51994704167,2.301956176757812,0.79132080078125,-0.1714630126953125,1,0.96
2020-05-16 12:42:07.800 -0400,11064.58979404167,2.47344970703125,0.4671630859375,-0.0918731689453125,1,0.96
2020-05-16 12:42:07.870 -0400,11064.65963804167,1.339004516601562,0.4771270751953125,-0.146240234375,1,0.96
2020-05-16 12:42:07.940 -0400,11064.72948004167,0.9816131591796875,0.4111785888671875,0.064208984375,1,0.96
2020-05-16 12:42:08.010 -0400,11064.79932404167,0.835113525390625,0.133697509765625,0.0821075439453125,1,0.96
2020-05-16 12:42:08.079 -0400,11064.86916504167,0.6215362548828125,-0.0203094482421875,0.0928192138671875,1,0.96
2020-05-16 12:42:08.149 -0400,11064.93901004167,0.382293701171875,0.06182861328125,0.1004180908203125,1,0.96
2020-05-16 12:42:08.219 -0400,11065.00885504167,0.5249481201171875,0.555267333984375,0.1396636962890625,1,0.96
2020-05-16 12:42:08.289 -0400,11065.07869904167,1.356292724609375,0.87445068359375,-0.63922119140625,1,0.96
2020-05-16 12:42:08.359 -0400,11065.14854304167,1.639480590820312,0.990020751953125,-0.400970458984375,1,0.96
2020-05-16 12:42:08.429 -0400,11065.21838804167,1.175003051757812,0.7001953125,-0.4365081787109375,1,0.96
2020-05-16 12:42:08.498 -0400,11065.28823304167,0.7791748046875,0.89959716796875,-0.28680419921875,1,0.96
2020-05-16 12:42:08.568 -0400,11065.35808104167,0.8028411865234375,1.045623779296875,-0.1529693603515625,1,0.96
2020-05-16 12:42:08.638 -0400,11065.42793004167,0.9813232421875,1.109146118164062,-0.1510162353515625,1,0.96
2020-05-16 12:42:08.708 -0400,11065.4977755,1.346145629882812,1.15411376953125,-0.3344268798828125,1,0.96
2020-05-16 12:42:08.778 -0400,11065.5676305,1.991912841796875,0.785675048828125,-0.199615478515625,1,0.96
2020-05-16 12:42:08.848 -0400,11065.6374825,1.742584228515625,0.4986419677734375,-0.1172637939453125,1,0.96
2020-05-16 12:42:08.918 -0400,11065.7073325,1.042526245117188,0.457733154296875,-0.1101837158203125,1,0.96
2020-05-16 12:42:08.987 -0400,11065.7771825,0.6991119384765625,0.310302734375,0.038848876953125,1,0.96
2020-05-16 12:42:09.057 -0400,11065.8470285,0.7828826904296875,0.2127838134765625,0.02685546875,1,0.96
2020-05-16 12:42:09.127 -0400,11065.9168765,0.8590850830078125,0.1456298828125,0.1345062255859375,1,0.96
2020-05-16 12:42:09.197 -0400,11065.9867215,0.62713623046875,0.2265472412109375,0.156158447265625,1,0.96
2020-05-16 12:42:09.267 -0400,11066.0565675,0.731201171875,0.582794189453125,-0.1773529052734375,1,0.96
2020-05-16 12:42:09.337 -0400,11066.1264095,1.535446166992188,0.7047271728515625,-0.52618408203125,1,0.96
2020-05-16 12:42:09.407 -0400,11066.1962535,1.54034423828125,0.7930755615234375,-0.508514404296875,1,0.96
2020-05-16 12:42:09.476 -0400,11066.2660975,0.7973175048828125,0.5635528564453125,-0.3367919921875,1,0.96
2020-05-16 12:42:09.546 -0400,11066.3359435,0.5891265869140625,0.673065185546875,-0.38568115234375,1,0.96
2020-05-16 12:42:09.616 -0400,11066.4057895,0.723114013671875,0.87371826171875,-0.4154052734375,1,0.96
2020-05-16 12:42:09.686 -0400,11066.475639875,1.003616333007812,0.9121856689453125,-0.4051513671875,1,0.96
2020-05-16 12:42:09.756 -0400,11066.545488875,2.050827026367188,0.9521026611328125,-0.605438232421875,1,0.96
2020-05-16 12:42:09.826 -0400,11066.615338875,1.671890258789062,0.6495208740234375,-0.2132568359375,1,0.96
2020-05-16 12:42:09.895 -0400,11066.685183875,1.69549560546875,0.5975494384765625,-0.103240966796875,1,0.96
2020-05-16 12:42:09.965 -0400,11066.755026875,0.7792510986328125,0.2344818115234375,-0.004425048828125,1,0.96
2020-05-16 12:42:10.035 -0400,11066.824877875,0.5659637451171875,0.2900238037109375,0.0523681640625,1,0.96
2020-05-16 12:42:10.105 -0400,11066.894722875,0.8864288330078125,0.2544097900390625,0.0955352783203125,1,0.96
2020-05-16 12:42:10.175 -0400,11066.964566875,0.97564697265625,0.23016357421875,0.1244659423828125,1,0.96
2020-05-16 12:42:10.245 -0400,11067.034413875,0.6988677978515625,0.2659149169921875,0.1194915771484375,1,0.96
2020-05-16 12:42:10.314 -0400,11067.104261875,0.71002197265625,0.539642333984375,-0.18212890625,1,0.96
2020-05-16 12:42:10.385 -0400,11067.174105875,1.068557739257812,0.9688262939453125,-0.8319091796875,1,0.96
2020-05-16 12:42:10.454 -0400,11067.243948875,1.60858154296875,0.7617645263671875,-0.5480804443359375,1,0.96
2020-05-16 12:42:10.524 -0400,11067.313791875,0.74334716796875,0.279541015625,-0.589996337890625,1,0.96
2020-05-16 12:42:10.594 -0400,11067.383634875,0.48614501953125,0.57330322265625,-0.5290069580078125,1,0.96
2020-05-16 12:42:10.664 -0400,11067.4534775,0.3970947265625,0.5865936279296875,-0.38128662109375,1,0.96
2020-05-16 12:42:10.733 -0400,11067.5233165,0.6445159912109375,0.6880950927734375,-0.372711181640625,1,0.96
2020-05-16 12:42:10.803 -0400,11067.5931585,1.080413818359375,0.919097900390625,-0.4732513427734375,1,0.96
2020-05-16 12:42:10.873 -0400,11067.6630045,1.64398193359375,0.6249542236328125,-0.311370849609375,1,0.96
2020-05-16 12:42:10.943 -0400,11067.7328455,2.027374267578125,0.383575439453125,-0.33538818359375,1,0.96
2020-05-16 12:42:11.013 -0400,11067.8026875,1.24505615234375,0.433135986328125,-0.2840576171875,1,0.96
2020-05-16 12:42:11.083 -0400,11067.8725295,0.899688720703125,0.42279052734375,-0.1761016845703125,1,0.96
2020-05-16 12:42:11.153 -0400,11067.9423715,0.658294677734375,0.1619720458984375,-0.053375244140625,1,0.96
2020-05-16 12:42:11.222 -0400,11068.0122135,0.5156097412109375,0.1177215576171875,-0.039154052734375,1,0.96
2020-05-16 12:42:11.292 -0400,11068.0820515,0.546875,0.2826690673828125,0.019012451171875,1,0.96
2020-05-16 12:42:11.366 -0400,11068.1518895,0.5665740966796875,0.7855987548828125,-0.0475616455078125,1,0.96
2020-05-16 12:42:11.432 -0400,11068.2217295,0.4550628662109375,1.589828491210938,-0.3096771240234375,1,0.96
2020-05-16 12:42:11.502 -0400,11068.2915655,0.65460205078125,0.9348297119140625,-0.7099761962890625,1,0.96
2020-05-16 12:42:11.572 -0400,11068.3614045,0.392425537109375,0.76251220703125,-0.39581298828125,1,0.96
2020-05-16 12:42:11.642 -0400,11068.4312445,0.2115325927734375,0.7760772705078125,-0.383453369140625,1,0.96
2020-05-16 12:42:11.711 -0400,11068.50108679167,0.1576080322265625,0.687469482421875,-0.25335693359375,1,0.96
2020-05-16 12:42:11.781 -0400,11068.57092579167,0.3580169677734375,1.04974365234375,-0.10980224609375,1,0.96
2020-05-16 12:42:11.851 -0400,11068.64076579167,0.271026611328125,0.7171783447265625,-0.0565948486328125,1,0.96
2020-05-16 12:42:11.921 -0400,11068.71060379167,0.6813507080078125,1.077713012695312,-0.1029205322265625,1,0.96
2020-05-16 12:42:11.991 -0400,11068.78044479167,2.399383544921875,1.696258544921875,0.0019073486328125,1,0.96
2020-05-16 12:42:12.060 -0400,11068.85029079167,1.165435791015625,0.280914306640625,-0.2812347412109375,1,0.96
2020-05-16 12:42:12.130 -0400,11068.92013579167,0.5564727783203125,0.538330078125,-0.2914886474609375,1,0.96
2020-05-16 12:42:12.200 -0400,11068.98998179167,0.3041534423828125,0.2316741943359375,-0.0505828857421875,1,0.96
2020-05-16 12:42:12.270 -0400,11069.05982879167,0.2165069580078125,0.0790557861328125,0.0808563232421875,1,0.96
2020-05-16 12:42:12.340 -0400,11069.12967379167,0.4963836669921875,0.1687469482421875,0.0091400146484375,1,0.96
2020-05-16 12:42:12.410 -0400,11069.19951679167,1.30853271484375,0.79510498046875,-0.0034027099609375,1,0.96
2020-05-16 12:42:12.480 -0400,11069.26935779167,1.42364501953125,0.937835693359375,-0.3459625244140625,1,0.96
2020-05-16 12:42:12.549 -0400,11069.33919979167,0.996063232421875,0.6768035888671875,-0.5108642578125,1,0.96
2020-05-16 12:42:12.619 -0400,11069.40904279167,0.649566650390625,0.69659423828125,-0.1950836181640625,1,0.96
2020-05-16 12:42:12.689 -0400,11069.47888866667,0.2588653564453125,0.7015838623046875,-0.1628570556640625,1,0.96
2020-05-16 12:42:12.759 -0400,11069.54873366667,-0.01226806640625,0.7458953857421875,-0.0631561279296875,1,0.96
2020-05-16 12:42:12.829 -0400,11069.61858066667,0.1882781982421875,0.7689361572265625,0.0872650146484375,1,0.96
2020-05-16 12:42:12.899 -0400,11069.68843266667,1.922409057617188,1.669174194335938,-0.1088714599609375,1,0.96
2020-05-16 12:42:12.969 -0400,11069.75828766667,1.896896362304688,0.6466217041015625,0.0482940673828125,1,0.96
2020-05-16 12:42:13.038 -0400,11069.82813766667,1.058670043945312,0.410369873046875,-0.311553955078125,1,0.96
2020-05-16 12:42:13.108 -0400,11069.89798866667,0.7093353271484375,0.4186553955078125,-0.0793914794921875,1,0.96
2020-05-16 12:42:13.178 -0400,11069.96784166667,0.433868408203125,0.1467742919921875,-0.033477783203125,1,0.96
2020-05-16 12:42:13.248 -0400,11070.03769566667,0.2978973388671875,-0.0072784423828125,-0.0099029541015625,1,0.96
2020-05-16 12:42:13.318 -0400,11070.10754966667,0.2649993896484375,0.0815277099609375,0.036712646484375,1,0.96
2020-05-16 12:42:13.388 -0400,11070.17740266667,0.8459014892578125,0.7274627685546875,0.037384033203125,1,0.96
2020-05-16 12:42:13.458 -0400,11070.24725266667,1.501815795898438,1.108718872070312,-0.3895416259765625,1,0.96
2020-05-16 12:42:13.528 -0400,11070.31710266667,1.561767578125,1.08526611328125,-0.6061553955078125,1,0.96
2020-05-16 12:42:13.597 -0400,11070.38695366667,0.9102935791015625,0.545684814453125,-0.1412506103515625,1,0.96
2020-05-16 12:42:13.667 -0400,11070.45680129167,0.4541015625,0.483612060546875,-0.2370147705078125,1,0.96
2020-05-16 12:42:13.737 -0400,11070.52664729167,0.269256591796875,0.6180572509765625,-0.12457275390625,1,0.96
2020-05-16 12:42:13.807 -0400,11070.59649929167,0.4828338623046875,0.65997314453125,-0.1258697509765625,1,0.96
2020-05-16 12:42:13.877 -0400,11070.66634429167,1.115676879882812,0.7662506103515625,-0.066009521484375,1,0.96
2020-05-16 12:42:13.947 -0400,11070.73619229167,1.949996948242188,0.77117919921875,0.0883331298828125,1,0.96
2020-05-16 12:42:14.016 -0400,11070.80604629167,1.58941650390625,0.5758209228515625,-0.339874267578125,1,0.96
2020-05-16 12:42:14.086 -0400,11070.87589729167,1.071533203125,0.56182861328125,-0.149810791015625,1,0.96
2020-05-16 12:42:14.156 -0400,11070.94574729167,0.700714111328125,0.191802978515625,-0.06988525390625,1,0.96
2020-05-16 12:42:14.226 -0400,11071.01559929167,0.426910400390625,0.0782470703125,-0.019561767578125,1,0.96
2020-05-16 12:42:14.296 -0400,11071.08544729167,0.45355224609375,0.0762176513671875,0.0269775390625,1,0.96
2020-05-16 12:42:14.366 -0400,11071.15529629167,0.7259521484375,0.32562255859375,0.0637664794921875,1,0.96
2020-05-16 12:42:14.435 -0400,11071.22514629167,1.334213256835938,1.193130493164062,-0.027587890625,1,0.96
2020-05-16 12:42:14.505 -0400,11071.29499529167,1.66156005859375,0.6396484375,-0.633087158203125,1,0.96
2020-05-16 12:42:14.575 -0400,11071.36484229167,1.2169189453125,0.7613677978515625,-0.116363525390625,1,0.96
2020-05-16 12:42:14.645 -0400,11071.43469029167,0.6654205322265625,0.3885650634765625,-0.235198974609375,1,0.96
2020-05-16 12:42:14.715 -0400,11071.50453516667,0.46990966796875,0.663665771484375,-0.2296905517578125,1,0.96
2020-05-16 12:42:14.785 -0400,11071.57438316667,0.4505767822265625,0.74884033203125,-0.184906005859375,1,0.96
2020-05-16 12:42:14.854 -0400,11071.64423116667,0.8658294677734375,1.088836669921875,-0.0842132568359375,1,0.96
2020-05-16 12:42:14.924 -0400,11071.71407916667,1.7845458984375,0.9686279296875,-0.3563079833984375,1,0.96
2020-05-16 12:42:14.994 -0400,11071.78392216667,1.792999267578125,0.78289794921875,-0.2110443115234375,1,0.96
2020-05-16 12:42:15.064 -0400,11071.85376816667,1.371444702148438,0.5682525634765625,-0.2540435791015625,1,0.96
2020-05-16 12:42:15.134 -0400,11071.92361216667,0.9178466796875,0.2212371826171875,-0.1334381103515625,1,0.96
2020-05-16 12:42:15.204 -0400,11071.99346016667,0.70574951171875,0.159698486328125,-0.0240325927734375,1,0.96
2020-05-16 12:42:15.274 -0400,11072.06330316667,0.667755126953125,0.0475616455078125,0.0101470947265625,1,0.96
2020-05-16 12:42:15.343 -0400,11072.13314816667,0.5758514404296875,0.0605926513671875,0.121612548828125,1,0.96
2020-05-16 12:42:15.413 -0400,11072.20299416667,0.9225006103515625,0.7962799072265625,0.1097259521484375,1,0.96
2020-05-16 12:42:15.483 -0400,11072.27284216667,1.2025146484375,0.90753173828125,-0.5869598388671875,1,0.96
2020-05-16 12:42:15.553 -0400,11072.34268516667,1.32196044921875,1.137893676757812,-0.0754241943359375,1,0.96
2020-05-16 12:42:15.623 -0400,11072.41252716667,0.65716552734375,0.9079742431640625,-0.1309814453125,1,0.96
2020-05-16 12:42:15.693 -0400,11072.482371375,0.3903350830078125,0.70306396484375,-0.11761474609375,1,0.96
2020-05-16 12:42:15.762 -0400,11072.552214375,0.1813201904296875,0.70855712890625,0.07855224609375,1,0.96
2020-05-16 12:42:15.832 -0400,11072.622059375,0.46307373046875,1.095962524414062,0.0596160888671875,1,0.96
2020-05-16 12:42:15.902 -0400,11072.691907375,2.152725219726562,1.879180908203125,-0.0669708251953125,1,0.96
2020-05-16 12:42:15.972 -0400,11072.761748375,2.016937255859375,0.191253662109375,-0.3412017822265625,1,0.96
2020-05-16 12:42:16.042 -0400,11072.831590375,1.1917724609375,0.43170166015625,-0.1727294921875,1,0.96
2020-05-16 12:42:16.112 -0400,11072.901431375,0.8046112060546875,0.407958984375,-0.0765380859375,1,0.96
2020-05-16 12:42:16.182 -0400,11072.971271375,0.55108642578125,0.167877197265625,0.0011138916015625,1,0.96
2020-05-16 12:42:16.252 -0400,11073.041112375,0.586639404296875,0.039642333984375,0.0569610595703125,1,0.96
2020-05-16 12:42:16.321 -0400,11073.110953375,0.677825927734375,0.27947998046875,0.12786865234375,1,0.96
2020-05-16 12:42:16.391 -0400,11073.180799375,0.5795135498046875,0.658355712890625,-0.119110107421875,1,0.96
2020-05-16 12:42:16.461 -0400,11073.250643375,0.533111572265625,0.7777557373046875,-0.2858428955078125,1,0.96
2020-05-16 12:42:16.531 -0400,11073.320488375,1.442886352539062,0.812591552734375,-0.3189849853515625,1,0.96
2020-05-16 12:42:16.601 -0400,11073.390331375,1.039932250976562,0.8988494873046875,-0.4262237548828125,1,0.96
2020-05-16 12:42:16.671 -0400,11073.460172125,0.6673736572265625,0.2777099609375,-0.2621917724609375,1,0.96
2020-05-16 12:42:16.740 -0400,11073.530013125,0.486053466796875,0.435333251953125,-0.303924560546875,1,0.96
2020-05-16 12:42:16.810 -0400,11073.599850125,0.3198699951171875,0.63568115234375,-0.212982177734375,1,0.96
2020-05-16 12:42:16.880 -0400,11073.669695125,0.5877838134765625,0.8311614990234375,-0.257965087890625,1,0.96
2020-05-16 12:42:16.950 -0400,11073.739541125,1.981948852539062,1.06231689453125,-0.5738983154296875,1,0.96
2020-05-16 12:42:17.020 -0400,11073.809391125,1.81719970703125,0.6233367919921875,-0.15411376953125,1,0.96
2020-05-16 12:42:17.090 -0400,11073.879238125,1.397872924804688,0.3690948486328125,-0.3082275390625,1,0.96
2020-05-16 12:42:17.159 -0400,11073.949088125,0.995880126953125,0.2968597412109375,-0.2042694091796875,1,0.96
2020-05-16 12:42:17.229 -0400,11074.018938125,0.4658050537109375,0.1331024169921875,-0.08441162109375,1,0.96
2020-05-16 12:42:17.299 -0400,11074.088785125,0.199676513671875,0.00543212890625,-0.0138092041015625,1,0.96
2020-05-16 12:42:17.369 -0400,11074.158632125,0.30218505859375,-0.0062408447265625,0.0152130126953125,1,0.96
2020-05-16 12:42:17.439 -0400,11074.228476125,0.849517822265625,0.7173919677734375,0.147186279296875,1,0.96
2020-05-16 12:42:17.509 -0400,11074.298319125,1.215835571289062,1.0330810546875,-0.5541839599609375,1,0.96
2020-05-16 12:42:17.579 -0400,11074.368162125,1.4854736328125,0.731353759765625,-0.65789794921875,1,0.96
2020-05-16 12:42:17.648 -0400,11074.438001125,0.739990234375,0.510040283203125,-0.131622314453125,1,0.96
2020-05-16 12:42:17.718 -0400,11074.5078425,0.4282379150390625,0.4437255859375,-0.214508056640625,1,0.96
2020-05-16 12:42:17.788 -0400,11074.5776805,0.2733154296875,0.614471435546875,-0.216522216796875,1,0.96
2020-05-16 12:42:17.858 -0400,11074.6475225,0.706085205078125,0.942138671875,-0.20166015625,1,0.96
2020-05-16 12:42:17.928 -0400,11074.7173655,1.727157592773438,1.126861572265625,-0.201690673828125,1,0.96
2020-05-16 12:42:17.997 -0400,11074.7872055,1.819839477539062,0.2234649658203125,-0.156768798828125,1,0.96
2020-05-16 12:42:18.067 -0400,11074.8570455,1.856903076171875,0.5751800537109375,-0.1542205810546875,1,0.96
2020-05-16 12:42:18.137 -0400,11074.9268845,1.262725830078125,0.482330322265625,-0.3428955078125,1,0.96
2020-05-16 12:42:18.207 -0400,11074.9967255,0.9221954345703125,0.2083587646484375,-0.1215667724609375,1,0.96
2020-05-16 12:42:18.277 -0400,11075.0665625,0.5560302734375,-0.1048126220703125,-0.0896759033203125,1,0.96
2020-05-16 12:42:18.347 -0400,11075.1363985,0.241546630859375,-0.121673583984375,-0.0555267333984375,1,0.96
2020-05-16 12:42:18.416 -0400,11075.2062355,-0.0668792724609375,0.032135009765625,0.008514404296875,1,0.96
2020-05-16 12:42:18.486 -0400,11075.2760695,0.071685791015625,1.293289184570312,-0.0549163818359375,1,0.96
2020-05-16 12:42:18.556 -0400,11075.3459095,1.223373413085938,1.384918212890625,-0.3678131103515625,1,0.96
2020-05-16 12:42:18.626 -0400,11075.4157495,1.10198974609375,1.398452758789062,-0.7274627685546875,1,0.96
2020-05-16 12:42:18.696 -0400,11075.485586375,0.326202392578125,0.7006072998046875,-0.2883148193359375,1,0.96
2020-05-16 12:42:18.766 -0400,11075.555419375,0.08184814453125,0.63519287109375,-0.3252410888671875,1,0.96
2020-05-16 12:42:18.836 -0400,11075.625253375,-0.0945892333984375,0.5069122314453125,-0.16717529296875,1,0.96
2020-05-16 12:42:18.905 -0400,11075.695093375,0.0649566650390625,0.6876068115234375,-0.0983734130859375,1,0.96
2020-05-16 12:42:18.975 -0400,11075.764931375,3.259353637695312,1.5596923828125,-0.1313323974609375,1,0.96
2020-05-16 12:42:19.045 -0400,11075.834777375,1.787994384765625,0.6951446533203125,-0.1351165771484375,1,0.96
2020-05-16 12:42:19.115 -0400,11075.904617375,1.127304077148438,0.472900390625,-0.3915252685546875,1,0.96
2020-05-16 12:42:19.185 -0400,11075.974458375,0.8005523681640625,0.6025390625,-0.11456298828125,1,0.96
2020-05-16 12:42:19.255 -0400,11076.044299375,0.4475250244140625,0.022186279296875,-0.07147216796875,1,0.96
2020-05-16 12:42:19.324 -0400,11076.114137375,0.228363037109375,-0.105255126953125,0.0034637451171875,1,0.96
2020-05-16 12:42:19.394 -0400,11076.183975375,0.140625,0.0655670166015625,0.0206146240234375,1,0.96
2020-05-16 12:42:19.464 -0400,11076.253815375,0.4325408935546875,0.6927947998046875,-0.057159423828125,1,0.96
2020-05-16 12:42:19.534 -0400,11076.323659375,1.876571655273438,1.22686767578125,-0.339508056640625,1,0.96
2020-05-16 12:42:19.604 -0400,11076.393497375,1.67413330078125,0.5936126708984375,-0.5382537841796875,1,0.96
2020-05-16 12:42:19.674 -0400,11076.46334179167,0.63836669921875,0.207611083984375,-0.385589599609375,1,0.96
2020-05-16 12:42:19.743 -0400,11076.53317979167,0.2880096435546875,0.571258544921875,-0.1259002685546875,1,0.96
2020-05-16 12:42:19.813 -0400,11076.60301679167,0.080291748046875,0.4986114501953125,-0.03118896484375,1,0.96
2020-05-16 12:42:19.883 -0400,11076.67285179167,0.3043060302734375,0.85064697265625,-0.0004730224609375,1,0.96
2020-05-16 12:42:19.953 -0400,11076.74268379167,0.7344970703125,0.864410400390625,0.2455291748046875,1,0.96
2020-05-16 12:42:20.024 -0400,11076.81252179167,2.01300048828125,1.301528930664062,-0.1662445068359375,1,0.96
2020-05-16 12:42:20.093 -0400,11076.88235979167,2.222198486328125,0.595428466796875,0.1940765380859375,1,0.96
2020-05-16 12:42:20.162 -0400,11076.95219679167,1.15289306640625,0.2506866455078125,-0.2637176513671875,1,0.96
2020-05-16 12:42:20.232 -0400,11077.02203379167,0.5752105712890625,0.4061431884765625,-0.121978759765625,1,0.96
2020-05-16 12:42:20.306 -0400,11077.09187379167,0.39691162109375,0.1688385009765625,0.0073089599609375,1,0.96
2020-05-16 12:42:20.372 -0400,11077.16171279167,0.5296783447265625,0.08331298828125,-0.0591888427734375,1,0.96
2020-05-16 12:42:20.442 -0400,11077.23155779167,0.8575592041015625,0.5279541015625,0.06524658203125,1,0.96
2020-05-16 12:42:20.512 -0400,11077.30140079167,0.9846649169921875,0.5519866943359375,-0.1090850830078125,1,0.96
2020-05-16 12:42:20.581 -0400,11077.37124079167,0.84893798828125,0.528839111328125,-0.4274444580078125,1,0.96
2020-05-16 12:42:20.651 -0400,11077.44108379167,1.292510986328125,0.6321258544921875,-0.2160491943359375,1,0.96
2020-05-16 12:42:20.721 -0400,11077.510923375,1.131439208984375,0.57305908203125,-0.2564849853515625,1,0.96
2020-05-16 12:42:20.791 -0400,11077.580765375,0.7731781005859375,0.452117919921875,-0.19793701171875,1,0.96
2020-05-16 12:42:20.861 -0400,11077.650608375,0.689727783203125,0.5191802978515625,-0.1830902099609375,1,0.96
2020-05-16 12:42:20.931 -0400,11077.720449375,0.5133819580078125,0.50079345703125,-0.2182769775390625,1,0.96
2020-05-16 12:42:21.001 -0400,11077.790290375,0.2647857666015625,0.584991455078125,-0.0710601806640625,1,0.96
2020-05-16 12:42:21.070 -0400,11077.860129375,0.1668701171875,0.719482421875,-0.1212310791015625,1,0.96
2020-05-16 12:42:21.140 -0400,11077.929967375,2.872146606445312,1.554367065429688,-0.568939208984375,1,0.96
2020-05-16 12:42:21.210 -0400,11077.999805375,1.655731201171875,0.6923065185546875,-0.3674468994140625,1,0.96
2020-05-16 12:42:21.280 -0400,11078.069643375,1.35894775390625,0.5564117431640625,-0.202880859375,1,0.96
2020-05-16 12:42:21.350 -0400,11078.139481375,0.6265869140625,0.2855682373046875,0.002410888671875,1,0.96
2020-05-16 12:42:21.420 -0400,11078.209321375,0.2561187744140625,0.04437255859375,-0.0063934326171875,1,0.96
2020-05-16 12:42:21.489 -0400,11078.279156375,0.311248779296875,0.0835418701171875,-0.0169830322265625,1,0.96
2020-05-16 12:42:21.559 -0400,11078.348990375,0.9680938720703125,0.0385894775390625,0.1667022705078125,1,0.96
2020-05-16 12:42:21.629 -0400,11078.418826375,1.83148193359375,1.429718017578125,0.278289794921875,1,0.96
2020-05-16 12:42:21.699 -0400,11078.48866404167,1.51580810546875,1.21197509765625,-1.350738525390625,1,0.96
2020-05-16 12:42:21.769 -0400,11078.55850104167,0.8603973388671875,0.357086181640625,0.7066192626953125,1,0.96
2020-05-16 12:42:21.839 -0400,11078.62833604167,0.3928985595703125,0.385467529296875,-0.1423187255859375,1,0.96
2020-05-16 12:42:21.909 -0400,11078.69817304167,0.28509521484375,0.6546630859375,-0.3149566650390625,1,0.96
2020-05-16 12:42:21.978 -0400,11078.76801004167,0.5413970947265625,0.90447998046875,-0.391387939453125,1,0.96
2020-05-16 12:42:22.048 -0400,11078.83784304167,1.254379272460938,1.293258666992188,-0.1914520263671875,1,0.96
2020-05-16 12:42:22.118 -0400,11078.90767804167,1.906906127929688,-0.27947998046875,-0.0725860595703125,1,0.96
2020-05-16 12:42:22.188 -0400,11078.97751504167,2.0880126953125,0.7972412109375,-0.0992889404296875,1,0.96
2020-05-16 12:42:22.258 -0400,11079.04735204167,1.281890869140625,0.6101837158203125,-0.416778564453125,1,0.96
2020-05-16 12:42:22.327 -0400,11079.11719104167,0.969329833984375,0.3363494873046875,-0.0709228515625,1,0.96
2020-05-16 12:42:22.397 -0400,11079.18702804167,0.70269775390625,-0.121429443359375,0.072723388671875,1,0.96
2020-05-16 12:42:22.467 -0400,11079.25686304167,0.41412353515625,-0.2343597412109375,0.0423736572265625,1,0.96
2020-05-16 12:42:22.537 -0400,11079.32669804167,0.0493621826171875,0.0087432861328125,0.0937347412109375,1,0.96
2020-05-16 12:42:22.607 -0400,11079.39653404167,0.1983795166015625,0.6708984375,0.28875732421875,1,0.96
2020-05-16 12:42:22.677 -0400,11079.46637225,1.096298217773438,1.101516723632812,-0.7397308349609375,1,0.96
2020-05-16 12:42:22.746 -0400,11079.53620625,1.63604736328125,0.5035858154296875,-0.615386962890625,1,0.96
2020-05-16 12:42:22.816 -0400,11079.60603925,0.5431976318359375,1.407333374023438,-0.7061004638671875,1,0.96
2020-05-16 12:42:22.886 -0400,11079.67587025,0.0978240966796875,0.361663818359375,-0.3443145751953125,1,0.96
2020-05-16 12:42:22.956 -0400,11079.74570325,-0.0194854736328125,0.521697998046875,-0.0233917236328125,1,0.96
2020-05-16 12:42:23.026 -0400,11079.81553825,0.417022705078125,0.629669189453125,-0.0081024169921875,1,0.96
2020-05-16 12:42:23.096 -0400,11079.88537525,0.9282073974609375,0.7454376220703125,0.00189208984375,1,0.96
2020-05-16 12:42:23.165 -0400,11079.95521125,2.601303100585938,1.17864990234375,0.018951416015625,1,0.96
2020-05-16 12:42:23.246 -0400,11080.02504825,1.825576782226562,0.6113433837890625,-0.47796630859375,1,0.96
2020-05-16 12:42:23.305 -0400,11080.09488625,1.086166381835938,0.4062957763671875,-0.2496185302734375,1,0.96
2020-05-16 12:42:23.375 -0400,11080.16472325,0.6606597900390625,0.27398681640625,-0.10382080078125,1,0.96
2020-05-16 12:42:23.445 -0400,11080.23456025,0.3650054931640625,0.13555908203125,-0.0602874755859375,1,0.96
2020-05-16 12:42:23.514 -0400,11080.30439825,0.30145263671875,-0.0158843994140625,0.00018310546875,1,0.96
2020-05-16 12:42:23.584 -0400,11080.37423825,0.313812255859375,0.019439697265625,0.0923614501953125,1,0.96
2020-05-16 12:42:23.654 -0400,11080.44407825,1.016204833984375,1.091705322265625,0.20147705078125,1,0.96
2020-05-16 12:42:23.724 -0400,11080.513917,1.281509399414062,0.8211212158203125,-0.875701904296875,1,0.96
2020-05-16 12:42:23.794 -0400,11080.583756,1.378692626953125,1.2586669921875,-0.04364013671875,1,0.96
2020-05-16 12:42:23.864 -0400,11080.653598,0.5729827880859375,0.304412841796875,-0.4915924072265625,1,0.96
2020-05-16 12:42:23.934 -0400,11080.72344,0.182403564453125,0.5435638427734375,-0.0274200439453125,1,0.96
2020-05-16 12:42:24.004 -0400,11080.793275,0.1613922119140625,0.5753936767578125,-0.0752410888671875,1,0.96
2020-05-16 12:42:24.073 -0400,11080.863115,0.3626861572265625,0.706695556640625,-0.071807861328125,1,0.96
2020-05-16 12:42:24.143 -0400,11080.932952,1.653945922851562,1.084823608398438,-0.2274322509765625,1,0.96
2020-05-16 12:42:24.213 -0400,11081.00279,1.982818603515625,0.4559326171875,0.3716278076171875,1,0.96
2020-05-16 12:42:24.283 -0400,11081.072632,1.836929321289062,0.4270477294921875,-0.1273651123046875,1,0.96
2020-05-16 12:42:24.353 -0400,11081.142477,1.049560546875,0.62591552734375,-0.0182647705078125,1,0.96
2020-05-16 12:42:24.423 -0400,11081.212321,0.616546630859375,0.22515869140625,0.1108856201171875,1,0.96
2020-05-16 12:42:24.492 -0400,11081.282161,0.3943634033203125,0.0294647216796875,0.0456695556640625,1,0.96
2020-05-16 12:42:24.562 -0400,11081.352001,0.3763275146484375,-0.0166015625,0.0429534912109375,1,0.96
2020-05-16 12:42:24.632 -0400,11081.421841,0.29803466796875,0.0475616455078125,0.15655517578125,1,0.96
2020-05-16 12:42:24.702 -0400,11081.49168141667,0.2763671875,0.5059814453125,0.0841064453125,1,0.96
2020-05-16 12:42:24.772 -0400,11081.56152541667,1.8013916015625,1.524490356445312,-0.0650482177734375,1,0.96
2020-05-16 12:42:24.842 -0400,11081.63136541667,1.767288208007812,1.443038940429688,-0.6226654052734375,1,0.96
2020-05-16 12:42:24.911 -0400,11081.70120441667,0.8928680419921875,0.8089752197265625,-0.1329193115234375,1,0.96
2020-05-16 12:42:24.981 -0400,11081.77104541667,0.384552001953125,0.6591033935546875,-0.2633819580078125,1,0.96
2020-05-16 12:42:25.051 -0400,11081.84088841667,-0.049468994140625,0.802734375,0.1197662353515625,1,0.96
2020-05-16 12:42:25.121 -0400,11081.91073441667,0.183258056640625,0.9436492919921875,0.1651763916015625,1,0.96
2020-05-16 12:42:25.191 -0400,11081.98058241667,3.02197265625,2.54998779296875,-0.2234039306640625,1,0.96
2020-05-16 12:42:25.261 -0400,11082.05042941667,2.239517211914062,-0.296630859375,-0.1685943603515625,1,0.96
2020-05-16 12:42:25.331 -0400,11082.12027641667,1.209457397460938,0.77886962890625,-0.1365966796875,1,0.96
2020-05-16 12:42:25.401 -0400,11082.19011441667,1.030654907226562,0.4796600341796875,0.0894317626953125,1,0.96
2020-05-16 12:42:25.470 -0400,11082.25995241667,0.511474609375,0.1119384765625,0.08697509765625,1,0.96
2020-05-16 12:42:25.540 -0400,11082.32979041667,0.3360443115234375,-0.1170654296875,0.052154541015625,1,0.96
2020-05-16 12:42:25.610 -0400,11082.39962941667,0.403167724609375,-0.0261688232421875,0.0751190185546875,1,0.96
2020-05-16 12:42:25.680 -0400,11082.46946525,0.32916259765625,0.16656494140625,0.0617828369140625,1,0.96
2020-05-16 12:42:25.749 -0400,11082.53930125,1.123367309570312,1.093048095703125,0.29541015625,1,0.96
2020-05-16 12:42:25.819 -0400,11082.60913825,1.9744873046875,1.21429443359375,-1.22039794921875,1,0.96
2020-05-16 12:42:25.889 -0400,11082.67897425,1.861083984375,0.814849853515625,-0.0914154052734375,1,0.96
2020-05-16 12:42:25.959 -0400,11082.74881325,0.759735107421875,0.67266845703125,-0.2949371337890625,1,0.96
2020-05-16 12:42:26.029 -0400,11082.81865025,0.4908447265625,0.669219970703125,-0.26910400390625,1,0.96
2020-05-16 12:42:26.099 -0400,11082.88848525,0.1306915283203125,0.5146026611328125,-0.1666717529296875,1,0.96
2020-05-16 12:42:26.168 -0400,11082.95832425,0.487640380859375,0.769622802734375,-0.1201324462890625,1,0.96
2020-05-16 12:42:26.238 -0400,11083.02816125,0.9385223388671875,1.289688110351562,0.011749267578125,1,0.96
2020-05-16 12:42:26.308 -0400,11083.09800025,2.070098876953125,0.6229248046875,-0.3611297607421875,1,0.96
2020-05-16 12:42:26.378 -0400,11083.16784025,2.573501586914062,0.59423828125,-0.15576171875,1,0.96
2020-05-16 12:42:26.448 -0400,11083.23767825,2.066085815429688,0.5396575927734375,-0.3901519775390625,1,0.96
2020-05-16 12:42:26.518 -0400,11083.30751325,1.3839111328125,0.257843017578125,-0.193939208984375,1,0.96
2020-05-16 12:42:26.588 -0400,11083.37735025,0.714752197265625,-0.1266937255859375,-0.0067291259765625,1,0.96
2020-05-16 12:42:26.657 -0400,11083.44718825,0.2429351806640625,-0.2507476806640625,0.0066986083984375,1,0.96
2020-05-16 12:42:26.727 -0400,11083.51702616667,0.06268310546875,-0.1424713134765625,-0.0490875244140625,1,0.96
2020-05-16 12:42:26.797 -0400,11083.58686216667,-0.1970062255859375,-0.1147003173828125,0.1242828369140625,1,0.96
2020-05-16 12:42:26.868 -0400,11083.65670516667,1.138885498046875,1.385757446289062,0.6095428466796875,1,0.96
2020-05-16 12:42:26.937 -0400,11083.72654316667,2.261932373046875,1.145904541015625,-1.4666748046875,1,0.96
2020-05-16 12:42:27.057 -0400,11083.84626716667,0.98956298828125,1.650390625,-0.36865234375,1,0.96
2020-05-16 12:42:27.177 -0400,11083.96598416667,0.1225433349609375,0.45452880859375,-0.0341949462890625,1,0.96
2020-05-16 12:42:27.326 -0400,11084.11563216667,0.6045989990234375,0.695068359375,0.2517852783203125,1,0.96
2020-05-16 12:42:27.398 -0400,11084.18547316667,3.300750732421875,1.870437622070312,0.4532318115234375,1,0.96
2020-05-16 12:42:27.466 -0400,11084.25531016667,2.175018310546875,0.45672607421875,-0.8041839599609375,1,0.96
2020-05-16 12:42:27.535 -0400,11084.32515016667,1.578079223632812,0.667816162109375,-0.159332275390625,1,0.96
2020-05-16 12:42:27.605 -0400,11084.39499316667,1.22637939453125,0.162994384765625,-0.1448211669921875,1,0.96
2020-05-16 12:42:27.675 -0400,11084.464834,0.62261962890625,-0.1949005126953125,0.044708251953125,1,0.96
2020-05-16 12:42:27.745 -0400,11084.534673,0.284393310546875,-0.1331329345703125,0.0347442626953125,1,0.96
2020-05-16 12:42:27.815 -0400,11084.604511,-0.008880615234375,0.013275146484375,-0.0666351318359375,1,0.96
2020-05-16 12:42:27.885 -0400,11084.674348,-0.32818603515625,0.205474853515625,0.000885009765625,1,0.96
2020-05-16 12:42:27.954 -0400,11084.744182,1.108963012695312,1.5081787109375,-0.14141845703125,1,0.96
2020-05-16 12:42:28.024 -0400,11084.814016,2.188644409179688,0.5385894775390625,-0.6215057373046875,1,0.96
2020-05-16 12:42:28.094 -0400,11084.883851,1.365554809570312,0.629486083984375,-0.243255615234375,1,0.96
2020-05-16 12:42:28.164 -0400,11084.953684,0.6746978759765625,0.7050933837890625,-0.157196044921875,1,0.96
2020-05-16 12:42:28.234 -0400,11085.023517,0.3549041748046875,0.4763031005859375,-0.2610015869140625,1,0.96
2020-05-16 12:42:28.304 -0400,11085.093357,0.242828369140625,0.5472259521484375,-0.1831207275390625,1,0.96
2020-05-16 12:42:28.374 -0400,11085.163198,0.6993255615234375,0.822418212890625,-0.2451629638671875,1,0.96
2020-05-16 12:42:28.443 -0400,11085.233035,2.726272583007812,1.4088134765625,-0.10601806640625,1,0.96
2020-05-16 12:42:28.513 -0400,11085.302872,2.118972778320312,0.2825469970703125,-0.449737548828125,1,0.96
2020-05-16 12:42:28.583 -0400,11085.372712,1.57135009765625,1.05828857421875,-0.2904205322265625,1,0.96
2020-05-16 12:42:28.653 -0400,11085.442554,1.163970947265625,0.310760498046875,-0.0689849853515625,1,0.96
2020-05-16 12:42:28.722 -0400,11085.51239516667,0.783477783203125,0.0396728515625,0.03582763671875,1,0.96
2020-05-16 12:42:28.792 -0400,11085.58224016667,0.545074462890625,0.0160980224609375,0.0104827880859375,1,0.96
2020-05-16 12:42:28.862 -0400,11085.65208116667,0.56097412109375,0.0449066162109375,0.14227294921875,1,0.96
2020-05-16 12:42:28.932 -0400,11085.72191916667,0.508697509765625,0.252838134765625,0.145416259765625,1,0.96
2020-05-16 12:42:29.002 -0400,11085.79175816667,1.076919555664062,1.538665771484375,-0.4556427001953125,1,0.96
2020-05-16 12:42:29.072 -0400,11085.86159816667,1.61370849609375,0.797454833984375,-0.5600738525390625,1,0.96
2020-05-16 12:42:29.142 -0400,11085.93143716667,1.278594970703125,0.438385009765625,-0.340423583984375,1,0.96
2020-05-16 12:42:29.212 -0400,11086.00127916667,0.531768798828125,0.5572662353515625,-0.422393798828125,1,0.96
2020-05-16 12:42:29.281 -0400,11086.07111916667,0.3952789306640625,0.563232421875,-0.3227996826171875,1,0.96
2020-05-16 12:42:29.351 -0400,11086.14095616667,0.5296630859375,0.808807373046875,-0.2578125,1,0.96
2020-05-16 12:42:29.421 -0400,11086.21079416667,0.866790771484375,0.8759613037109375,-0.095794677734375,1,0.96
2020-05-16 12:42:29.491 -0400,11086.28063416667,2.0096435546875,0.7550506591796875,-0.225128173828125,1,0.96
2020-05-16 12:42:29.561 -0400,11086.35047016667,2.149002075195312,0.216766357421875,-0.0677642822265625,1,0.96
2020-05-16 12:42:29.630 -0400,11086.42030916667,1.23223876953125,0.4541778564453125,-0.2577056884765625,1,0.96
2020-05-16 12:42:29.700 -0400,11086.49014875,0.8270111083984375,0.410736083984375,-0.1071929931640625,1,0.96
2020-05-16 12:42:29.770 -0400,11086.55998675,0.5999908447265625,0.1327056884765625,0.0144195556640625,1,0.96
2020-05-16 12:42:29.840 -0400,11086.62982375,0.40478515625,-0.0248260498046875,0.0141448974609375,1,0.96
2020-05-16 12:42:29.910 -0400,11086.69965975,0.217498779296875,0.109100341796875,0.0618896484375,1,0.96
2020-05-16 12:42:29.980 -0400,11086.76950075,0.513824462890625,0.273529052734375,-0.0454559326171875,1,0.96
2020-05-16 12:42:30.050 -0400,11086.83934275,1.631271362304688,1.159332275390625,-0.4035186767578125,1,0.96
2020-05-16 12:42:30.119 -0400,11086.90918075,2.063339233398438,0.8827972412109375,-0.88580322265625,1,0.96
2020-05-16 12:42:30.189 -0400,11086.97901875,1.1495361328125,1.133697509765625,-0.5107421875,1,0.96
2020-05-16 12:42:30.259 -0400,11087.04885575,0.573883056640625,0.8182373046875,-0.3399658203125,1,0.96
2020-05-16 12:42:30.329 -0400,11087.11868975,0.3359375,0.1767425537109375,-0.179840087890625,1,0.96
2020-05-16 12:42:30.399 -0400,11087.18852575,0.382232666015625,0.5885467529296875,-0.21343994140625,1,0.96
2020-05-16 12:42:30.469 -0400,11087.25836175,0.88751220703125,0.8855743408203125,-0.1647491455078125,1,0.96
2020-05-16 12:42:30.539 -0400,11087.32819775,1.90716552734375,0.792633056640625,-0.259674072265625,1,0.96
2020-05-16 12:42:30.608 -0400,11087.39803175,1.664764404296875,0.6578216552734375,-0.311248779296875,1,0.96
2020-05-16 12:42:30.678 -0400,11087.467865625,1.70550537109375,0.505462646484375,-0.419708251953125,1,0.96
2020-05-16 12:42:30.748 -0400,11087.537703625,1.206985473632812,0.1707611083984375,-0.2192230224609375,1,0.96
2020-05-16 12:42:30.819 -0400,11087.607540625,0.73236083984375,0.0701141357421875,-0.1128082275390625,1,0.96
2020-05-16 12:42:30.888 -0400,11087.677379625,0.3752593994140625,0.1044464111328125,-0.040008544921875,1,0.96
2020-05-16 12:42:30.957 -0400,11087.747217625,0.1480560302734375,0.071685791015625,0.0096588134765625,1,0.96
2020-05-16 12:42:31.027 -0400,11087.817057625,0.1370849609375,0.136505126953125,0.0986175537109375,1,0.96
2020-05-16 12:42:31.097 -0400,11087.886891625,0.9574127197265625,0.4853363037109375,-0.04266357421875,1,0.96
2020-05-16 12:42:31.167 -0400,11087.956725625,2.594589233398438,1.04217529296875,-0.471923828125,1,0.96
2020-05-16 12:42:31.237 -0400,11088.026560625,1.056503295898438,0.5741119384765625,-0.3489837646484375,1,0.96
2020-05-16 12:42:31.307 -0400,11088.096397625,0.762115478515625,0.1123199462890625,-0.3312530517578125,1,0.96
2020-05-16 12:42:31.376 -0400,11088.166237625,0.3934173583984375,0.5809173583984375,-0.26849365234375,1,0.96
2020-05-16 12:42:31.446 -0400,11088.236070625,0.3058929443359375,0.813201904296875,-0.2505950927734375,1,0.96
2020-05-16 12:42:31.516 -0400,11088.305902625,0.7681121826171875,0.9309539794921875,-0.32330322265625,1,0.96
2020-05-16 12:42:31.586 -0400,11088.375733625,1.08642578125,0.3795166015625,-0.150665283203125,1,0.96
2020-05-16 12:42:31.656 -0400,11088.445563625,2.147064208984375,0.5462188720703125,-0.2824859619140625,1,0.96
2020-05-16 12:42:31.726 -0400,11088.51539625,1.6671142578125,0.5586395263671875,-0.1813812255859375,1,0.96
2020-05-16 12:42:31.795 -0400,11088.58522825,1.144302368164062,0.546630859375,-0.151458740234375,1,0.96
2020-05-16 12:42:31.865 -0400,11088.65506325,0.7090301513671875,0.225372314453125,0.0097198486328125,1,0.96
2020-05-16 12:42:31.935 -0400,11088.72489825,0.3947601318359375,0.1181182861328125,0.0004730224609375,1,0.96
2020-05-16 12:42:32.005 -0400,11088.79473125,0.3061370849609375,0.0826568603515625,0.0034332275390625,1,0.96
2020-05-16 12:42:32.075 -0400,11088.86456525,0.4941253662109375,0.15118408203125,0.0288848876953125,1,0.96
2020-05-16 12:42:32.145 -0400,11088.93440225,0.999969482421875,0.33905029296875,0.0869293212890625,1,0.96
2020-05-16 12:42:32.214 -0400,11089.00424025,1.841598510742188,0.91357421875,-0.562652587890625,1,0.96
2020-05-16 12:42:32.284 -0400,11089.07407725,1.775588989257812,0.9171600341796875,-0.39984130859375,1,0.96
2020-05-16 12:42:32.354 -0400,11089.14391525,0.8612060546875,0.0371246337890625,-0.2821197509765625,1,0.96
2020-05-16 12:42:32.424 -0400,11089.21374725,0.564056396484375,0.17626953125,-0.1895294189453125,1,0.96
2020-05-16 12:42:32.494 -0400,11089.28358325,0.3156890869140625,0.7687835693359375,-0.1816558837890625,1,0.96
2020-05-16 12:42:32.564 -0400,11089.35341825,0.455535888671875,0.70587158203125,-0.2426300048828125,1,0.96
2020-05-16 12:42:32.634 -0400,11089.42325225,1.25860595703125,0.7237091064453125,-0.2263946533203125,1,0.96
2020-05-16 12:42:32.703 -0400,11089.49308729167,1.931640625,0.5367889404296875,-0.2446746826171875,1,0.96
2020-05-16 12:42:32.773 -0400,11089.56291929167,2.112197875976562,0.270233154296875,-0.2335357666015625,1,0.96
2020-05-16 12:42:32.843 -0400,11089.63275029167,1.12744140625,0.4772491455078125,-0.2737884521484375,1,0.96
2020-05-16 12:42:32.913 -0400,11089.70258029167,0.707733154296875,0.2924957275390625,-0.19769287109375,1,0.96
2020-05-16 12:42:32.983 -0400,11089.77241329167,0.19488525390625,-0.177215576171875,-0.0666961669921875,1,0.96
2020-05-16 12:42:33.052 -0400,11089.84224829167,0.289154052734375,0.16937255859375,-0.11370849609375,1,0.96
2020-05-16 12:42:33.122 -0400,11089.91208129167,0.5235595703125,0.0733489990234375,-0.0017852783203125,1,0.96
2020-05-16 12:42:33.192 -0400,11089.98191229167,0.69525146484375,0.1431427001953125,-0.0065460205078125,1,0.96
2020-05-16 12:42:33.266 -0400,11090.05174529167,2.663360595703125,0.930694580078125,-0.0742034912109375,1,0.96
2020-05-16 12:42:33.332 -0400,11090.12157329167,1.58184814453125,1.80792236328125,-0.8468780517578125,1,0.96
2020-05-16 12:42:33.402 -0400,11090.19139829167,1.1385498046875,-0.5601348876953125,-0.074859619140625,1,0.96
2020-05-16 12:42:33.471 -0400,11090.26122729167,0.728668212890625,0.1133270263671875,-0.1887359619140625,1,0.96
2020-05-16 12:42:33.541 -0400,11090.33105629167,0.3185272216796875,1.114166259765625,-0.290740966796875,1,0.96
2020-05-16 12:42:33.611 -0400,11090.40088729167,0.4292449951171875,1.18878173828125,-0.474517822265625,1,0.96
2020-05-16 12:42:33.681 -0400,11090.470718875,1.470260620117188,1.06915283203125,-0.2544708251953125,1,0.96
2020-05-16 12:42:33.751 -0400,11090.540548875,1.467727661132812,-0.4384307861328125,-0.0531768798828125,1,0.96
2020-05-16 12:42:33.821 -0400,11090.610381875,1.8250732421875,0.381591796875,0.00628662109375,1,0.96
2020-05-16 12:42:33.890 -0400,11090.680214875,1.413192749023438,0.819000244140625,-0.1765899658203125,1,0.96
2020-05-16 12:42:33.960 -0400,11090.750047875,0.9011993408203125,0.2756195068359375,-0.014129638671875,1,0.96
2020-05-16 12:42:34.030 -0400,11090.819879875,0.705108642578125,0.2189483642578125,0.0882568359375,1,0.96
2020-05-16 12:42:34.100 -0400,11090.889707875,0.4461517333984375,0.064605712890625,0.0836639404296875,1,0.96
2020-05-16 12:42:34.170 -0400,11090.959534875,0.388336181640625,0.0787811279296875,0.082427978515625,1,0.96
2020-05-16 12:42:34.240 -0400,11091.029361875,0.4268035888671875,0.24114990234375,-0.002593994140625,1,0.96
2020-05-16 12:42:34.309 -0400,11091.099192875,1.414108276367188,0.8548736572265625,-0.28515625,1,0.96
2020-05-16 12:42:34.379 -0400,11091.169024875,1.93634033203125,0.6641693115234375,-0.8946533203125,1,0.96
2020-05-16 12:42:34.449 -0400,11091.238854875,1.32861328125,-0.1612091064453125,-0.551788330078125,1,0.96
2020-05-16 12:42:34.519 -0400,11091.308686875,0.6722259521484375,0.494781494140625,-0.5244293212890625,1,0.96
2020-05-16 12:42:34.589 -0400,11091.378517875,0.3952789306640625,0.4338531494140625,-0.4140167236328125,1,0.96
2020-05-16 12:42:34.659 -0400,11091.448345875,0.545562744140625,0.8415374755859375,-0.5220184326171875,1,0.96
2020-05-16 12:42:34.729 -0400,11091.51817525,0.8274688720703125,0.8168792724609375,-0.2889556884765625,1,0.96
2020-05-16 12:42:34.798 -0400,11091.58800425,2.40814208984375,0.7649993896484375,-0.37286376953125,1,0.96
2020-05-16 12:42:34.868 -0400,11091.65783825,1.79583740234375,0.0496368408203125,-0.1679534912109375,1,0.96
2020-05-16 12:42:34.938 -0400,11091.72766825,1.520706176757812,0.649627685546875,-0.0217437744140625,1,0.96
2020-05-16 12:42:35.008 -0400,11091.79750325,0.941375732421875,0.3956146240234375,-0.1336669921875,1,0.96
2020-05-16 12:42:35.078 -0400,11091.86733925,0.6969757080078125,0.2063446044921875,0.0687103271484375,1,0.96
2020-05-16 12:42:35.147 -0400,11091.93717125,0.6351318359375,0.0478363037109375,0.0659027099609375,1,0.96
2020-05-16 12:42:35.217 -0400,11092.00700225,0.4623565673828125,0.1068267822265625,0.0491485595703125,1,0.96
2020-05-16 12:42:35.287 -0400,11092.07683325,0.3249664306640625,0.406097412109375,-0.147857666015625,1,0.96
2020-05-16 12:42:35.357 -0400,11092.14666625,1.091171264648438,1.336685180664062,-0.7191162109375,1,0.96
2020-05-16 12:42:35.427 -0400,11092.21649325,1.078582763671875,1.304336547851562,-1.023727416992188,1,0.96
2020-05-16 12:42:35.496 -0400,11092.28632625,0.764678955078125,-0.1717529296875,-0.94195556640625,1,0.96
2020-05-16 12:42:35.566 -0400,11092.35615725,-0.007354736328125,0.8148956298828125,-0.5659637451171875,1,0.96
2020-05-16 12:42:35.636 -0400,11092.42598825,-0.179840087890625,0.2785186767578125,-0.050079345703125,1,0.96
2020-05-16 12:42:35.706 -0400,11092.49582254167,-0.335296630859375,0.61004638671875,0.00592041015625,1,0.96
2020-05-16 12:42:35.776 -0400,11092.56565854167,0.6228790283203125,0.9802398681640625,-0.0753173828125,1,0.96
2020-05-16 12:42:35.846 -0400,11092.63549854167,1.314498901367188,0.0742034912109375,1.3856201171875,1,0.96
2020-05-16 12:42:35.915 -0400,11092.70533454167,1.506393432617188,2.541152954101562,0.67169189453125,1,0.96
2020-05-16 12:42:35.985 -0400,11092.77517054167,1.6236572265625,0.2582244873046875,0.3883514404296875,1,0.96
2020-05-16 12:42:36.055 -0400,11092.84500554167,0.6397857666015625,-0.1387939453125,-0.4513702392578125,1,0.96
2020-05-16 12:42:36.125 -0400,11092.91483954167,0.428802490234375,-0.236480712890625,0.0172576904296875,1,0.96
2020-05-16 12:42:36.195 -0400,11092.98466654167,0.405731201171875,0.8114166259765625,0.1886749267578125,1,0.96
2020-05-16 12:42:36.265 -0400,11093.05449754167,0.46734619140625,0.3792266845703125,0.191253662109375,1,0.96
2020-05-16 12:42:36.334 -0400,11093.12433054167,1.413284301757812,0.517852783203125,0.5074920654296875,1,0.96
2020-05-16 12:42:36.404 -0400,11093.19415954167,1.773162841796875,1.6514892578125,-0.2252655029296875,1,0.96
2020-05-16 12:42:36.474 -0400,11093.26399354167,1.4420166015625,0.3019866943359375,-0.2275848388671875,1,0.96
2020-05-16 12:42:36.544 -0400,11093.33383554167,0.5423431396484375,0.5523529052734375,-0.0913848876953125,1,0.96
2020-05-16 12:42:36.614 -0400,11093.40367454167,0.3377227783203125,0.343017578125,0.0398406982421875,1,0.96
2020-05-16 12:42:36.684 -0400,11093.47351,0.4597625732421875,0.5243377685546875,-0.0173187255859375,1,0.96
2020-05-16 12:42:36.754 -0400,11093.543347,0.862274169921875,0.609649658203125,-0.0911712646484375,1,0.96
2020-05-16 12:42:36.823 -0400,11093.613182,0.8879241943359375,0.5759124755859375,-0.186187744140625,1,0.96
2020-05-16 12:42:36.893 -0400,11093.683014,0.889312744140625,0.4661712646484375,-0.19488525390625,1,0.96
2020-05-16 12:42:36.963 -0400,11093.752848,0.9123992919921875,0.2380523681640625,-0.1443328857421875,1,0.96
2020-05-16 12:42:37.033 -0400,11093.822684,1.203872680664062,0.5004119873046875,-0.3432159423828125,1,0.96
2020-05-16 12:42:37.103 -0400,11093.892521,1.334747314453125,0.3072509765625,-0.3129730224609375,1,0.96
2020-05-16 12:42:37.173 -0400,11093.962355,1.185287475585938,0.44207763671875,-0.2981109619140625,1,0.96
2020-05-16 12:42:37.242 -0400,11094.032191,0.8312530517578125,0.387176513671875,-0.2051849365234375,1,0.96
2020-05-16 12:42:37.316 -0400,11094.102026,0.658935546875,0.2752532958984375,-0.13604736328125,1,0.96
2020-05-16 12:42:37.382 -0400,11094.171862,0.7079315185546875,0.3265228271484375,-0.115875244140625,1,0.96
2020-05-16 12:42:37.452 -0400,11094.241694,0.827301025390625,0.3798828125,-0.0841217041015625,1,0.96
2020-05-16 12:42:37.522 -0400,11094.311526,0.946258544921875,0.44537353515625,-0.2232666015625,1,0.96
2020-05-16 12:42:37.592 -0400,11094.381355,0.785369873046875,0.3567657470703125,-0.1769866943359375,1,0.96
2020-05-16 12:42:37.662 -0400,11094.45119,0.7286224365234375,0.2944793701171875,-0.1906585693359375,1,0.96
2020-05-16 12:42:37.731 -0400,11094.52102654167,0.987701416015625,0.2880859375,-0.13885498046875,1,0.96
2020-05-16 12:42:37.801 -0400,11094.59086354167,1.539413452148438,0.5959625244140625,-0.2841644287109375,1,0.96
2020-05-16 12:42:37.871 -0400,11094.66070154167,0.793853759765625,0.5087738037109375,-0.69024658203125,1,0.96
2020-05-16 12:42:37.941 -0400,11094.73053554167,0.6272735595703125,-0.0142822265625,-0.12200927734375,1,0.96
2020-05-16 12:42:38.011 -0400,11094.80037254167,0.2745361328125,0.4196319580078125,-0.136260986328125,1,0.96
2020-05-16 12:42:38.080 -0400,11094.87020754167,0.233917236328125,0.455322265625,-0.268310546875,1,0.96
2020-05-16 12:42:38.150 -0400,11094.94004354167,0.988250732421875,0.80194091796875,-0.4019622802734375,1,0.96
2020-05-16 12:42:38.220 -0400,11095.00987954167,0.93231201171875,0.630615234375,-0.307159423828125,1,0.96
2020-05-16 12:42:38.290 -0400,11095.07971154167,0.577178955078125,0.5465545654296875,-0.226776123046875,1,0.96
2020-05-16 12:42:38.360 -0400,11095.14954354167,1.223281860351562,0.5196380615234375,-0.5659637451171875,1,0.96
2020-05-16 12:42:38.430 -0400,11095.21937454167,1.98248291015625,0.8854522705078125,-0.0386962890625,1,0.96
2020-05-16 12:42:38.499 -0400,11095.28921154167,1.2952880859375,0.7107696533203125,-0.218231201171875,1,0.96
2020-05-16 12:42:38.569 -0400,11095.35904454167,0.474365234375,0.53753662109375,-0.31243896484375,1,0.96
2020-05-16 12:42:38.639 -0400,11095.42888154167,0.0610504150390625,0.3293914794921875,-0.171356201171875,1,0.96
2020-05-16 12:42:38.709 -0400,11095.498720625,0.1286773681640625,0.1505584716796875,-0.041259765625,1,0.96
2020-05-16 12:42:38.779 -0400,11095.568560625,0.602569580078125,0.1435394287109375,-0.034759521484375,1,0.96
2020-05-16 12:42:38.849 -0400,11095.638401625,1.096298217773438,0.430755615234375,-0.0101318359375,1,0.96
2020-05-16 12:42:38.918 -0400,11095.708237625,1.912506103515625,0.6927642822265625,-0.12835693359375,1,0.96
2020-05-16 12:42:38.988 -0400,11095.778073625,1.920333862304688,0.6373291015625,-0.4138946533203125,1,0.96
2020-05-16 12:42:39.058 -0400,11095.847905625,1.281204223632812,0.0216064453125,-0.1374053955078125,1,0.96
2020-05-16 12:42:39.128 -0400,11095.917741625,0.68414306640625,0.3188934326171875,-0.3162384033203125,1,0.96
2020-05-16 12:42:39.198 -0400,11095.987579625,-0.14080810546875,0.680511474609375,-0.40545654296875,1,0.96
2020-05-16 12:42:39.268 -0400,11096.057411625,-0.337982177734375,0.5442352294921875,-0.387237548828125,1,0.96
2020-05-16 12:42:39.337 -0400,11096.127245625,0.401763916015625,0.351898193359375,-0.1359100341796875,1,0.96
2020-05-16 12:42:39.407 -0400,11096.197080625,3.045318603515625,0.5050811767578125,0.0914764404296875,1,0.96
2020-05-16 12:42:39.477 -0400,11096.266918625,1.405197143554688,-0.0406951904296875,-0.56890869140625,1,0.96
2020-05-16 12:42:39.547 -0400,11096.336753625,1.214981079101562,0.95562744140625,0.0389251708984375,1,0.96
2020-05-16 12:42:39.617 -0400,11096.406584625,1.03472900390625,0.0672149658203125,0.3699798583984375,1,0.96
2020-05-16 12:42:39.687 -0400,11096.47641625,1.045486450195312,0.1849822998046875,0.1096343994140625,1,0.96
2020-05-16 12:42:39.756 -0400,11096.54625025,1.039016723632812,0.4273681640625,0.2332763671875,1,0.96
2020-05-16 12:42:39.826 -0400,11096.61608925,0.7567596435546875,0.3890380859375,0.1776580810546875,1,0.96
2020-05-16 12:42:39.896 -0400,11096.68592725,0.6718597412109375,0.4295806884765625,0.122406005859375,1,0.96
2020-05-16 12:42:39.966 -0400,11096.75576625,0.8232879638671875,0.8272705078125,-0.0664215087890625,1,0.96
2020-05-16 12:42:40.036 -0400,11096.82560525,1.050125122070312,1.201400756835938,-0.54901123046875,1,0.96
2020-05-16 12:42:40.105 -0400,11096.89543825,0.5074310302734375,0.758056640625,-0.494293212890625,1,0.96
2020-05-16 12:42:40.175 -0400,11096.96527125,-0.154937744140625,0.162445068359375,-0.2040252685546875,1,0.96
2020-05-16 12:42:40.245 -0400,11097.03510625,-0.3418121337890625,-0.0463409423828125,-0.0084686279296875,1,0.96
2020-05-16 12:42:40.315 -0400,11097.10494025,-0.4575653076171875,-0.0733642578125,-0.125152587890625,1,0.96
2020-05-16 12:42:40.385 -0400,11097.17477125,-0.4804229736328125,-0.1681060791015625,0.0763397216796875,1,0.96
2020-05-16 12:42:40.456 -0400,11097.24460525,-2.983184814453125,1.383132934570312,-0.0320281982421875,1,0.96
2020-05-16 12:42:40.525 -0400,11097.31444125,3.238204956054688,5.7808837890625,-1.511764526367188,1,0.96
2020-05-16 12:42:40.594 -0400,11097.38427425,0.6756134033203125,0.7075653076171875,-0.378326416015625,1,0.96
2020-05-16 12:42:40.664 -0400,11097.45410925,0.1244964599609375,0.2392425537109375,-0.1747283935546875,1,0.96
2020-05-16 12:42:40.734 -0400,11097.52394266667,0.1209716796875,0.2266082763671875,-0.3428497314453125,1,0.96
2020-05-16 12:42:40.804 -0400,11097.59377366667,0.1095733642578125,0.0870208740234375,-0.33294677734375,1,0.96
2020-05-16 12:42:40.874 -0400,11097.66360566667,0.046722412109375,0.210784912109375,-0.7445068359375,1,0.96
2020-05-16 12:42:40.944 -0400,11097.73343566667,0.894378662109375,0.4520111083984375,-1.754013061523438,1,0.96
2020-05-16 12:42:41.013 -0400,11097.80326766667,0.55352783203125,0.2606964111328125,-1.33978271484375,1,0.96
2020-05-16 12:42:41.083 -0400,11097.87309966667,0.108489990234375,-0.0134735107421875,-0.69598388671875,1,0.96
2020-05-16 12:42:41.153 -0400,11097.94293066667,-0.05999755859375,-0.0863494873046875,-0.509429931640625,1,0.96
2020-05-16 12:42:41.223 -0400,11098.01276366667,0.0008697509765625,-0.09149169921875,-0.5735015869140625,1,0.96
2020-05-16 12:42:41.301 -0400,11098.08259666667,-0.1270599365234375,-0.08026123046875,-0.759735107421875,1,0.96
2020-05-16 12:42:41.413 -0400,11098.20231766667,0.31683349609375,0.1708984375,-1.686294555664062,1,0.96
2020-05-16 12:42:41.532 -0400,11098.32203766667,0.0150299072265625,-0.02789306640625,-1.215301513671875,1,0.96
2020-05-16 12:42:41.652 -0400,11098.44175966667,0.09600830078125,-0.09820556640625,-0.614166259765625,1,0.96
2020-05-16 12:42:41.772 -0400,11098.56147925,0.00164794921875,-0.206024169921875,-0.61566162109375,1,0.96
