loggingTime(txt),accelerometerTimestamp_sinceReboot(s),accelerometerAccelerationX(G),accelerometerAccelerationY(G),accelerometerAccelerationZ(G),batteryState,batteryLevel
2020-05-16 12:36:25.615 -0400,10722.40476004167,-0.0271759033203125,0.0044708251953125,-1.341171264648438,1,0.97
2020-05-16 12:36:25.685 -0400,10722.47473304167,0.0116424560546875,0.3311920166015625,-1.351165771484375,1,0.97
2020-05-16 12:36:25.755 -0400,10722.54470704167,0.0867919921875,0.20623779296875,-0.9801483154296875,1,0.97
2020-05-16 12:36:25.825 -0400,10722.61468104167,-0.0570526123046875,-0.043701171875,-0.80145263671875,1,0.97
2020-05-16 12:36:25.895 -0400,10722.68465504167,0.0884552001953125,0.1360931396484375,-0.654632568359375,1,0.97
2020-05-16 12:36:25.965 -0400,10722.75462904167,0.156982421875,0.0550384521484375,-0.723175048828125,1,0.97
2020-05-16 12:36:26.035 -0400,10722.82460204167,0.17572021484375,0.08746337890625,-0.6146087646484375,1,0.97
2020-05-16 12:36:26.105 -0400,10722.89457604167,0.57061767578125,9.1552734375e-05,-0.409515380859375,1,0.97
2020-05-16 12:36:26.175 -0400,10722.96455004167,1.408248901367188,0.3110198974609375,-0.7048187255859375,1,0.97
2020-05-16 12:36:26.245 -0400,10723.03452404167,1.545181274414062,0.6895599365234375,-0.4289093017578125,1,0.97
2020-05-16 12:36:26.315 -0400,10723.10449654167,1.519805908203125,0.812591552734375,0.17193603515625,1,0.97
2020-05-16 12:36:26.385 -0400,10723.17447054167,0.996795654296875,0.441253662109375,0.0381317138671875,1,0.97
2020-05-16 12:36:26.455 -0400,10723.24444454167,0.641571044921875,0.733123779296875,0.1237945556640625,1,0.97
2020-05-16 12:36:26.525 -0400,10723.31441854167,0.704132080078125,0.88226318359375,0.0611419677734375,1,0.97
2020-05-16 12:36:26.595 -0400,10723.38439254167,0.4554443359375,0.98980712890625,-0.112091064453125,1,0.97
2020-05-16 12:36:26.671 -0400,10723.45436554167,0.49407958984375,1.148941040039062,0.01519775390625,1,0.97
2020-05-16 12:36:26.735 -0400,10723.52433954167,1.06646728515625,1.153915405273438,0.132568359375,1,0.97
2020-05-16 12:36:26.811 -0400,10723.59431354167,2.460067749023438,0.708587646484375,0.2946624755859375,1,0.97
2020-05-16 12:36:26.874 -0400,10723.66428754167,2.288482666015625,0.3223876953125,-0.2363128662109375,1,0.97
2020-05-16 12:36:26.945 -0400,10723.73426154167,1.323135375976562,0.419219970703125,-0.150909423828125,1,0.97
2020-05-16 12:36:27.015 -0400,10723.80423454167,0.8632659912109375,-0.0785980224609375,0.0436248779296875,1,0.97
2020-05-16 12:36:27.085 -0400,10723.87420854167,0.5289459228515625,-0.1620330810546875,0.0020904541015625,1,0.97
2020-05-16 12:36:27.155 -0400,10723.94418254167,0.343292236328125,-0.0970458984375,0.0517120361328125,1,0.97
2020-05-16 12:36:27.225 -0400,10724.01415654167,0.5232391357421875,0.503753662109375,0.0711212158203125,1,0.97
2020-05-16 12:36:27.295 -0400,10724.08413054167,0.9066619873046875,1.267181396484375,-0.4046173095703125,1,0.97
2020-05-16 12:36:27.365 -0400,10724.15410466667,1.50128173828125,0.9239501953125,-0.39337158203125,1,0.97
2020-05-16 12:36:27.435 -0400,10724.22407866667,1.412063598632812,1.023788452148438,-0.403045654296875,1,0.97
2020-05-16 12:36:27.504 -0400,10724.29405266667,0.868316650390625,0.73809814453125,-0.30792236328125,1,0.97
2020-05-16 12:36:27.575 -0400,10724.36402666667,0.735443115234375,0.6672515869140625,-0.54669189453125,1,0.97
2020-05-16 12:36:27.645 -0400,10724.43400066667,0.5015411376953125,0.62774658203125,-0.65826416015625,1,0.97
2020-05-16 12:36:27.714 -0400,10724.50397466667,0.6649017333984375,0.7263031005859375,-0.4520416259765625,1,0.97
2020-05-16 12:36:27.801 -0400,10724.57394866667,2.873992919921875,1.770233154296875,-1.16717529296875,1,0.97
2020-05-16 12:36:27.855 -0400,10724.64392166667,2.568649291992188,-0.170745849609375,-0.001953125,1,0.97
2020-05-16 12:36:27.924 -0400,10724.71389566667,1.8057861328125,0.620941162109375,-0.0189208984375,1,0.97
2020-05-16 12:36:27.994 -0400,10724.78386966667,1.482757568359375,0.1167144775390625,0.26812744140625,1,0.97
2020-05-16 12:36:28.064 -0400,10724.85384366667,0.7635040283203125,-0.0655670166015625,0.2532501220703125,1,0.97
2020-05-16 12:36:28.134 -0400,10724.92381766667,0.4601593017578125,-0.158355712890625,0.2794342041015625,1,0.97
2020-05-16 12:36:28.204 -0400,10724.99379166667,0.359619140625,-0.1026458740234375,0.0396270751953125,1,0.97
2020-05-16 12:36:28.274 -0400,10725.06376466667,0.233917236328125,-0.04046630859375,0.083343505859375,1,0.97
2020-05-16 12:36:28.344 -0400,10725.133738125,1.322097778320312,2.14422607421875,0.1749420166015625,1,0.97
2020-05-16 12:36:28.414 -0400,10725.203712125,1.933090209960938,1.813095092773438,-0.7901458740234375,1,0.97
2020-05-16 12:36:28.484 -0400,10725.273686125,0.6295623779296875,1.593017578125,-0.116546630859375,1,0.97
2020-05-16 12:36:28.554 -0400,10725.343660125,-0.47760009765625,0.1070404052734375,-0.7470550537109375,1,0.97
2020-05-16 12:36:28.624 -0400,10725.413634125,-0.709686279296875,0.59161376953125,-0.1876220703125,1,0.97
2020-05-16 12:36:28.694 -0400,10725.483608125,-0.6809539794921875,0.2010650634765625,-0.021148681640625,1,0.97
2020-05-16 12:36:28.764 -0400,10725.553582125,1.482147216796875,1.7313232421875,-0.35467529296875,1,0.97
2020-05-16 12:36:28.834 -0400,10725.623555125,3.345779418945312,0.832611083984375,0.25262451171875,1,0.97
2020-05-16 12:36:28.904 -0400,10725.693529125,1.130645751953125,0.6368255615234375,-0.5414886474609375,1,0.97
2020-05-16 12:36:28.974 -0400,10725.763503125,0.8946380615234375,0.7005615234375,0.1099700927734375,1,0.97
2020-05-16 12:36:29.044 -0400,10725.833477125,0.300323486328125,-0.2428131103515625,0.0638580322265625,1,0.97
2020-05-16 12:36:29.114 -0400,10725.903451125,0.1426544189453125,-0.3787689208984375,-0.039398193359375,1,0.97
2020-05-16 12:36:29.184 -0400,10725.973425125,0.2033233642578125,-0.2595062255859375,-0.1436614990234375,1,0.97
2020-05-16 12:36:29.254 -0400,10726.043399125,0.80426025390625,-0.043548583984375,0.6301727294921875,1,0.97
2020-05-16 12:36:29.324 -0400,10726.11337375,2.221893310546875,0.9860382080078125,-1.420578002929688,1,0.97
2020-05-16 12:36:29.394 -0400,10726.18334675,2.512664794921875,1.0921630859375,0.1583404541015625,1,0.97
2020-05-16 12:36:29.464 -0400,10726.25332075,0.9593963623046875,0.8873748779296875,0.043212890625,1,0.97
2020-05-16 12:36:29.534 -0400,10726.32329475,0.5832061767578125,0.3369140625,-0.3404998779296875,1,0.97
2020-05-16 12:36:29.604 -0400,10726.39326875,0.169189453125,0.9104461669921875,-0.44744873046875,1,0.97
2020-05-16 12:36:29.674 -0400,10726.46324275,0.1614227294921875,1.113723754882812,-0.410186767578125,1,0.97
2020-05-16 12:36:29.744 -0400,10726.53321675,0.7176971435546875,1.306869506835938,-0.3147735595703125,1,0.97
2020-05-16 12:36:29.817 -0400,10726.60319075,3.093032836914062,0.011505126953125,0.5609283447265625,1,0.97
2020-05-16 12:36:29.884 -0400,10726.67316475,3.043609619140625,0.642364501953125,-0.283172607421875,1,0.97
2020-05-16 12:36:29.955 -0400,10726.74313875,2.194259643554688,0.6915130615234375,0.1458282470703125,1,0.97
2020-05-16 12:36:30.024 -0400,10726.81311275,1.293380737304688,0.368621826171875,0.1962127685546875,1,0.97
2020-05-16 12:36:30.094 -0400,10726.88308575,0.729705810546875,-0.352813720703125,0.1834564208984375,1,0.97
2020-05-16 12:36:30.163 -0400,10726.95305975,0.5621337890625,-0.1207733154296875,0.0101318359375,1,0.97
2020-05-16 12:36:30.235 -0400,10727.02303375,0.43646240234375,0.0465087890625,0.0234222412109375,1,0.97
2020-05-16 12:36:30.303 -0400,10727.093007125,0.5205841064453125,0.3475341796875,0.1984100341796875,1,0.97
2020-05-16 12:36:30.374 -0400,10727.162981125,1.003143310546875,1.259490966796875,-0.0907745361328125,1,0.97
2020-05-16 12:36:30.443 -0400,10727.232955125,2.16265869140625,1.110107421875,-0.403289794921875,1,0.97
2020-05-16 12:36:30.513 -0400,10727.302929125,1.608291625976562,1.612045288085938,-0.476654052734375,1,0.97
2020-05-16 12:36:30.583 -0400,10727.372903125,0.8824615478515625,0.5692291259765625,-0.4157257080078125,1,0.97
2020-05-16 12:36:30.653 -0400,10727.442877125,0.5738372802734375,0.7545318603515625,-0.393585205078125,1,0.97
2020-05-16 12:36:30.723 -0400,10727.512851125,0.4394989013671875,0.907684326171875,-0.345733642578125,1,0.97
2020-05-16 12:36:30.812 -0400,10727.582825125,0.8933868408203125,1.053695678710938,-0.39666748046875,1,0.97
2020-05-16 12:36:30.863 -0400,10727.652799125,2.282257080078125,0.5516357421875,-0.0056304931640625,1,0.97
2020-05-16 12:36:30.933 -0400,10727.722772125,2.285675048828125,-0.0806732177734375,-0.0802154541015625,1,0.97
2020-05-16 12:36:31.003 -0400,10727.792746125,1.457687377929688,0.7220916748046875,-0.0645751953125,1,0.97
2020-05-16 12:36:31.073 -0400,10727.862720125,1.43621826171875,0.5631256103515625,0.0769805908203125,1,0.97
2020-05-16 12:36:31.143 -0400,10727.932694125,1.378433227539062,0.12567138671875,0.2854156494140625,1,0.97
2020-05-16 12:36:31.213 -0400,10728.002668125,0.6240692138671875,-0.1603851318359375,0.1814117431640625,1,0.97
2020-05-16 12:36:31.286 -0400,10728.072642125,0.137359619140625,-0.0181884765625,0.0937957763671875,1,0.97
2020-05-16 12:36:31.353 -0400,10728.14261604167,0.3868560791015625,0.4179229736328125,-0.118377685546875,1,0.97
2020-05-16 12:36:31.423 -0400,10728.21259004167,0.81988525390625,0.8465423583984375,-0.7894287109375,1,0.97
2020-05-16 12:36:31.493 -0400,10728.28256404167,1.37872314453125,0.793914794921875,-0.607086181640625,1,0.97
2020-05-16 12:36:31.563 -0400,10728.35253804167,1.03253173828125,0.667327880859375,-0.7780303955078125,1,0.97
2020-05-16 12:36:31.633 -0400,10728.42251204167,0.5863494873046875,0.9118194580078125,-0.5427093505859375,1,0.97
2020-05-16 12:36:31.703 -0400,10728.49248604167,0.5700836181640625,0.884124755859375,-0.4835968017578125,1,0.97
2020-05-16 12:36:31.773 -0400,10728.56246004167,0.8887939453125,0.801910400390625,-0.4106292724609375,1,0.97
2020-05-16 12:36:31.843 -0400,10728.63243304167,1.400192260742188,0.892913818359375,-0.555023193359375,1,0.97
2020-05-16 12:36:31.913 -0400,10728.70240704167,1.777740478515625,0.28271484375,-0.204742431640625,1,0.97
2020-05-16 12:36:31.983 -0400,10728.77238104167,1.129043579101562,0.19403076171875,-0.0084381103515625,1,0.97
2020-05-16 12:36:32.053 -0400,10728.84235504167,0.8021697998046875,0.4040679931640625,-0.01593017578125,1,0.97
2020-05-16 12:36:32.123 -0400,10728.91232904167,1.02239990234375,0.53680419921875,0.1190643310546875,1,0.97
2020-05-16 12:36:32.193 -0400,10728.98230304167,1.2618408203125,0.4666290283203125,0.113494873046875,1,0.97
2020-05-16 12:36:32.263 -0400,10729.05227704167,1.140411376953125,0.3166656494140625,-0.2567291259765625,1,0.97
2020-05-16 12:36:32.333 -0400,10729.12225054167,1.343338012695312,0.35516357421875,-0.227996826171875,1,0.97
2020-05-16 12:36:32.403 -0400,10729.19222454167,0.882354736328125,-0.1241302490234375,-0.4620361328125,1,0.97
2020-05-16 12:36:32.473 -0400,10729.26219854167,0.7813568115234375,0.0055389404296875,-0.1919708251953125,1,0.97
2020-05-16 12:36:32.543 -0400,10729.33217254167,0.900482177734375,0.399658203125,-0.1415863037109375,1,0.97
2020-05-16 12:36:32.612 -0400,10729.40214654167,1.030853271484375,0.71051025390625,-0.227935791015625,1,0.97
2020-05-16 12:36:32.683 -0400,10729.47212054167,0.9749603271484375,0.8028717041015625,-0.3802642822265625,1,0.97
2020-05-16 12:36:32.753 -0400,10729.54209454167,0.7563323974609375,0.526885986328125,-0.2256011962890625,1,0.97
2020-05-16 12:36:32.823 -0400,10729.61206854167,0.5812530517578125,0.4080657958984375,-0.2614898681640625,1,0.97
2020-05-16 12:36:32.893 -0400,10729.68204254167,0.33319091796875,0.4184417724609375,-0.2338104248046875,1,0.97
2020-05-16 12:36:32.962 -0400,10729.75201654167,0.7990570068359375,0.4547576904296875,-0.3590850830078125,1,0.97
2020-05-16 12:36:33.032 -0400,10729.82199054167,2.173568725585938,0.5286102294921875,0.1085968017578125,1,0.97
2020-05-16 12:36:33.102 -0400,10729.89196454167,1.81597900390625,0.227294921875,-0.573822021484375,1,0.97
2020-05-16 12:36:33.172 -0400,10729.96193754167,1.20867919921875,0.338348388671875,-0.124664306640625,1,0.97
2020-05-16 12:36:33.242 -0400,10730.03191154167,0.7446746826171875,0.2354736328125,-0.0040283203125,1,0.97
2020-05-16 12:36:33.312 -0400,10730.101886375,0.4057159423828125,0.0201873779296875,0.0742034912109375,1,0.97
2020-05-16 12:36:33.382 -0400,10730.171860375,0.406341552734375,0.0283966064453125,0.0827178955078125,1,0.97
2020-05-16 12:36:33.452 -0400,10730.241834375,0.630126953125,0.1717071533203125,0.22125244140625,1,0.97
2020-05-16 12:36:33.523 -0400,10730.311808375,1.235260009765625,1.241363525390625,-0.2280731201171875,1,0.97
2020-05-16 12:36:33.592 -0400,10730.381782375,1.410064697265625,0.893341064453125,-0.6091766357421875,1,0.97
2020-05-16 12:36:33.662 -0400,10730.451756375,1.188232421875,0.70703125,-0.2282562255859375,1,0.97
2020-05-16 12:36:33.732 -0400,10730.521730375,0.6110076904296875,0.69366455078125,-0.181396484375,1,0.97
2020-05-16 12:36:33.802 -0400,10730.591704375,0.5169677734375,0.6927490234375,-0.1806182861328125,1,0.97
2020-05-16 12:36:33.872 -0400,10730.661678375,0.617584228515625,0.6327362060546875,-0.1847076416015625,1,0.97
2020-05-16 12:36:33.942 -0400,10730.731652375,0.5865631103515625,0.4349365234375,0.0303955078125,1,0.97
2020-05-16 12:36:34.012 -0400,10730.801626375,2.441207885742188,0.9775238037109375,-0.0868682861328125,1,0.97
2020-05-16 12:36:34.082 -0400,10730.871600375,2.0108642578125,0.532012939453125,-0.37371826171875,1,0.97
2020-05-16 12:36:34.152 -0400,10730.941574375,1.44500732421875,0.2755126953125,-0.2256011962890625,1,0.97
2020-05-16 12:36:34.228 -0400,10731.011548375,0.8904571533203125,0.10382080078125,-0.1793212890625,1,0.97
2020-05-16 12:36:34.292 -0400,10731.081522375,0.343597412109375,-0.1606597900390625,-0.1239776611328125,1,0.97
2020-05-16 12:36:34.362 -0400,10731.15149691667,0.190521240234375,-0.1416473388671875,-0.1044769287109375,1,0.97
2020-05-16 12:36:34.432 -0400,10731.22147091667,0.1761322021484375,0.1144256591796875,0.005035400390625,1,0.97
2020-05-16 12:36:34.502 -0400,10731.29144491667,1.52716064453125,1.738616943359375,0.210174560546875,1,0.97
2020-05-16 12:36:34.572 -0400,10731.36141891667,1.766342163085938,0.451934814453125,-0.64117431640625,1,0.97
2020-05-16 12:36:34.642 -0400,10731.43139291667,1.235595703125,1.328781127929688,-0.3024139404296875,1,0.97
2020-05-16 12:36:34.712 -0400,10731.50136691667,0.399169921875,0.5604400634765625,0.088134765625,1,0.97
2020-05-16 12:36:34.782 -0400,10731.57134091667,0.4123382568359375,0.539337158203125,0.183563232421875,1,0.97
2020-05-16 12:36:34.852 -0400,10731.64131491667,0.3538970947265625,0.0647125244140625,-0.1294097900390625,1,0.97
2020-05-16 12:36:34.922 -0400,10731.71128891667,1.431106567382812,0.530914306640625,0.204742431640625,1,0.97
2020-05-16 12:36:34.992 -0400,10731.78126291667,1.833877563476562,-0.4702911376953125,-0.02801513671875,1,0.97
2020-05-16 12:36:35.062 -0400,10731.85123691667,1.57025146484375,0.1074371337890625,-0.1004180908203125,1,0.97
2020-05-16 12:36:35.132 -0400,10731.92121091667,0.88946533203125,0.2558746337890625,-0.054840087890625,1,0.97
2020-05-16 12:36:35.209 -0400,10731.99118491667,0.525360107421875,0.4586029052734375,-0.1136474609375,1,0.97
2020-05-16 12:36:35.266 -0400,10732.05605491667,0.297882080078125,0.63201904296875,0.0104522705078125,1,0.97
2020-05-16 12:36:35.386 -0400,10732.17580125,0.34417724609375,0.396484375,0.448577880859375,1,0.97
2020-05-16 12:36:35.506 -0400,10732.29554525,2.543624877929688,1.30511474609375,0.1768035888671875,1,0.97
2020-05-16 12:36:35.625 -0400,10732.41528525,1.160888671875,0.1599578857421875,-0.3520965576171875,1,0.97
2020-05-16 12:36:35.749 -0400,10732.53502625,0.06915283203125,0.778228759765625,0.6180267333984375,1,0.97
2020-05-16 12:36:35.865 -0400,10732.65477125,-0.1851654052734375,0.4432373046875,0.341156005859375,1,0.97
2020-05-16 12:36:35.985 -0400,10732.77450425,1.201187133789062,0.6822357177734375,-0.0721282958984375,1,0.97
2020-05-16 12:36:36.104 -0400,10732.89423325,1.033203125,0.6089630126953125,-0.0667572021484375,1,0.97
2020-05-16 12:36:36.224 -0400,10733.01396325,0.392333984375,0.2664337158203125,0.0055389404296875,1,0.97
2020-05-16 12:36:36.344 -0400,10733.133696125,0.2647247314453125,0.0389862060546875,0.1695709228515625,1,0.97
2020-05-16 12:36:36.463 -0400,10733.253429125,0.8101654052734375,0.262908935546875,0.0473480224609375,1,0.97
2020-05-16 12:36:36.583 -0400,10733.373160125,2.172576904296875,1.557464599609375,-1.463699340820312,1,0.97
2020-05-16 12:36:36.703 -0400,10733.492893125,0.7940216064453125,0.6989288330078125,-0.25634765625,1,0.97
2020-05-16 12:36:36.823 -0400,10733.612629125,0.161895751953125,0.582275390625,-0.3235015869140625,1,0.97
2020-05-16 12:36:36.942 -0400,10733.732360125,0.3394012451171875,0.475372314453125,-0.2720489501953125,1,0.97
2020-05-16 12:36:37.062 -0400,10733.852091125,2.184661865234375,0.3083648681640625,1.083175659179688,1,0.97
2020-05-16 12:36:37.182 -0400,10733.971822125,1.239486694335938,0.7978515625,0.405059814453125,1,0.97
2020-05-16 12:36:37.302 -0400,10734.091546125,0.424896240234375,-0.12054443359375,0.2119140625,1,0.97
2020-05-16 12:36:37.421 -0400,10734.211266625,0.32568359375,0.12225341796875,0.02593994140625,1,0.97
2020-05-16 12:36:37.541 -0400,10734.330986625,1.835586547851562,1.181549072265625,-0.3637542724609375,1,0.97
2020-05-16 12:36:37.661 -0400,10734.450712625,1.408660888671875,1.170318603515625,-0.5442352294921875,1,0.97
2020-05-16 12:36:37.781 -0400,10734.570435625,0.5819244384765625,1.062026977539062,-0.2568511962890625,1,0.97
2020-05-16 12:36:37.900 -0400,10734.690152625,0.4115753173828125,0.4241180419921875,-0.26666259765625,1,0.97
2020-05-16 12:36:38.020 -0400,10734.809865625,0.685699462890625,0.5276947021484375,-0.1624755859375,1,0.97
2020-05-16 12:36:38.140 -0400,10734.929580625,1.822525024414062,0.2279205322265625,-0.2716217041015625,1,0.97
2020-05-16 12:36:38.259 -0400,10735.049289625,1.01019287109375,0.6147003173828125,0.003448486328125,1,0.97
2020-05-16 12:36:38.379 -0400,10735.16900216667,0.6795654296875,-0.022552490234375,0.2052001953125,1,0.97
2020-05-16 12:36:38.499 -0400,10735.28871316667,0.443328857421875,0.130218505859375,0.009490966796875,1,0.97
2020-05-16 12:36:38.619 -0400,10735.40842916667,1.604461669921875,1.276718139648438,-0.3188323974609375,1,0.97
2020-05-16 12:36:38.738 -0400,10735.52814216667,1.193130493164062,1.395721435546875,-0.4246063232421875,1,0.97
2020-05-16 12:36:38.858 -0400,10735.64785216667,-0.1479949951171875,0.8845672607421875,-0.083099365234375,1,0.97
2020-05-16 12:36:38.978 -0400,10735.76755816667,3.791595458984375,1.498825073242188,0.248077392578125,1,0.97
2020-05-16 12:36:39.097 -0400,10735.88727416667,1.2442626953125,0.5864715576171875,-0.0959320068359375,1,0.97
2020-05-16 12:36:39.217 -0400,10736.00699416667,0.7815704345703125,0.307525634765625,0.224761962890625,1,0.97
2020-05-16 12:36:39.337 -0400,10736.12671766667,0.421661376953125,-0.0900726318359375,0.193115234375,1,0.97
2020-05-16 12:36:39.457 -0400,10736.24643066667,0.907257080078125,0.864105224609375,-0.331451416015625,1,0.97
2020-05-16 12:36:39.576 -0400,10736.36614966667,1.598159790039062,0.597137451171875,0.0267791748046875,1,0.97
2020-05-16 12:36:39.696 -0400,10736.48587466667,0.723876953125,0.374114990234375,-0.3381500244140625,1,0.97
2020-05-16 12:36:39.824 -0400,10736.60559866667,0.5733489990234375,0.4738311767578125,-0.285552978515625,1,0.97
2020-05-16 12:36:39.936 -0400,10736.72532866667,0.623779296875,0.4532470703125,-0.22412109375,1,0.97
2020-05-16 12:36:40.055 -0400,10736.84506666667,1.918777465820312,0.5617523193359375,0.0536041259765625,1,0.97
2020-05-16 12:36:40.175 -0400,10736.96480566667,1.093841552734375,0.5907440185546875,-0.0834808349609375,1,0.97
2020-05-16 12:36:40.295 -0400,10737.08454466667,0.3556976318359375,-0.0093231201171875,-0.0136260986328125,1,0.97
2020-05-16 12:36:40.415 -0400,10737.20427516667,0.4220123291015625,0.133209228515625,0.0784454345703125,1,0.97
2020-05-16 12:36:40.534 -0400,10737.32399916667,1.727447509765625,0.977813720703125,-0.456695556640625,1,0.97
2020-05-16 12:36:40.654 -0400,10737.44372216667,1.3638916015625,0.6147308349609375,-1.1529541015625,1,0.97
2020-05-16 12:36:40.774 -0400,10737.56344116667,0.519195556640625,0.4162139892578125,-0.252349853515625,1,0.97
2020-05-16 12:36:40.893 -0400,10737.68315516667,0.4192352294921875,0.6857452392578125,-0.17718505859375,1,0.97
2020-05-16 12:36:41.013 -0400,10737.80286716667,2.32177734375,0.8958740234375,-0.43487548828125,1,0.97
2020-05-16 12:36:41.133 -0400,10737.92258416667,1.822860717773438,0.3825836181640625,-0.2752838134765625,1,0.97
2020-05-16 12:36:41.252 -0400,10738.04230516667,0.7370452880859375,0.0829620361328125,0.0348052978515625,1,0.97
2020-05-16 12:36:41.372 -0400,10738.16201766667,0.374176025390625,0.129608154296875,0.0015716552734375,1,0.97
2020-05-16 12:36:41.492 -0400,10738.28172666667,0.6392974853515625,0.1903076171875,0.0735321044921875,1,0.97
2020-05-16 12:36:41.612 -0400,10738.40143566667,1.727249145507812,0.8131256103515625,0.06787109375,1,0.97
2020-05-16 12:36:41.731 -0400,10738.52114766667,1.204360961914062,1.634445190429688,-0.371246337890625,1,0.97
2020-05-16 12:36:41.851 -0400,10738.64085666667,0.40875244140625,0.6803436279296875,0.0442657470703125,1,0.97
2020-05-16 12:36:41.971 -0400,10738.76056666667,0.2638397216796875,0.6480865478515625,-0.071990966796875,1,0.97
2020-05-16 12:36:42.090 -0400,10738.88028566667,1.5118408203125,1.0882568359375,-0.3945770263671875,1,0.97
2020-05-16 12:36:42.210 -0400,10739.00001266667,1.961807250976562,0.236175537109375,-0.082183837890625,1,0.97
2020-05-16 12:36:42.330 -0400,10739.11974366667,0.7696075439453125,0.1555328369140625,0.208526611328125,1,0.97
2020-05-16 12:36:42.450 -0400,10739.23946466667,0.393707275390625,-0.02825927734375,0.156768798828125,1,0.97
2020-05-16 12:36:42.570 -0400,10739.35918166667,0.7167816162109375,0.1679840087890625,0.02301025390625,1,0.97
2020-05-16 12:36:42.689 -0400,10739.47890066667,1.449417114257812,0.6173095703125,-0.5989990234375,1,0.97
2020-05-16 12:36:42.809 -0400,10739.59862166667,0.9578094482421875,0.6962127685546875,-0.3165130615234375,1,0.97
2020-05-16 12:36:42.929 -0400,10739.71834966667,0.305419921875,1.183502197265625,-0.21435546875,1,0.97
2020-05-16 12:36:43.048 -0400,10739.83807166667,0.821868896484375,0.8044891357421875,0.075836181640625,1,0.97
2020-05-16 12:36:43.168 -0400,10739.95779466667,2.090072631835938,0.5361328125,0.62506103515625,1,0.97
2020-05-16 12:36:43.288 -0400,10740.07752366667,0.8741607666015625,0.5015716552734375,0.0673980712890625,1,0.97
2020-05-16 12:36:43.407 -0400,10740.197248125,0.5061492919921875,-0.0094146728515625,0.06475830078125,1,0.97
2020-05-16 12:36:43.527 -0400,10740.316972125,0.8688507080078125,-0.03851318359375,-0.0832366943359375,1,0.97
2020-05-16 12:36:43.647 -0400,10740.436700125,1.523330688476562,0.747955322265625,-0.4181365966796875,1,0.97
2020-05-16 12:36:43.767 -0400,10740.556425125,1.085479736328125,0.4525299072265625,-0.0017852783203125,1,0.97
2020-05-16 12:36:43.887 -0400,10740.676146125,0.5254669189453125,0.4779205322265625,-0.037841796875,1,0.97
2020-05-16 12:36:44.006 -0400,10740.795861125,0.344696044921875,0.453857421875,-0.030059814453125,1,0.97
2020-05-16 12:36:44.126 -0400,10740.915585125,0.958038330078125,0.6426544189453125,-0.0339508056640625,1,0.97
2020-05-16 12:36:44.246 -0400,10741.035311125,2.004852294921875,0.526519775390625,-0.630218505859375,1,0.97
2020-05-16 12:36:44.365 -0400,10741.15503529167,0.7106475830078125,0.26409912109375,-0.175262451171875,1,0.97
2020-05-16 12:36:44.485 -0400,10741.27475929167,0.26556396484375,-0.006988525390625,-0.0857696533203125,1,0.97
2020-05-16 12:36:44.605 -0400,10741.39449329167,0.65264892578125,0.1437225341796875,-0.0076141357421875,1,0.97
2020-05-16 12:36:44.724 -0400,10741.51422429167,1.469879150390625,0.739227294921875,-0.908782958984375,1,0.97
2020-05-16 12:36:44.844 -0400,10741.63394829167,0.842742919921875,0.3255615234375,-0.5084991455078125,1,0.97
2020-05-16 12:36:44.964 -0400,10741.75367629167,0.3148956298828125,0.5812225341796875,-0.3012542724609375,1,0.97
2020-05-16 12:36:45.084 -0400,10741.87340029167,0.7440338134765625,0.5108489990234375,-0.327423095703125,1,0.97
2020-05-16 12:36:45.203 -0400,10741.99311929167,1.453201293945312,0.4669342041015625,0.233917236328125,1,0.97
2020-05-16 12:36:45.325 -0400,10742.11284479167,1.019577026367188,0.468658447265625,0.0360107421875,1,0.97
2020-05-16 12:36:45.443 -0400,10742.23256679167,0.4981689453125,0.2008514404296875,0.1026763916015625,1,0.97
2020-05-16 12:36:45.562 -0400,10742.35229379167,0.4388275146484375,0.1968536376953125,0.036956787109375,1,0.97
2020-05-16 12:36:45.682 -0400,10742.47202279167,0.99090576171875,0.1917572021484375,-0.0276336669921875,1,0.97
2020-05-16 12:36:45.802 -0400,10742.59175679167,1.913345336914062,0.50592041015625,-0.8598175048828125,1,0.97
2020-05-16 12:36:45.922 -0400,10742.71148279167,0.6324005126953125,0.422515869140625,-0.2374114990234375,1,0.97
2020-05-16 12:36:46.041 -0400,10742.83120479167,0.233642578125,0.5082855224609375,-0.1310577392578125,1,0.97
2020-05-16 12:36:46.161 -0400,10742.95092579167,0.645477294921875,0.6038665771484375,-0.0636138916015625,1,0.97
2020-05-16 12:36:46.281 -0400,10743.07064679167,1.686553955078125,0.606475830078125,-0.058074951171875,1,0.97
2020-05-16 12:36:46.401 -0400,10743.190373625,1.219390869140625,0.4864654541015625,-0.0488433837890625,1,0.97
2020-05-16 12:36:46.520 -0400,10743.310098625,0.545654296875,0.0761871337890625,0.080963134765625,1,0.97
2020-05-16 12:36:46.640 -0400,10743.429831625,0.4084014892578125,0.1953125,0.0769805908203125,1,0.97
2020-05-16 12:36:46.760 -0400,10743.549560625,1.307998657226562,0.4557342529296875,0.1340484619140625,1,0.97
2020-05-16 12:36:46.880 -0400,10743.669287625,2.541122436523438,0.67523193359375,-0.416259765625,1,0.97
2020-05-16 12:36:46.999 -0400,10743.789011625,0.7458953857421875,0.8008575439453125,-0.3696746826171875,1,0.97
2020-05-16 12:36:47.119 -0400,10743.908731625,0.7004547119140625,0.4298248291015625,-0.18206787109375,1,0.97
2020-05-16 12:36:47.244 -0400,10744.028451625,0.5908355712890625,0.461822509765625,-0.1234893798828125,1,0.97
2020-05-16 12:36:47.358 -0400,10744.14817191667,0.811981201171875,0.466278076171875,-0.2323455810546875,1,0.97
2020-05-16 12:36:47.478 -0400,10744.26788991667,1.870086669921875,0.025299072265625,-0.19879150390625,1,0.97
2020-05-16 12:36:47.598 -0400,10744.38761491667,0.8398895263671875,0.368377685546875,-0.01654052734375,1,0.97
2020-05-16 12:36:47.718 -0400,10744.50734491667,0.566253662109375,0.2138671875,0.114837646484375,1,0.97
2020-05-16 12:36:47.837 -0400,10744.62707291667,0.8048248291015625,0.2112884521484375,0.0415802001953125,1,0.97
2020-05-16 12:36:47.957 -0400,10744.74680191667,0.875457763671875,0.6847991943359375,-0.595184326171875,1,0.97
2020-05-16 12:36:48.077 -0400,10744.86652991667,1.221771240234375,0.27777099609375,-0.536956787109375,1,0.97
2020-05-16 12:36:48.196 -0400,10744.98626391667,0.5515899658203125,0.7384185791015625,-0.9647369384765625,1,0.97
2020-05-16 12:36:48.316 -0400,10745.10598291667,1.000961303710938,0.734039306640625,-0.1727294921875,1,0.97
2020-05-16 12:36:48.436 -0400,10745.2257035,1.730148315429688,0.2516326904296875,-0.1149749755859375,1,0.97
2020-05-16 12:36:48.556 -0400,10745.3454205,0.789276123046875,0.4734039306640625,0.075225830078125,1,0.97
2020-05-16 12:36:48.675 -0400,10745.4651425,0.821624755859375,0.125518798828125,0.071319580078125,1,0.97
2020-05-16 12:36:48.795 -0400,10745.5848675,1.020736694335938,0.012451171875,0.1089019775390625,1,0.97
2020-05-16 12:36:48.915 -0400,10745.7045895,1.882171630859375,-0.0364532470703125,-0.944122314453125,1,0.97
2020-05-16 12:36:49.035 -0400,10745.8243115,0.9483642578125,0.125274658203125,-0.470977783203125,1,0.97
2020-05-16 12:36:49.154 -0400,10745.9440375,0.6825103759765625,0.7805328369140625,-0.0218353271484375,1,0.97
2020-05-16 12:36:49.274 -0400,10746.0637605,0.0820770263671875,0.8384552001953125,-0.2142791748046875,1,0.97
2020-05-16 12:36:49.394 -0400,10746.183481125,1.170578002929688,-0.078704833984375,0.5882415771484375,1,0.97
2020-05-16 12:36:49.513 -0400,10746.303207125,1.820877075195312,0.5926971435546875,-0.040496826171875,1,0.97
2020-05-16 12:36:49.633 -0400,10746.422929125,0.484130859375,0.04595947265625,-0.009735107421875,1,0.97
2020-05-16 12:36:49.753 -0400,10746.542646125,0.560333251953125,0.26019287109375,0.053558349609375,1,0.97
2020-05-16 12:36:49.873 -0400,10746.662359125,0.8670654296875,0.19561767578125,-0.1334991455078125,1,0.97
2020-05-16 12:36:49.992 -0400,10746.782072125,1.549758911132812,1.019363403320312,-0.37554931640625,1,0.97
2020-05-16 12:36:50.112 -0400,10746.901792125,0.7132568359375,0.64373779296875,-0.0522918701171875,1,0.97
2020-05-16 12:36:50.232 -0400,10747.021510125,0.31646728515625,0.6626129150390625,-0.2258453369140625,1,0.97
2020-05-16 12:36:50.351 -0400,10747.141227125,0.433013916015625,0.591644287109375,-0.0953369140625,1,0.97
2020-05-16 12:36:50.471 -0400,10747.260941125,1.945816040039062,0.4415130615234375,-0.2130889892578125,1,0.97
2020-05-16 12:36:50.591 -0400,10747.380661125,1.359420776367188,0.1586456298828125,0.033721923828125,1,0.97
2020-05-16 12:36:50.711 -0400,10747.500386125,0.6327972412109375,-0.1457061767578125,-0.1462860107421875,1,0.97
2020-05-16 12:36:50.830 -0400,10747.620110125,0.613006591796875,0.09844970703125,0.10638427734375,1,0.97
2020-05-16 12:36:50.950 -0400,10747.739833125,1.570846557617188,0.7339324951171875,-0.111175537109375,1,0.97
2020-05-16 12:36:51.070 -0400,10747.859550125,1.069656372070312,0.9166412353515625,0.0355377197265625,1,0.97
2020-05-16 12:36:51.189 -0400,10747.979266125,0.467864990234375,0.6543731689453125,-0.154510498046875,1,0.97
2020-05-16 12:36:51.309 -0400,10748.098977125,1.52667236328125,0.47393798828125,0.186004638671875,1,0.97
2020-05-16 12:36:51.429 -0400,10748.218690875,1.486968994140625,0.42340087890625,0.0456085205078125,1,0.97
2020-05-16 12:36:51.549 -0400,10748.338406875,0.77276611328125,0.1645965576171875,0.1975555419921875,1,0.97
2020-05-16 12:36:51.668 -0400,10748.458123875,0.71343994140625,0.1161651611328125,0.217193603515625,1,0.97
2020-05-16 12:36:51.788 -0400,10748.577837875,0.9143218994140625,0.275421142578125,0.073516845703125,1,0.97
2020-05-16 12:36:51.908 -0400,10748.697552875,2.076919555664062,0.4404144287109375,-0.198944091796875,1,0.97
2020-05-16 12:36:52.028 -0400,10748.817263875,0.806549072265625,0.501007080078125,-0.2819976806640625,1,0.97
2020-05-16 12:36:52.147 -0400,10748.936974875,0.57037353515625,0.3813018798828125,-0.13531494140625,1,0.97
2020-05-16 12:36:52.267 -0400,10749.056696875,0.5223388671875,0.440277099609375,-0.1573944091796875,1,0.97
2020-05-16 12:36:52.387 -0400,10749.17641491667,2.5264892578125,0.7172393798828125,-0.0939178466796875,1,0.97
2020-05-16 12:36:52.506 -0400,10749.29613391667,1.500625610351562,0.4814300537109375,-0.398223876953125,1,0.97
2020-05-16 12:36:52.626 -0400,10749.41584891667,0.711639404296875,0.113739013671875,-0.0553741455078125,1,0.97
2020-05-16 12:36:52.746 -0400,10749.53556891667,0.32781982421875,0.1110992431640625,-0.028839111328125,1,0.97
2020-05-16 12:36:52.866 -0400,10749.65528491667,1.154937744140625,0.328887939453125,-0.0133056640625,1,0.97
2020-05-16 12:36:52.985 -0400,10749.77499791667,1.815032958984375,0.11553955078125,-0.246337890625,1,0.97
2020-05-16 12:36:53.105 -0400,10749.89471491667,0.85052490234375,0.6437530517578125,-0.208740234375,1,0.97
2020-05-16 12:36:53.225 -0400,10750.01442591667,0.4901123046875,0.59674072265625,-0.234344482421875,1,0.97
2020-05-16 12:36:53.344 -0400,10750.134146625,1.115615844726562,0.7173004150390625,-0.2212677001953125,1,0.97
2020-05-16 12:36:53.464 -0400,10750.253868625,1.784210205078125,0.3458404541015625,-0.22119140625,1,0.97
2020-05-16 12:36:53.584 -0400,10750.373584625,0.99700927734375,0.19818115234375,0.1851959228515625,1,0.97
2020-05-16 12:36:53.704 -0400,10750.493302625,0.553070068359375,0.0602264404296875,0.1636962890625,1,0.97
2020-05-16 12:36:53.823 -0400,10750.613024625,0.82940673828125,0.3562164306640625,0.0861358642578125,1,0.97
2020-05-16 12:36:53.943 -0400,10750.732732625,1.096054077148438,0.763397216796875,-0.35638427734375,1,0.97
2020-05-16 12:36:54.063 -0400,10750.852444625,0.7786712646484375,0.5800323486328125,-0.395751953125,1,0.97
2020-05-16 12:36:54.182 -0400,10750.972157625,0.652740478515625,0.6579437255859375,-0.06573486328125,1,0.97
2020-05-16 12:36:54.302 -0400,10751.091871625,0.8127288818359375,0.5443572998046875,-0.1212005615234375,1,0.97
2020-05-16 12:36:54.422 -0400,10751.211588,1.654769897460938,0.698272705078125,-0.0215301513671875,1,0.97
2020-05-16 12:36:54.542 -0400,10751.331301,1.210556030273438,0.514556884765625,-0.12005615234375,1,0.97
2020-05-16 12:36:54.661 -0400,10751.451011,0.539703369140625,0.179107666015625,0.0244903564453125,1,0.97
2020-05-16 12:36:54.781 -0400,10751.570721,0.549896240234375,0.1874847412109375,0.072265625,1,0.97
2020-05-16 12:36:54.901 -0400,10751.690433,1.03582763671875,0.819976806640625,-0.232391357421875,1,0.97
2020-05-16 12:36:55.021 -0400,10751.81015,0.901397705078125,0.411865234375,-0.1624755859375,1,0.97
2020-05-16 12:36:55.140 -0400,10751.92986,0.60009765625,0.576141357421875,-0.172607421875,1,0.97
2020-05-16 12:36:55.260 -0400,10752.049572,0.6212005615234375,0.4338226318359375,-0.17767333984375,1,0.97
2020-05-16 12:36:55.379 -0400,10752.169275375,1.104629516601562,0.5615234375,-0.231964111328125,1,0.97
2020-05-16 12:36:55.499 -0400,10752.288984375,1.58544921875,0.238372802734375,-0.0614166259765625,1,0.97
2020-05-16 12:36:55.619 -0400,10752.408690375,0.591217041015625,0.2926483154296875,0.0478973388671875,1,0.97
2020-05-16 12:36:55.739 -0400,10752.528402375,0.5260009765625,0.21087646484375,0.15216064453125,1,0.97
2020-05-16 12:36:55.858 -0400,10752.648113375,0.7675018310546875,0.2745361328125,0.1224822998046875,1,0.97
2020-05-16 12:36:55.978 -0400,10752.767823375,1.373489379882812,0.854156494140625,-0.642913818359375,1,0.97
2020-05-16 12:36:56.098 -0400,10752.887533375,0.9619293212890625,0.617645263671875,-0.3709869384765625,1,0.97
2020-05-16 12:36:56.217 -0400,10753.007246375,0.3941192626953125,0.3959503173828125,-0.320465087890625,1,0.97
2020-05-16 12:36:56.337 -0400,10753.1269475,0.939239501953125,0.4830169677734375,-0.2279052734375,1,0.97
2020-05-16 12:36:56.457 -0400,10753.2466505,1.683883666992188,0.531463623046875,-0.1857452392578125,1,0.97
2020-05-16 12:36:56.576 -0400,10753.3663505,1.284393310546875,0.395263671875,-0.0117950439453125,1,0.97
2020-05-16 12:36:56.696 -0400,10753.4860485,0.753204345703125,0.27130126953125,-0.108734130859375,1,0.97
2020-05-16 12:36:56.816 -0400,10753.6057455,0.7393035888671875,0.209259033203125,-0.0402679443359375,1,0.97
2020-05-16 12:36:56.936 -0400,10753.7254445,1.155380249023438,0.3559722900390625,-0.05419921875,1,0.97
2020-05-16 12:36:57.055 -0400,10753.8451455,1.426773071289062,0.4121551513671875,-0.5146331787109375,1,0.97
2020-05-16 12:36:57.175 -0400,10753.9648495,0.8463592529296875,0.4449615478515625,-0.257293701171875,1,0.97
2020-05-16 12:36:57.295 -0400,10754.0845575,0.569000244140625,0.517059326171875,-0.19635009765625,1,0.97
2020-05-16 12:36:57.414 -0400,10754.20426925,0.584228515625,0.4780426025390625,-0.3804473876953125,1,0.97
2020-05-16 12:36:57.534 -0400,10754.32397725,1.294631958007812,0.41400146484375,-0.3509521484375,1,0.97
2020-05-16 12:36:57.654 -0400,10754.44367825,1.612228393554688,0.12030029296875,-0.1747894287109375,1,0.97
2020-05-16 12:36:57.774 -0400,10754.56338125,0.73931884765625,0.101043701171875,0.006256103515625,1,0.97
2020-05-16 12:36:57.893 -0400,10754.68307625,0.4112091064453125,0.157470703125,-0.0250701904296875,1,0.97
2020-05-16 12:36:58.013 -0400,10754.80277925,0.41693115234375,0.188720703125,-0.1497344970703125,1,0.97
2020-05-16 12:36:58.133 -0400,10754.92247925,1.34222412109375,0.9722747802734375,-0.358489990234375,1,0.97
2020-05-16 12:36:58.256 -0400,10755.04218225,0.9979095458984375,0.8942413330078125,-0.7186279296875,1,0.97
2020-05-16 12:36:58.372 -0400,10755.16188525,0.4322509765625,0.1079864501953125,-0.294281005859375,1,0.97
2020-05-16 12:36:58.492 -0400,10755.28158925,0.486968994140625,0.446197509765625,-0.309844970703125,1,0.97
2020-05-16 12:36:58.612 -0400,10755.40129325,1.275848388671875,0.4068145751953125,-0.1613922119140625,1,0.97
2020-05-16 12:36:58.731 -0400,10755.52099625,1.198577880859375,0.50933837890625,-0.0929718017578125,1,0.97
2020-05-16 12:36:58.851 -0400,10755.64070025,0.7711944580078125,0.2883453369140625,0.0001678466796875,1,0.97
2020-05-16 12:36:58.971 -0400,10755.76040125,0.6453704833984375,0.275543212890625,-0.023040771484375,1,0.97
2020-05-16 12:36:59.090 -0400,10755.88010725,0.5818023681640625,0.293243408203125,0.0135650634765625,1,0.97
2020-05-16 12:36:59.210 -0400,10755.99981825,2.672012329101562,0.51800537109375,0.1229400634765625,1,0.97
2020-05-16 12:36:59.330 -0400,10756.11952325,1.14312744140625,0.6163330078125,-0.60565185546875,1,0.97
2020-05-16 12:36:59.450 -0400,10756.23922866667,0.4566650390625,0.2614288330078125,-0.45037841796875,1,0.97
2020-05-16 12:36:59.569 -0400,10756.35893566667,0.3979644775390625,0.4609832763671875,-0.4672088623046875,1,0.97
2020-05-16 12:36:59.689 -0400,10756.47864466667,3.121978759765625,1.253860473632812,-0.92950439453125,1,0.97
2020-05-16 12:36:59.809 -0400,10756.59834866667,1.299362182617188,0.2798004150390625,-0.164947509765625,1,0.97
2020-05-16 12:36:59.928 -0400,10756.71805866667,0.669158935546875,0.3013458251953125,0.0586090087890625,1,0.97
2020-05-16 12:37:00.048 -0400,10756.83776466667,0.673736572265625,0.1690826416015625,0.1361083984375,1,0.97
2020-05-16 12:37:00.168 -0400,10756.95747166667,0.5000762939453125,0.304840087890625,0.032135009765625,1,0.97
2020-05-16 12:37:00.295 -0400,10757.07718666667,1.433425903320312,0.5267333984375,-0.190582275390625,1,0.97
2020-05-16 12:37:00.407 -0400,10757.19690725,1.049057006835938,0.6942138671875,-0.5293731689453125,1,0.97
2020-05-16 12:37:00.527 -0400,10757.31662825,0.6383056640625,0.3966064453125,-0.3345489501953125,1,0.97
2020-05-16 12:37:00.647 -0400,10757.43634525,0.45965576171875,0.4815521240234375,-0.38018798828125,1,0.97
2020-05-16 12:37:00.767 -0400,10757.55606025,1.058837890625,0.4491729736328125,-0.224700927734375,1,0.97
2020-05-16 12:37:00.886 -0400,10757.67576425,1.539703369140625,0.4698486328125,-0.390960693359375,1,0.97
2020-05-16 12:37:01.006 -0400,10757.79547125,0.93597412109375,0.209686279296875,-0.054046630859375,1,0.97
2020-05-16 12:37:01.125 -0400,10757.91518225,0.419342041015625,0.186004638671875,-0.04791259765625,1,0.97
2020-05-16 12:37:01.245 -0400,10758.03488425,0.5138702392578125,0.2077484130859375,-0.1071624755859375,1,0.97
2020-05-16 12:37:01.365 -0400,10758.154593,1.014450073242188,0.8083343505859375,-0.514007568359375,1,0.97
2020-05-16 12:37:01.485 -0400,10758.274301,1.318939208984375,0.52734375,-0.3050994873046875,1,0.97
2020-05-16 12:37:01.604 -0400,10758.394015,0.6814727783203125,0.6597442626953125,-0.2400054931640625,1,0.97
2020-05-16 12:37:01.724 -0400,10758.513727,0.6279144287109375,0.6938629150390625,-0.2050018310546875,1,0.97
2020-05-16 12:37:01.844 -0400,10758.633434,1.851821899414062,1.087081909179688,-0.460845947265625,1,0.97
2020-05-16 12:37:01.964 -0400,10758.753142,1.68408203125,0.5089874267578125,-0.2179107666015625,1,0.97
2020-05-16 12:37:02.083 -0400,10758.872846,0.798187255859375,0.30615234375,-0.077362060546875,1,0.97
2020-05-16 12:37:02.203 -0400,10758.992549,0.6714324951171875,0.222320556640625,0.0415496826171875,1,0.97
2020-05-16 12:37:02.323 -0400,10759.112261,0.7400970458984375,0.258880615234375,0.060791015625,1,0.97
2020-05-16 12:37:02.442 -0400,10759.231973375,0.7062225341796875,0.702239990234375,-0.551849365234375,1,0.97
2020-05-16 12:37:02.562 -0400,10759.351683375,1.225067138671875,0.476959228515625,-0.4844207763671875,1,0.97
2020-05-16 12:37:02.682 -0400,10759.471396375,0.6726531982421875,0.408355712890625,-0.3163299560546875,1,0.97
2020-05-16 12:37:02.801 -0400,10759.591109375,0.75823974609375,0.3057403564453125,-0.3789215087890625,1,0.97
2020-05-16 12:37:02.921 -0400,10759.710827375,1.0321044921875,0.0673065185546875,-0.1457977294921875,1,0.97
2020-05-16 12:37:03.041 -0400,10759.830539375,0.233551025390625,0.28509521484375,-0.0345611572265625,1,0.97
2020-05-16 12:37:03.160 -0400,10759.950258375,1.783432006835938,0.6506500244140625,0.6728973388671875,1,0.97
2020-05-16 12:37:03.280 -0400,10760.069969375,0.75396728515625,0.60272216796875,0.00518798828125,1,0.97
2020-05-16 12:37:03.400 -0400,10760.18968179167,0.601318359375,0.1713104248046875,0.0246734619140625,1,0.97
2020-05-16 12:37:03.520 -0400,10760.30939379167,1.693252563476562,0.8216094970703125,-0.0494842529296875,1,0.97
2020-05-16 12:37:03.639 -0400,10760.42910479167,0.7727813720703125,0.318878173828125,-0.172698974609375,1,0.97
2020-05-16 12:37:03.759 -0400,10760.54881479167,0.4115142822265625,0.4817962646484375,-0.2327880859375,1,0.97
2020-05-16 12:37:03.879 -0400,10760.66852879167,0.5854034423828125,0.3556365966796875,-0.153411865234375,1,0.97
2020-05-16 12:37:03.998 -0400,10760.78824479167,1.548095703125,0.595947265625,-0.25592041015625,1,0.97
2020-05-16 12:37:04.118 -0400,10760.90795179167,1.774444580078125,0.3979949951171875,-0.288848876953125,1,0.97
2020-05-16 12:37:04.238 -0400,10761.02766079167,0.6130523681640625,0.2336578369140625,-0.1376953125,1,0.97
2020-05-16 12:37:04.358 -0400,10761.147369125,0.4331817626953125,0.1580963134765625,-0.059783935546875,1,0.97
2020-05-16 12:37:04.477 -0400,10761.267072125,0.56597900390625,0.28631591796875,-0.020965576171875,1,0.97
2020-05-16 12:37:04.597 -0400,10761.386778125,1.565200805664062,0.688995361328125,-0.13311767578125,1,0.97
2020-05-16 12:37:04.717 -0400,10761.506488125,1.064407348632812,0.6218414306640625,-0.364776611328125,1,0.97
2020-05-16 12:37:04.836 -0400,10761.626194125,0.5399017333984375,0.3606109619140625,-0.2616729736328125,1,0.97
2020-05-16 12:37:04.956 -0400,10761.745897125,0.636260986328125,0.65924072265625,-0.290283203125,1,0.97
2020-05-16 12:37:05.095 -0400,10761.865608125,1.164596557617188,0.487213134765625,-0.26165771484375,1,0.97
2020-05-16 12:37:05.196 -0400,10761.985315125,1.37371826171875,0.2171630859375,-0.1169891357421875,1,0.96
2020-05-16 12:37:05.315 -0400,10762.105023125,0.820648193359375,0.2901611328125,-0.01708984375,1,0.96
2020-05-16 12:37:05.435 -0400,10762.22473779167,0.4702606201171875,0.0328369140625,0.0356597900390625,1,0.96
2020-05-16 12:37:05.555 -0400,10762.34444579167,0.969390869140625,0.496673583984375,0.0273284912109375,1,0.96
2020-05-16 12:37:05.674 -0400,10762.46415179167,0.9323577880859375,0.7944793701171875,-0.3621063232421875,1,0.96
2020-05-16 12:37:05.795 -0400,10762.58385779167,0.8858489990234375,0.707305908203125,-0.202484130859375,1,0.96
2020-05-16 12:37:05.914 -0400,10762.70356279167,0.7122039794921875,0.6701202392578125,-0.2041168212890625,1,0.96
2020-05-16 12:37:06.034 -0400,10762.82326679167,0.629852294921875,0.5074462890625,-0.0172119140625,1,0.96
2020-05-16 12:37:06.153 -0400,10762.94297779167,1.447616577148438,0.3792877197265625,-0.047515869140625,1,0.96
2020-05-16 12:37:06.273 -0400,10763.06268879167,0.85748291015625,0.34765625,-0.0101318359375,1,0.96
2020-05-16 12:37:06.393 -0400,10763.182398125,0.4749755859375,0.1943206787109375,-0.1436614990234375,1,0.96
2020-05-16 12:37:06.512 -0400,10763.302107125,1.19537353515625,0.166259765625,0.0749053955078125,1,0.96
2020-05-16 12:37:06.632 -0400,10763.421814125,1.815628051757812,0.4389190673828125,-0.894561767578125,1,0.96
2020-05-16 12:37:06.752 -0400,10763.541522125,0.6173553466796875,0.4661712646484375,-0.1311798095703125,1,0.96
2020-05-16 12:37:06.872 -0400,10763.661232125,0.533782958984375,0.49871826171875,-0.1420135498046875,1,0.96
2020-05-16 12:37:06.991 -0400,10763.780944125,0.736358642578125,0.6413116455078125,-0.2126312255859375,1,0.96
2020-05-16 12:37:07.111 -0400,10763.900658125,1.85906982421875,0.4404144287109375,-0.078155517578125,1,0.96
2020-05-16 12:37:07.231 -0400,10764.020373125,1.367218017578125,0.3730010986328125,-0.039520263671875,1,0.96
2020-05-16 12:37:07.350 -0400,10764.14009029167,0.4630889892578125,0.2719879150390625,-0.0328369140625,1,0.96
2020-05-16 12:37:07.470 -0400,10764.25981029167,0.4475860595703125,0.0648651123046875,-0.007232666015625,1,0.96
2020-05-16 12:37:07.590 -0400,10764.37953229167,0.6380615234375,0.522216796875,-0.0056915283203125,1,0.96
2020-05-16 12:37:07.710 -0400,10764.49925029167,1.378494262695312,0.903717041015625,-0.8663330078125,1,0.96
2020-05-16 12:37:07.829 -0400,10764.61896729167,1.034957885742188,0.774871826171875,-0.3777618408203125,1,0.96
2020-05-16 12:37:07.949 -0400,10764.73868729167,0.4508209228515625,0.6562042236328125,-0.3270111083984375,1,0.96
2020-05-16 12:37:08.069 -0400,10764.85840229167,1.712432861328125,1.033157348632812,-0.623291015625,1,0.96
2020-05-16 12:37:08.188 -0400,10764.97811829167,1.58892822265625,0.4207305908203125,-0.23077392578125,1,0.96
2020-05-16 12:37:08.308 -0400,10765.09784829167,1.077850341796875,0.298492431640625,0.095733642578125,1,0.96
2020-05-16 12:37:08.428 -0400,10765.217577,0.5749359130859375,0.0448760986328125,0.12408447265625,1,0.96
2020-05-16 12:37:08.548 -0400,10765.337305,0.37060546875,0.1245574951171875,0.085845947265625,1,0.96
2020-05-16 12:37:08.667 -0400,10765.457031,1.971817016601562,1.03326416015625,-0.1124420166015625,1,0.96
2020-05-16 12:37:08.787 -0400,10765.576746,1.219680786132812,1.017318725585938,-0.606903076171875,1,0.96
2020-05-16 12:37:08.907 -0400,10765.696465,0.5579833984375,0.46539306640625,-0.40106201171875,1,0.96
2020-05-16 12:37:09.027 -0400,10765.816187,0.52020263671875,0.4727630615234375,-0.4266204833984375,1,0.96
2020-05-16 12:37:09.146 -0400,10765.935897,1.62518310546875,0.4984283447265625,-0.3802947998046875,1,0.96
2020-05-16 12:37:09.266 -0400,10766.055604,1.1865234375,0.2902069091796875,-0.3501434326171875,1,0.96
2020-05-16 12:37:09.386 -0400,10766.175315125,0.6424560546875,0.176605224609375,0.0695343017578125,1,0.96
2020-05-16 12:37:09.505 -0400,10766.295034125,0.4191436767578125,0.20416259765625,0.0633544921875,1,0.96
2020-05-16 12:37:09.625 -0400,10766.414755125,0.5838165283203125,0.305084228515625,0.046478271484375,1,0.96
2020-05-16 12:37:09.745 -0400,10766.534472125,1.271499633789062,0.6225128173828125,-0.4055023193359375,1,0.96
2020-05-16 12:37:09.865 -0400,10766.654195125,1.201507568359375,0.447418212890625,-0.593109130859375,1,0.96
2020-05-16 12:37:09.984 -0400,10766.773918125,0.4698028564453125,0.4295806884765625,-0.29168701171875,1,0.96
2020-05-16 12:37:10.104 -0400,10766.893649125,0.3973846435546875,0.5491485595703125,-0.302001953125,1,0.96
2020-05-16 12:37:10.224 -0400,10767.013375125,1.161575317382812,0.3539886474609375,-0.277008056640625,1,0.96
2020-05-16 12:37:10.343 -0400,10767.1331035,1.288009643554688,0.328033447265625,-0.0848541259765625,1,0.96
2020-05-16 12:37:10.463 -0400,10767.2528285,0.6526641845703125,0.45916748046875,0.05682373046875,1,0.96
2020-05-16 12:37:10.583 -0400,10767.3725535,0.5225982666015625,0.1938018798828125,-0.0372161865234375,1,0.96
2020-05-16 12:37:10.703 -0400,10767.4922825,0.4999542236328125,0.248626708984375,-0.0070648193359375,1,0.96
2020-05-16 12:37:10.823 -0400,10767.6120195,1.215850830078125,0.418975830078125,0.0490875244140625,1,0.96
2020-05-16 12:37:10.942 -0400,10767.7317475,1.580581665039062,0.6883544921875,-1.0408935546875,1,0.96
2020-05-16 12:37:11.066 -0400,10767.8514715,0.4694976806640625,0.462005615234375,-0.3420257568359375,1,0.96
2020-05-16 12:37:11.181 -0400,10767.9711945,0.4741668701171875,0.44866943359375,-0.419708251953125,1,0.96
2020-05-16 12:37:11.301 -0400,10768.0909135,0.7467193603515625,0.34228515625,-0.2158966064453125,1,0.96
2020-05-16 12:37:11.421 -0400,10768.21064191667,0.91845703125,0.3277740478515625,-0.39990234375,1,0.96
2020-05-16 12:37:11.541 -0400,10768.33036591667,1.505722045898438,0.12579345703125,-0.2464447021484375,1,0.96
2020-05-16 12:37:11.660 -0400,10768.45008991667,0.953369140625,0.520294189453125,-0.1301727294921875,1,0.96
2020-05-16 12:37:11.780 -0400,10768.56981291667,0.4373321533203125,0.209259033203125,-0.0062408447265625,1,0.96
2020-05-16 12:37:11.900 -0400,10768.68953391667,0.274383544921875,0.1250152587890625,0.05499267578125,1,0.96
2020-05-16 12:37:12.020 -0400,10768.80925391667,0.5461883544921875,0.8840179443359375,-0.2413482666015625,1,0.96
2020-05-16 12:37:12.139 -0400,10768.92897391667,1.920928955078125,1.019638061523438,-0.7882843017578125,1,0.96
2020-05-16 12:37:12.259 -0400,10769.04869691667,0.6598968505859375,0.3701019287109375,-0.462615966796875,1,0.96
2020-05-16 12:37:12.379 -0400,10769.168420125,0.2688751220703125,0.6126708984375,-0.342376708984375,1,0.96
2020-05-16 12:37:12.498 -0400,10769.288147125,0.773345947265625,0.3379058837890625,-0.2438507080078125,1,0.96
2020-05-16 12:37:12.618 -0400,10769.407874125,2.140289306640625,1.00848388671875,0.009124755859375,1,0.96
2020-05-16 12:37:12.738 -0400,10769.527598125,0.6902313232421875,0.7117919921875,0.04071044921875,1,0.96
2020-05-16 12:37:12.858 -0400,10769.647325125,0.5554046630859375,0.1107025146484375,0.0417633056640625,1,0.96
2020-05-16 12:37:12.977 -0400,10769.767046125,0.5947265625,0.323944091796875,0.0350494384765625,1,0.96
2020-05-16 12:37:13.097 -0400,10769.886761125,0.7269439697265625,0.4657135009765625,-0.0529632568359375,1,0.96
2020-05-16 12:37:13.217 -0400,10770.006479125,0.787841796875,0.43353271484375,-0.1533203125,1,0.96
2020-05-16 12:37:13.337 -0400,10770.126192125,1.106430053710938,0.3725128173828125,-0.24658203125,1,0.96
2020-05-16 12:37:13.456 -0400,10770.245907,1.037506103515625,0.68475341796875,-0.84637451171875,1,0.96
2020-05-16 12:37:13.576 -0400,10770.365621,0.5198974609375,0.0439605712890625,-0.3322906494140625,1,0.96
2020-05-16 12:37:13.696 -0400,10770.485335,0.081268310546875,0.1161651611328125,-0.2892303466796875,1,0.96
2020-05-16 12:37:13.815 -0400,10770.605054,0.9751129150390625,0.49066162109375,0.0484619140625,1,0.96
2020-05-16 12:37:13.935 -0400,10770.724783,1.504318237304688,0.458251953125,-0.2579345703125,1,0.96
2020-05-16 12:37:14.055 -0400,10770.844512,0.7223968505859375,0.1676483154296875,-0.1080780029296875,1,0.96
2020-05-16 12:37:14.174 -0400,10770.964234,0.3427276611328125,0.223297119140625,-0.061676025390625,1,0.96
2020-05-16 12:37:14.294 -0400,10771.083956,0.997314453125,0.1585693359375,0.198883056640625,1,0.96
2020-05-16 12:37:14.414 -0400,10771.20367975,1.467422485351562,0.41143798828125,-0.826446533203125,1,0.96
2020-05-16 12:37:14.534 -0400,10771.32340175,0.7801361083984375,0.5593109130859375,-0.3390960693359375,1,0.96
2020-05-16 12:37:14.653 -0400,10771.44311875,0.40350341796875,0.42095947265625,-0.230316162109375,1,0.96
2020-05-16 12:37:14.773 -0400,10771.56283875,0.8866729736328125,0.531951904296875,-0.2029571533203125,1,0.96
2020-05-16 12:37:14.893 -0400,10771.68256475,1.151107788085938,0.2195892333984375,-0.28369140625,1,0.96
2020-05-16 12:37:15.013 -0400,10771.80229275,0.931976318359375,0.3766632080078125,-0.11444091796875,1,0.96
2020-05-16 12:37:15.132 -0400,10771.92201175,0.8267669677734375,0.2260284423828125,0.0385894775390625,1,0.96
2020-05-16 12:37:15.252 -0400,10772.04173475,0.41387939453125,0.268707275390625,-0.0164794921875,1,0.96
2020-05-16 12:37:15.372 -0400,10772.16146325,0.5564117431640625,0.329315185546875,-0.04974365234375,1,0.96
2020-05-16 12:37:15.491 -0400,10772.28119225,1.756118774414062,0.8707275390625,-0.4879302978515625,1,0.96
2020-05-16 12:37:15.611 -0400,10772.40091725,0.8538665771484375,0.2887725830078125,-0.2039642333984375,1,0.96
2020-05-16 12:37:15.731 -0400,10772.52064325,0.4189910888671875,0.706512451171875,-0.5616607666015625,1,0.96
2020-05-16 12:37:15.851 -0400,10772.64036925,1.012542724609375,0.4180755615234375,-0.5778656005859375,1,0.96
2020-05-16 12:37:15.970 -0400,10772.76009625,1.902572631835938,0.3232421875,-0.1498260498046875,1,0.96
2020-05-16 12:37:16.090 -0400,10772.87982625,1.583099365234375,0.627960205078125,0.1043701171875,1,0.96
2020-05-16 12:37:16.221 -0400,10772.99955925,0.65155029296875,0.2534637451171875,0.0461883544921875,1,0.96
2020-05-16 12:37:16.330 -0400,10773.11929225,0.360504150390625,0.0299530029296875,0.0489349365234375,1,0.96
2020-05-16 12:37:16.449 -0400,10773.23902316667,0.999359130859375,0.505584716796875,0.0142974853515625,1,0.96
2020-05-16 12:37:16.569 -0400,10773.35875016667,1.148452758789062,0.6933746337890625,-0.92584228515625,1,0.96
2020-05-16 12:37:16.689 -0400,10773.47847916667,1.043426513671875,0.490570068359375,-0.337799072265625,1,0.96
2020-05-16 12:37:16.808 -0400,10773.59820416667,0.65679931640625,0.4672088623046875,-0.5659942626953125,1,0.96
2020-05-16 12:37:16.928 -0400,10773.71793116667,0.9240875244140625,0.5593719482421875,-0.3153839111328125,1,0.96
2020-05-16 12:37:17.048 -0400,10773.83765816667,1.601699829101562,0.36517333984375,-0.340545654296875,1,0.96
2020-05-16 12:37:17.168 -0400,10773.95738916667,1.00726318359375,0.2966461181640625,-0.108123779296875,1,0.96
2020-05-16 12:37:17.287 -0400,10774.07711516667,0.358489990234375,0.2511444091796875,-0.000885009765625,1,0.96
2020-05-16 12:37:17.407 -0400,10774.19683675,0.4258575439453125,0.17999267578125,0.0373687744140625,1,0.96
2020-05-16 12:37:17.527 -0400,10774.31656475,2.247756958007812,0.7822418212890625,3.0517578125e-05,1,0.96
2020-05-16 12:37:17.647 -0400,10774.43629175,1.199951171875,0.4356231689453125,-0.4178466796875,1,0.96
2020-05-16 12:37:17.766 -0400,10774.55601775,0.3844451904296875,0.5445404052734375,-0.290863037109375,1,0.96
2020-05-16 12:37:17.886 -0400,10774.67574275,0.39276123046875,0.45330810546875,-0.413970947265625,1,0.96
2020-05-16 12:37:18.006 -0400,10774.79546875,1.009811401367188,0.4129180908203125,-0.2711639404296875,1,0.96
2020-05-16 12:37:18.125 -0400,10774.91519775,1.729232788085938,0.5169219970703125,-0.1049957275390625,1,0.96
2020-05-16 12:37:18.245 -0400,10775.03492175,0.9739532470703125,0.4599151611328125,-0.0032958984375,1,0.96
2020-05-16 12:37:18.365 -0400,10775.154638,0.51934814453125,0.2088775634765625,0.0976715087890625,1,0.96
2020-05-16 12:37:18.485 -0400,10775.274352,0.403594970703125,0.1559906005859375,0.0750579833984375,1,0.96
2020-05-16 12:37:18.604 -0400,10775.394067,0.4142913818359375,0.26611328125,0.084075927734375,1,0.96
2020-05-16 12:37:18.724 -0400,10775.513792,2.701675415039062,1.487060546875,-0.443450927734375,1,0.96
2020-05-16 12:37:18.844 -0400,10775.633514,1.08001708984375,0.334564208984375,-0.41796875,1,0.96
2020-05-16 12:37:18.964 -0400,10775.753234,0.2705078125,0.31195068359375,-0.4762725830078125,1,0.96
2020-05-16 12:37:19.086 -0400,10775.872957,0.5065155029296875,0.180694580078125,-0.2087554931640625,1,0.96
2020-05-16 12:37:19.203 -0400,10775.992685,1.055099487304688,0.5424041748046875,0.0008697509765625,1,0.96
2020-05-16 12:37:19.323 -0400,10776.112409,2.130081176757812,0.7504730224609375,-0.2076263427734375,1,0.96
2020-05-16 12:37:19.442 -0400,10776.232137125,1.378021240234375,0.3958587646484375,-0.4822845458984375,1,0.96
2020-05-16 12:37:19.562 -0400,10776.351865125,0.516326904296875,0.147918701171875,-0.1897430419921875,1,0.96
2020-05-16 12:37:19.682 -0400,10776.471599125,0.241119384765625,0.20050048828125,-0.1335296630859375,1,0.96
2020-05-16 12:37:19.802 -0400,10776.591325125,0.412841796875,0.2355499267578125,-0.0579376220703125,1,0.96
2020-05-16 12:37:19.921 -0400,10776.711058125,1.770294189453125,1.00738525390625,-0.2181243896484375,1,0.96
2020-05-16 12:37:20.041 -0400,10776.830783125,1.513259887695312,0.4796295166015625,-0.584625244140625,1,0.96
2020-05-16 12:37:20.161 -0400,10776.950513125,0.2969970703125,0.5173492431640625,-0.2627105712890625,1,0.96
2020-05-16 12:37:20.281 -0400,10777.070243125,0.2647705078125,0.5539703369140625,-0.2906036376953125,1,0.96
2020-05-16 12:37:20.400 -0400,10777.189962625,0.714202880859375,0.5814361572265625,-0.162750244140625,1,0.96
2020-05-16 12:37:20.520 -0400,10777.309690625,1.7987060546875,0.4562530517578125,0.079010009765625,1,0.96
2020-05-16 12:37:20.658 -0400,10777.429422625,1.469497680664062,0.301971435546875,0.103607177734375,1,0.96
2020-05-16 12:37:20.761 -0400,10777.549144625,0.5606689453125,0.2207794189453125,-0.1474761962890625,1,0.96
2020-05-16 12:37:20.879 -0400,10777.668871625,0.6124114990234375,0.5987396240234375,-0.5721588134765625,1,0.96
2020-05-16 12:37:20.999 -0400,10777.788595625,0.0294189453125,0.4616851806640625,0.4714508056640625,1,0.96
2020-05-16 12:37:21.118 -0400,10777.908323625,-0.26007080078125,0.61798095703125,-0.0803985595703125,1,0.96
2020-05-16 12:37:21.238 -0400,10778.028052625,1.859085083007812,1.197830200195312,-0.665008544921875,1,0.96
2020-05-16 12:37:21.358 -0400,10778.147779625,0.727569580078125,0.7718963623046875,-0.215728759765625,1,0.96
2020-05-16 12:37:21.478 -0400,10778.267512625,0.38592529296875,0.6985931396484375,-0.391693115234375,1,0.96
2020-05-16 12:37:21.598 -0400,10778.387240625,2.035690307617188,0.4978179931640625,0.3014068603515625,1,0.96
2020-05-16 12:37:21.717 -0400,10778.506961625,1.127182006835938,0.433258056640625,0.005279541015625,1,0.96
2020-05-16 12:37:21.837 -0400,10778.626680625,0.543060302734375,0.182769775390625,0.0860748291015625,1,0.96
2020-05-16 12:37:21.957 -0400,10778.746411625,0.4445953369140625,0.1575927734375,0.0295867919921875,1,0.96
2020-05-16 12:37:22.076 -0400,10778.866145625,1.883346557617188,0.6709136962890625,0.1629486083984375,1,0.96
2020-05-16 12:37:22.196 -0400,10778.985873625,1.566909790039062,0.5913238525390625,-0.2471466064453125,1,0.96
2020-05-16 12:37:22.316 -0400,10779.105601625,0.5205078125,0.5390472412109375,-0.1944580078125,1,0.96
2020-05-16 12:37:22.436 -0400,10779.225324875,0.58978271484375,0.571685791015625,-0.09326171875,1,0.96
2020-05-16 12:37:22.555 -0400,10779.345050875,0.6669921875,0.5277099609375,-0.18389892578125,1,0.96
2020-05-16 12:37:22.675 -0400,10779.464772875,1.55426025390625,0.3459930419921875,-0.18548583984375,1,0.96
2020-05-16 12:37:22.795 -0400,10779.584495875,0.8335113525390625,0.353302001953125,-0.175537109375,1,0.96
2020-05-16 12:37:22.914 -0400,10779.704214875,0.557647705078125,0.117340087890625,-0.05743408203125,1,0.96
2020-05-16 12:37:23.034 -0400,10779.823931875,0.55670166015625,0.1651763916015625,-0.0798187255859375,1,0.96
2020-05-16 12:37:23.154 -0400,10779.943650875,1.364608764648438,0.864166259765625,-0.1888427734375,1,0.96
2020-05-16 12:37:23.274 -0400,10780.063371875,1.190902709960938,0.8063201904296875,-0.2917633056640625,1,0.96
2020-05-16 12:37:23.393 -0400,10780.1830845,0.611328125,0.5140838623046875,-0.3117523193359375,1,0.96
2020-05-16 12:37:23.513 -0400,10780.3027965,0.6663970947265625,0.611480712890625,-0.258941650390625,1,0.96
2020-05-16 12:37:23.633 -0400,10780.4225065,1.367034912109375,0.5424041748046875,-0.3505401611328125,1,0.96
2020-05-16 12:37:23.753 -0400,10780.5422135,1.199935913085938,0.2700347900390625,-0.2951202392578125,1,0.96
2020-05-16 12:37:23.872 -0400,10780.6619265,0.862213134765625,0.28570556640625,-0.031036376953125,1,0.96
2020-05-16 12:37:23.992 -0400,10780.7816465,0.5370635986328125,0.209747314453125,-0.0070648193359375,1,0.96
2020-05-16 12:37:24.112 -0400,10780.9013675,0.5306854248046875,0.2052154541015625,-0.0128936767578125,1,0.96
2020-05-16 12:37:24.231 -0400,10781.0210885,0.547149658203125,0.38360595703125,-0.02545166015625,1,0.96
2020-05-16 12:37:24.351 -0400,10781.1408095,1.52545166015625,1.284072875976562,-0.8862152099609375,1,0.96
2020-05-16 12:37:24.471 -0400,10781.26052225,0.7743988037109375,0.1976776123046875,-0.2105560302734375,1,0.96
2020-05-16 12:37:24.590 -0400,10781.38023325,0.3225555419921875,0.3517303466796875,-0.3734283447265625,1,0.96
2020-05-16 12:37:24.710 -0400,10781.49994525,0.7751007080078125,0.3297271728515625,-0.4134521484375,1,0.96
2020-05-16 12:37:24.830 -0400,10781.61966525,1.99151611328125,0.419708251953125,-0.1236724853515625,1,0.96
2020-05-16 12:37:24.950 -0400,10781.73938525,1.172760009765625,0.5451812744140625,-0.118560791015625,1,0.96
2020-05-16 12:37:25.070 -0400,10781.85910725,0.5255279541015625,0.3143768310546875,0.0130157470703125,1,0.96
2020-05-16 12:37:25.189 -0400,10781.97882125,0.7077484130859375,0.236785888671875,-0.018890380859375,1,0.96
2020-05-16 12:37:25.309 -0400,10782.09853725,0.7970733642578125,0.3363189697265625,-0.1107940673828125,1,0.96
2020-05-16 12:37:25.429 -0400,10782.218251,0.85565185546875,0.6253814697265625,-0.9366607666015625,1,0.96
2020-05-16 12:37:25.548 -0400,10782.337963,1.48162841796875,0.425079345703125,-0.11395263671875,1,0.96
2020-05-16 12:37:25.668 -0400,10782.457679,0.553070068359375,0.4095458984375,-0.3616790771484375,1,0.96
2020-05-16 12:37:25.789 -0400,10782.577393,0.427581787109375,0.469696044921875,-0.1519622802734375,1,0.96
2020-05-16 12:37:25.907 -0400,10782.697108,2.248764038085938,0.4347381591796875,-0.1258392333984375,1,0.96
2020-05-16 12:37:26.027 -0400,10782.816821,1.488067626953125,0.06500244140625,0.22998046875,1,0.96
2020-05-16 12:37:26.147 -0400,10782.936543,0.5731658935546875,0.3859710693359375,0.1192169189453125,1,0.96
2020-05-16 12:37:26.266 -0400,10783.056265,0.51580810546875,0.12384033203125,0.1466522216796875,1,0.96
2020-05-16 12:37:26.386 -0400,10783.175990875,0.48883056640625,0.278228759765625,0.1291351318359375,1,0.96
2020-05-16 12:37:26.506 -0400,10783.295714875,2.005462646484375,0.4763641357421875,0.0179595947265625,1,0.96
2020-05-16 12:37:26.626 -0400,10783.415443875,1.348419189453125,0.517791748046875,-0.3170318603515625,1,0.96
2020-05-16 12:37:26.745 -0400,10783.535167875,0.567230224609375,0.30596923828125,-0.535430908203125,1,0.96
2020-05-16 12:37:26.865 -0400,10783.654888875,0.4616241455078125,-0.02984619140625,-0.240203857421875,1,0.96
2020-05-16 12:37:26.985 -0400,10783.774610875,1.127777099609375,0.2701568603515625,-0.086456298828125,1,0.96
2020-05-16 12:37:27.105 -0400,10783.894332875,1.9964599609375,0.8304595947265625,0.001495361328125,1,0.96
2020-05-16 12:37:27.235 -0400,10784.014049875,1.069747924804688,0.498138427734375,-0.0657501220703125,1,0.96
2020-05-16 12:37:27.344 -0400,10784.133768875,0.4508819580078125,0.2121734619140625,-0.0153961181640625,1,0.96
2020-05-16 12:37:27.464 -0400,10784.25348416667,0.32928466796875,0.1552734375,0.0202789306640625,1,0.96
2020-05-16 12:37:27.583 -0400,10784.37321016667,0.3900604248046875,0.2745513916015625,-0.0501861572265625,1,0.96
2020-05-16 12:37:27.703 -0400,10784.49293316667,1.391754150390625,0.70751953125,-1.014450073242188,1,0.96
2020-05-16 12:37:27.823 -0400,10784.61264616667,0.78277587890625,0.57928466796875,-0.2725982666015625,1,0.96
2020-05-16 12:37:27.943 -0400,10784.73236216667,0.6672821044921875,0.419647216796875,-0.1834716796875,1,0.96
2020-05-16 12:37:28.062 -0400,10784.85207116667,0.508758544921875,0.4053497314453125,-0.32525634765625,1,0.96
2020-05-16 12:37:28.182 -0400,10784.97177916667,0.96820068359375,0.2130889892578125,-0.2053985595703125,1,0.96
2020-05-16 12:37:28.302 -0400,10785.09149616667,1.576065063476562,0.01727294921875,-0.2151947021484375,1,0.96
2020-05-16 12:37:28.421 -0400,10785.211218875,0.542755126953125,0.61053466796875,-0.0755767822265625,1,0.96
2020-05-16 12:37:28.541 -0400,10785.330939875,0.4124603271484375,0.17999267578125,-0.0018768310546875,1,0.96
2020-05-16 12:37:28.661 -0400,10785.450656875,0.9317779541015625,0.4453887939453125,0.0730743408203125,1,0.96
2020-05-16 12:37:28.781 -0400,10785.570367875,0.9547119140625,0.457366943359375,-0.340301513671875,1,0.96
2020-05-16 12:37:28.900 -0400,10785.690082875,1.688552856445312,0.4209442138671875,-0.9788055419921875,1,0.96
2020-05-16 12:37:29.020 -0400,10785.809797875,0.6204681396484375,0.1270751953125,-0.3405609130859375,1,0.96
2020-05-16 12:37:29.140 -0400,10785.929515875,0.5576629638671875,0.1844329833984375,-0.3206329345703125,1,0.96
2020-05-16 12:37:29.260 -0400,10786.049235875,0.709716796875,0.2994232177734375,-0.2366485595703125,1,0.96
2020-05-16 12:37:29.379 -0400,10786.16895725,1.054122924804688,0.315826416015625,-0.15814208984375,1,0.96
2020-05-16 12:37:29.499 -0400,10786.28867625,-0.0758819580078125,0.2189178466796875,-0.1573333740234375,1,0.96
2020-05-16 12:37:29.619 -0400,10786.40838725,2.952072143554688,1.617767333984375,-0.2899169921875,1,0.96
2020-05-16 12:37:29.738 -0400,10786.52810225,1.008056640625,0.9305419921875,-0.4210968017578125,1,0.96
2020-05-16 12:37:29.858 -0400,10786.64782225,0.5488433837890625,0.17132568359375,-0.0498809814453125,1,0.96
2020-05-16 12:37:29.978 -0400,10786.76754225,1.496536254882812,0.762451171875,-0.1459503173828125,1,0.96
2020-05-16 12:37:30.098 -0400,10786.88726325,1.001739501953125,0.3567657470703125,-0.0115966796875,1,0.96
2020-05-16 12:37:30.217 -0400,10787.00697625,0.4889068603515625,0.518646240234375,-0.2122344970703125,1,0.96
2020-05-16 12:37:30.337 -0400,10787.12668625,0.5664520263671875,0.2611541748046875,-0.180328369140625,1,0.96
2020-05-16 12:37:30.457 -0400,10787.2464085,0.5844573974609375,0.440338134765625,-0.2090911865234375,1,0.96
2020-05-16 12:37:30.577 -0400,10787.3661305,1.802703857421875,0.664154052734375,-0.404632568359375,1,0.96
2020-05-16 12:37:30.696 -0400,10787.4858535,1.584213256835938,0.19464111328125,-0.436004638671875,1,0.96
2020-05-16 12:37:30.816 -0400,10787.6055715,0.5320587158203125,0.269805908203125,-0.07354736328125,1,0.96
2020-05-16 12:37:30.935 -0400,10787.7252895,0.557891845703125,0.1540374755859375,0.0259857177734375,1,0.96
2020-05-16 12:37:31.055 -0400,10787.8450085,1.652511596679688,0.448211669921875,0.0727691650390625,1,0.96
2020-05-16 12:37:31.175 -0400,10787.9647285,1.1519775390625,0.22393798828125,-0.2471160888671875,1,0.96
2020-05-16 12:37:31.295 -0400,10788.0844425,0.6052093505859375,0.5337982177734375,-0.2357177734375,1,0.96
2020-05-16 12:37:31.415 -0400,10788.204154,0.575836181640625,0.582733154296875,-0.2940216064453125,1,0.96
2020-05-16 12:37:31.534 -0400,10788.32387,0.697662353515625,0.45751953125,-0.207794189453125,1,0.96
2020-05-16 12:37:31.654 -0400,10788.44359,2.584945678710938,0.8408966064453125,0.0640411376953125,1,0.96
2020-05-16 12:37:31.774 -0400,10788.563312,1.575531005859375,0.65985107421875,-0.3076629638671875,1,0.96
2020-05-16 12:37:31.893 -0400,10788.683029,0.531280517578125,0.0614471435546875,-0.0386199951171875,1,0.96
2020-05-16 12:37:32.013 -0400,10788.802746,0.3540496826171875,0.12591552734375,-0.0404205322265625,1,0.96
2020-05-16 12:37:32.133 -0400,10788.922459,0.7397918701171875,0.33544921875,0.189727783203125,1,0.96
2020-05-16 12:37:32.252 -0400,10789.042179,1.800094604492188,0.9332733154296875,-0.734375,1,0.96
2020-05-16 12:37:32.372 -0400,10789.16188941667,0.8264312744140625,0.4124298095703125,-0.3304443359375,1,0.96
2020-05-16 12:37:32.492 -0400,10789.28160241667,0.570953369140625,0.70159912109375,-0.3126373291015625,1,0.96
2020-05-16 12:37:32.612 -0400,10789.40131941667,0.917938232421875,0.8090362548828125,-0.359954833984375,1,0.96
2020-05-16 12:37:32.731 -0400,10789.52103841667,1.72918701171875,0.24249267578125,-0.2868804931640625,1,0.96
2020-05-16 12:37:32.851 -0400,10789.64075141667,1.217529296875,0.45892333984375,-0.3313751220703125,1,0.96
2020-05-16 12:37:32.971 -0400,10789.76046441667,0.3704376220703125,0.01318359375,0.0046234130859375,1,0.96
2020-05-16 12:37:33.091 -0400,10789.88018041667,0.23492431640625,-0.025177001953125,0.0506134033203125,1,0.96
2020-05-16 12:37:33.210 -0400,10789.99990041667,0.4292144775390625,0.652862548828125,-0.1416168212890625,1,0.96
2020-05-16 12:37:33.330 -0400,10790.11961641667,1.899703979492188,0.8857421875,-0.824981689453125,1,0.96
2020-05-16 12:37:33.450 -0400,10790.239327375,0.8475799560546875,0.5416259765625,-0.459228515625,1,0.96
2020-05-16 12:37:33.569 -0400,10790.359043375,0.345550537109375,0.8587493896484375,-0.3826751708984375,1,0.96
2020-05-16 12:37:33.689 -0400,10790.478758375,2.420578002929688,0.901214599609375,-0.1423492431640625,1,0.96
2020-05-16 12:37:33.809 -0400,10790.598472375,1.6146240234375,0.7805023193359375,-0.1761016845703125,1,0.96
2020-05-16 12:37:33.928 -0400,10790.718191375,1.203277587890625,0.2891693115234375,-0.0526885986328125,1,0.96
2020-05-16 12:37:34.048 -0400,10790.837913375,0.684967041015625,-0.01007080078125,0.005706787109375,1,0.96
2020-05-16 12:37:34.168 -0400,10790.957643375,0.1370391845703125,0.0981292724609375,-0.0322723388671875,1,0.96
2020-05-16 12:37:34.288 -0400,10791.077374375,0.96112060546875,0.83294677734375,-0.597198486328125,1,0.96
2020-05-16 12:37:34.407 -0400,10791.197102625,1.199234008789062,0.632659912109375,-0.4655914306640625,1,0.96
2020-05-16 12:37:34.527 -0400,10791.316832625,0.6536407470703125,0.647308349609375,-0.496978759765625,1,0.96
2020-05-16 12:37:34.647 -0400,10791.436561625,0.4558868408203125,0.65594482421875,-0.40838623046875,1,0.96
2020-05-16 12:37:34.767 -0400,10791.556289625,1.96087646484375,0.2158203125,0.085296630859375,1,0.96
2020-05-16 12:37:34.886 -0400,10791.676017625,1.36944580078125,0.6547088623046875,-0.0512847900390625,1,0.96
2020-05-16 12:37:35.006 -0400,10791.795749625,0.7284088134765625,0.246490478515625,0.0977020263671875,1,0.96
2020-05-16 12:37:35.126 -0400,10791.915480625,0.4181976318359375,0.0732574462890625,0.0794219970703125,1,0.96
2020-05-16 12:37:35.245 -0400,10792.035210625,0.39697265625,0.440887451171875,-0.2839202880859375,1,0.96
2020-05-16 12:37:35.365 -0400,10792.154940625,1.139785766601562,0.6790771484375,-0.634033203125,1,0.96
2020-05-16 12:37:35.485 -0400,10792.274675125,1.0908203125,0.6065521240234375,-0.5104522705078125,1,0.96
2020-05-16 12:37:35.605 -0400,10792.394407125,0.547607421875,0.48602294921875,-0.4509429931640625,1,0.96
2020-05-16 12:37:35.724 -0400,10792.514138125,0.53936767578125,0.7230224609375,-0.3268890380859375,1,0.96
2020-05-16 12:37:35.844 -0400,10792.633870125,2.468246459960938,0.978546142578125,-0.4954986572265625,1,0.96
2020-05-16 12:37:35.964 -0400,10792.753600125,1.894027709960938,0.4698333740234375,-0.08349609375,1,0.96
2020-05-16 12:37:36.084 -0400,10792.873325125,0.728118896484375,0.3069305419921875,0.009124755859375,1,0.96
2020-05-16 12:37:36.203 -0400,10792.993049125,0.5007476806640625,0.11322021484375,0.0886077880859375,1,0.96
2020-05-16 12:37:36.323 -0400,10793.112778125,0.40521240234375,0.157958984375,0.00634765625,1,0.96
2020-05-16 12:37:36.443 -0400,10793.232504875,1.833480834960938,0.7148284912109375,-0.0102691650390625,1,0.96
2020-05-16 12:37:36.563 -0400,10793.352227875,1.019012451171875,0.7359466552734375,-0.13067626953125,1,0.96
2020-05-16 12:37:36.682 -0400,10793.471959875,0.633331298828125,0.5305938720703125,-0.4361724853515625,1,0.96
2020-05-16 12:37:36.802 -0400,10793.591683875,0.3212890625,0.7442626953125,-0.4980316162109375,1,0.96
2020-05-16 12:37:36.922 -0400,10793.711415875,2.90155029296875,0.2406158447265625,0.0750579833984375,1,0.96
2020-05-16 12:37:37.041 -0400,10793.831146875,1.266204833984375,0.530426025390625,-0.182281494140625,1,0.96
2020-05-16 12:37:37.161 -0400,10793.950875875,0.6175689697265625,0.362213134765625,0.1907196044921875,1,0.96
2020-05-16 12:37:37.281 -0400,10794.070611875,0.5338897705078125,0.141632080078125,0.043487548828125,1,0.96
2020-05-16 12:37:37.401 -0400,10794.19035525,1.090133666992188,0.4268341064453125,-0.111297607421875,1,0.96
2020-05-16 12:37:37.520 -0400,10794.31009125,1.783615112304688,0.549041748046875,-0.5095367431640625,1,0.96
2020-05-16 12:37:37.640 -0400,10794.42981925,0.7974853515625,0.2574462890625,-0.3442840576171875,1,0.96
2020-05-16 12:37:37.760 -0400,10794.54955125,0.58941650390625,0.8793182373046875,-0.4070587158203125,1,0.96
2020-05-16 12:37:37.880 -0400,10794.66927525,1.026214599609375,0.633697509765625,-0.4236907958984375,1,0.96
2020-05-16 12:37:37.999 -0400,10794.78900025,1.552841186523438,0.265716552734375,-0.0849609375,1,0.96
2020-05-16 12:37:38.119 -0400,10794.90873325,1.171890258789062,0.53448486328125,-0.117919921875,1,0.96
2020-05-16 12:37:38.239 -0400,10795.02846925,0.6668853759765625,0.2030029296875,0.087860107421875,1,0.96
2020-05-16 12:37:38.359 -0400,10795.14820825,0.6409759521484375,0.11431884765625,0.0456695556640625,1,0.96
2020-05-16 12:37:38.478 -0400,10795.267942,0.8895111083984375,0.7083587646484375,-0.23687744140625,1,0.96
2020-05-16 12:37:38.598 -0400,10795.387677,1.338760375976562,0.9052734375,-0.5431365966796875,1,0.96
2020-05-16 12:37:38.718 -0400,10795.507414,0.554656982421875,0.7169189453125,-0.3208770751953125,1,0.96
2020-05-16 12:37:38.837 -0400,10795.627155,0.3452606201171875,0.485107421875,-0.2133636474609375,1,0.96
2020-05-16 12:37:38.957 -0400,10795.746895,1.288681030273438,0.7858123779296875,-0.3892822265625,1,0.96
2020-05-16 12:37:39.077 -0400,10795.86663,1.047958374023438,0.392333984375,-0.2037506103515625,1,0.96
2020-05-16 12:37:39.197 -0400,10795.986372,1.202789306640625,0.286712646484375,-0.10882568359375,1,0.96
2020-05-16 12:37:39.316 -0400,10796.106111,0.6850128173828125,0.2442474365234375,0.0762939453125,1,0.96
2020-05-16 12:37:39.436 -0400,10796.22584766667,0.6296234130859375,0.300689697265625,0.0445098876953125,1,0.96
2020-05-16 12:37:39.556 -0400,10796.34557266667,0.9724884033203125,0.392120361328125,-0.194122314453125,1,0.96
2020-05-16 12:37:39.676 -0400,10796.46530966667,1.35711669921875,0.602569580078125,-0.478271484375,1,0.96
2020-05-16 12:37:39.795 -0400,10796.58504466667,0.779266357421875,0.4553070068359375,-0.192779541015625,1,0.96
2020-05-16 12:37:39.915 -0400,10796.70478266667,0.490753173828125,0.4441070556640625,-0.1804351806640625,1,0.96
2020-05-16 12:37:40.035 -0400,10796.82451966667,0.863372802734375,0.572723388671875,-0.2349395751953125,1,0.96
2020-05-16 12:37:40.154 -0400,10796.94425466667,1.084945678710938,0.44000244140625,-0.2579803466796875,1,0.96
2020-05-16 12:37:40.285 -0400,10797.06398866667,0.958648681640625,0.3394775390625,-0.2100372314453125,1,0.96
2020-05-16 12:37:40.394 -0400,10797.1837175,1.069580078125,0.40277099609375,-0.1892547607421875,1,0.96
2020-05-16 12:37:40.514 -0400,10797.3034445,0.704132080078125,0.301116943359375,-0.0953216552734375,1,0.96
2020-05-16 12:37:40.633 -0400,10797.4231735,0.635955810546875,0.29107666015625,-0.087677001953125,1,0.96
2020-05-16 12:37:40.754 -0400,10797.5429075,1.018890380859375,0.46240234375,-0.1678009033203125,1,0.96
2020-05-16 12:37:40.873 -0400,10797.6626405,0.9028778076171875,0.485198974609375,-0.4212799072265625,1,0.96
2020-05-16 12:37:40.993 -0400,10797.7823755,1.109619140625,0.568878173828125,-0.7475128173828125,1,0.96
2020-05-16 12:37:41.112 -0400,10797.9021055,0.5072784423828125,0.4154205322265625,-0.5990753173828125,1,0.96
2020-05-16 12:37:41.232 -0400,10798.0218355,0.37322998046875,0.039276123046875,-0.7353363037109375,1,0.96
2020-05-16 12:37:41.352 -0400,10798.1415635,0.399322509765625,0.1930999755859375,-0.9069061279296875,1,0.96
2020-05-16 12:37:41.472 -0400,10798.26128929167,0.2536163330078125,0.110504150390625,-1.0521240234375,1,0.96
2020-05-16 12:37:41.591 -0400,10798.38102029167,0.2721405029296875,0.1645660400390625,-0.971954345703125,1,0.96
2020-05-16 12:37:41.711 -0400,10798.50075129167,0.10809326171875,-0.020355224609375,-0.87640380859375,1,0.96
2020-05-16 12:37:41.831 -0400,10798.62048029167,0.009552001953125,-0.0101165771484375,-0.9942169189453125,1,0.96
2020-05-16 12:37:41.952 -0400,10798.74020929167,0.00390625,-0.019561767578125,-1.0670166015625,1,0.96
2020-05-16 12:37:42.070 -0400,10798.85994129167,0.175323486328125,0.02105712890625,-0.993743896484375,1,0.96
2020-05-16 12:37:42.190 -0400,10798.97966429167,0.278900146484375,0.09808349609375,-0.96258544921875,1,0.96
