loggingTime(txt),locationTimestamp_since1970(s),locationLatitude(WGS84),locationLongitude(WGS84),locationAltitude(m),locationSpeed(m/s),locationCourse(°),locationVerticalAccuracy(m),locationHorizontalAccuracy(m),locationFloor(Z),accelerometerTimestamp_sinceReboot(s),accelerometerAccelerationX(G),accelerometerAccelerationY(G),accelerometerAccelerationZ(G),batteryState,batteryLevel
2020-05-19 15:06:28.639 -0400,1589915188.001061,41.3748687458892,-71.83078093967194,6.257728,0,270.2430546865885,4.440082743080055,8.767966952554687,-9999,7061.446871041667,0.12310791015625,-0.391265869140625,-1.22027587890625,1,0.91
2020-05-19 15:06:28.682 -0400,1589915188.001061,41.3748687458892,-71.83078093967194,6.257728,0,270.2430546865885,4.440082743080055,8.767966952554687,-9999,7061.496855750001,0.130218505859375,-0.2133636474609375,-1.095657348632812,1,0.91
2020-05-19 15:06:28.732 -0400,1589915188.001061,41.3748687458892,-71.83078093967194,6.257728,0,270.2430546865885,4.440082743080055,8.767966952554687,-9999,7061.54684075,0.16766357421875,-0.189666748046875,-1.143707275390625,1,0.91
2020-05-19 15:06:28.781 -0400,1589915188.001061,41.3748687458892,-71.83078093967194,6.257728,0,270.2430546865885,4.440082743080055,8.767966952554687,-9999,7061.59682475,0.187469482421875,-0.28936767578125,-0.951202392578125,1,0.91
2020-05-19 15:06:28.831 -0400,1589915188.001061,41.3748687458892,-71.83078093967194,6.257728,0,270.2430546865885,4.440082743080055,8.767966952554687,-9999,7061.64680975,-0.0271148681640625,-0.2684173583984375,-0.80242919921875,1,0.91
2020-05-19 15:06:28.882 -0400,1589915188.001061,41.3748687458892,-71.83078093967194,6.257728,0,270.2430546865885,4.440082743080055,8.767966952554687,-9999,7061.69679375,-0.059783935546875,-0.2394866943359375,-0.702789306640625,1,0.91
2020-05-19 15:06:28.932 -0400,1589915188.001061,41.3748687458892,-71.83078093967194,6.257728,0,270.2430546865885,4.440082743080055,8.767966952554687,-9999,7061.74677875,0.042999267578125,-0.2994842529296875,-0.561370849609375,1,0.91
2020-05-19 15:06:28.994 -0400,1589915188.001061,41.3748687458892,-71.83078093967194,6.257728,0,270.2430546865885,4.440082743080055,8.767966952554687,-9999,7061.79676275,-0.003448486328125,-0.2610015869140625,-0.592987060546875,1,0.91
2020-05-19 15:06:29.032 -0400,1589915188.001061,41.3748687458892,-71.83078093967194,6.257728,0,270.2430546865885,4.440082743080055,8.767966952554687,-9999,7061.846747750001,-0.0391845703125,-0.2599639892578125,-0.7977752685546875,1,0.91
2020-05-19 15:06:29.082 -0400,1589915188.001061,41.3748687458892,-71.83078093967194,6.257728,0,270.2430546865885,4.440082743080055,8.767966952554687,-9999,7061.89673275,-0.0546417236328125,-0.150360107421875,-0.9736480712890625,1,0.91
2020-05-19 15:06:29.132 -0400,1589915188.001061,41.3748687458892,-71.83078093967194,6.257728,0,270.2430546865885,4.440082743080055,8.767966952554687,-9999,7061.946716750001,0.0980987548828125,-0.0980682373046875,-1.219039916992188,1,0.91
2020-05-19 15:06:29.182 -0400,1589915188.001061,41.3748687458892,-71.83078093967194,6.257728,0,270.2430546865885,4.440082743080055,8.767966952554687,-9999,7061.99670175,0.1038818359375,0.23895263671875,-1.029037475585938,1,0.91
2020-05-19 15:06:29.232 -0400,1589915188.001061,41.3748687458892,-71.83078093967194,6.257728,0,270.2430546865885,4.440082743080055,8.767966952554687,-9999,7062.046685750001,0.066925048828125,0.4183349609375,-0.972381591796875,1,0.91
2020-05-19 15:06:29.282 -0400,1589915189.001068,41.37487288208519,-71.83079193797502,0.2349551,1.074661,318.4086010118075,4.137803277532648,8.624970915627383,-9999,7062.09667075,0.060638427734375,0.6728057861328125,-1.025619506835938,1,0.91
2020-05-19 15:06:29.332 -0400,1589915189.001068,41.37487288208519,-71.83079193797502,0.2349551,1.074661,318.4086010118075,4.137803277532648,8.624970915627383,-9999,7062.14665475,0.2062530517578125,0.740570068359375,-0.870635986328125,1,0.91
2020-05-19 15:06:29.381 -0400,1589915189.001068,41.37487288208519,-71.83079193797502,0.2349551,1.074661,318.4086010118075,4.137803277532648,8.624970915627383,-9999,7062.19663975,0.128204345703125,0.62615966796875,-0.7671661376953125,1,0.91
2020-05-19 15:06:29.432 -0400,1589915189.001068,41.37487288208519,-71.83079193797502,0.2349551,1.074661,318.4086010118075,4.137803277532648,8.624970915627383,-9999,7062.24662375,0.07452392578125,0.5342254638671875,-0.6216278076171875,1,0.91
2020-05-19 15:06:29.496 -0400,1589915189.001068,41.37487288208519,-71.83079193797502,0.2349551,1.074661,318.4086010118075,4.137803277532648,8.624970915627383,-9999,7062.296608750001,0.07354736328125,0.4581146240234375,-0.4508514404296875,1,0.91
2020-05-19 15:06:29.532 -0400,1589915189.001068,41.37487288208519,-71.83079193797502,0.2349551,1.074661,318.4086010118075,4.137803277532648,8.624970915627383,-9999,7062.34659375,0.23956298828125,0.5919189453125,-0.45428466796875,1,0.91
2020-05-19 15:06:29.582 -0400,1589915189.001068,41.37487288208519,-71.83079193797502,0.2349551,1.074661,318.4086010118075,4.137803277532648,8.624970915627383,-9999,7062.396577750001,0.4212799072265625,0.4566497802734375,-0.4179840087890625,1,0.91
2020-05-19 15:06:29.631 -0400,1589915189.001068,41.37487288208519,-71.83079193797502,0.2349551,1.074661,318.4086010118075,4.137803277532648,8.624970915627383,-9999,7062.44656275,0.8464813232421875,0.5031280517578125,-0.4509124755859375,1,0.91
2020-05-19 15:06:29.681 -0400,1589915189.001068,41.37487288208519,-71.83079193797502,0.2349551,1.074661,318.4086010118075,4.137803277532648,8.624970915627383,-9999,7062.496547291667,0.9423828125,0.693023681640625,-0.433807373046875,1,0.91
2020-05-19 15:06:29.732 -0400,1589915189.001068,41.37487288208519,-71.83079193797502,0.2349551,1.074661,318.4086010118075,4.137803277532648,8.624970915627383,-9999,7062.546532291667,1.257431030273438,0.537872314453125,-0.314422607421875,1,0.91
2020-05-19 15:06:29.781 -0400,1589915189.001068,41.37487288208519,-71.83079193797502,0.2349551,1.074661,318.4086010118075,4.137803277532648,8.624970915627383,-9999,7062.596516291667,1.538970947265625,0.5851898193359375,-0.4816741943359375,1,0.91
2020-05-19 15:06:29.831 -0400,1589915189.001068,41.37487288208519,-71.83079193797502,0.2349551,1.074661,318.4086010118075,4.137803277532648,8.624970915627383,-9999,7062.646501291667,1.401809692382812,0.7121734619140625,-0.334625244140625,1,0.91
2020-05-19 15:06:29.882 -0400,1589915189.001068,41.37487288208519,-71.83079193797502,0.2349551,1.074661,318.4086010118075,4.137803277532648,8.624970915627383,-9999,7062.696485291667,0.8233489990234375,0.46527099609375,-0.236083984375,1,0.91
2020-05-19 15:06:29.931 -0400,1589915189.001068,41.37487288208519,-71.83079193797502,0.2349551,1.074661,318.4086010118075,4.137803277532648,8.624970915627383,-9999,7062.746470291667,0.529998779296875,0.4789886474609375,-0.1697540283203125,1,0.91
2020-05-19 15:06:29.994 -0400,1589915189.001068,41.37487288208519,-71.83079193797502,0.2349551,1.074661,318.4086010118075,4.137803277532648,8.624970915627383,-9999,7062.796454291667,0.4437408447265625,0.4617462158203125,-0.126861572265625,1,0.91
2020-05-19 15:06:30.032 -0400,1589915189.001068,41.37487288208519,-71.83079193797502,0.2349551,1.074661,318.4086010118075,4.137803277532648,8.624970915627383,-9999,7062.846439291667,0.497589111328125,0.534088134765625,-0.132965087890625,1,0.91
2020-05-19 15:06:30.082 -0400,1589915189.001068,41.37487288208519,-71.83079193797502,0.2349551,1.074661,318.4086010118075,4.137803277532648,8.624970915627383,-9999,7062.896424291667,0.623046875,0.552581787109375,-0.1493682861328125,1,0.91
2020-05-19 15:06:30.131 -0400,1589915189.001068,41.37487288208519,-71.83079193797502,0.2349551,1.074661,318.4086010118075,4.137803277532648,8.624970915627383,-9999,7062.946408291667,0.9283905029296875,0.6184844970703125,-0.269805908203125,1,0.91
2020-05-19 15:06:30.190 -0400,1589915189.001068,41.37487288208519,-71.83079193797502,0.2349551,1.074661,318.4086010118075,4.137803277532648,8.624970915627383,-9999,7062.996393291667,1.298324584960938,0.7179107666015625,-0.386749267578125,1,0.91
2020-05-19 15:06:30.231 -0400,1589915189.001068,41.37487288208519,-71.83079193797502,0.2349551,1.074661,318.4086010118075,4.137803277532648,8.624970915627383,-9999,7063.046377291667,1.396240234375,0.643310546875,-0.4323272705078125,1,0.91
2020-05-19 15:06:30.281 -0400,1589915189.001068,41.37487288208519,-71.83079193797502,0.2349551,1.074661,318.4086010118075,4.137803277532648,8.624970915627383,-9999,7063.096362291667,0.9452667236328125,0.4700469970703125,-0.3918304443359375,1,0.91
2020-05-19 15:06:30.331 -0400,1589915190.001074,41.374877019153,-71.83079939263018,2.909373,1.335693,310.7063870737408,4.020522337711641,8.626455665627379,-9999,7063.146346291667,1.1043701171875,0.5172271728515625,-0.3589935302734375,1,0.91
2020-05-19 15:06:30.381 -0400,1589915190.001074,41.374877019153,-71.83079939263018,2.909373,1.335693,310.7063870737408,4.020522337711641,8.626455665627379,-9999,7063.196331291667,1.021652221679688,0.3977813720703125,-0.3216094970703125,1,0.91
2020-05-19 15:06:30.432 -0400,1589915190.001074,41.374877019153,-71.83079939263018,2.909373,1.335693,310.7063870737408,4.020522337711641,8.626455665627379,-9999,7063.246316291667,0.801422119140625,0.3135833740234375,-0.2969512939453125,1,0.91
2020-05-19 15:06:30.481 -0400,1589915190.001074,41.374877019153,-71.83079939263018,2.909373,1.335693,310.7063870737408,4.020522337711641,8.626455665627379,-9999,7063.296300291667,0.6894683837890625,0.3242950439453125,-0.2513427734375,1,0.91
2020-05-19 15:06:30.531 -0400,1589915190.001074,41.374877019153,-71.83079939263018,2.909373,1.335693,310.7063870737408,4.020522337711641,8.626455665627379,-9999,7063.346285291667,0.729278564453125,0.3035125732421875,-0.2071380615234375,1,0.91
2020-05-19 15:06:30.581 -0400,1589915190.001074,41.374877019153,-71.83079939263018,2.909373,1.335693,310.7063870737408,4.020522337711641,8.626455665627379,-9999,7063.396269291668,0.7250518798828125,0.257049560546875,-0.1753082275390625,1,0.91
2020-05-19 15:06:30.631 -0400,1589915190.001074,41.374877019153,-71.83079939263018,2.909373,1.335693,310.7063870737408,4.020522337711641,8.626455665627379,-9999,7063.446254291667,0.8236541748046875,0.2659912109375,-0.15875244140625,1,0.91
2020-05-19 15:06:30.681 -0400,1589915190.001074,41.374877019153,-71.83079939263018,2.909373,1.335693,310.7063870737408,4.020522337711641,8.626455665627379,-9999,7063.496238375001,0.9197998046875,0.318878173828125,-0.13616943359375,1,0.91
2020-05-19 15:06:30.731 -0400,1589915190.001074,41.374877019153,-71.83079939263018,2.909373,1.335693,310.7063870737408,4.020522337711641,8.626455665627379,-9999,7063.546223375,0.9439239501953125,0.36224365234375,-0.1168365478515625,1,0.91
2020-05-19 15:06:30.781 -0400,1589915190.001074,41.374877019153,-71.83079939263018,2.909373,1.335693,310.7063870737408,4.020522337711641,8.626455665627379,-9999,7063.596207375001,1.10931396484375,0.485382080078125,-0.1803741455078125,1,0.91
2020-05-19 15:06:30.831 -0400,1589915190.001074,41.374877019153,-71.83079939263018,2.909373,1.335693,310.7063870737408,4.020522337711641,8.626455665627379,-9999,7063.646192375,0.967071533203125,0.54388427734375,-0.438568115234375,1,0.91
2020-05-19 15:06:30.881 -0400,1589915190.001074,41.374877019153,-71.83079939263018,2.909373,1.335693,310.7063870737408,4.020522337711641,8.626455665627379,-9999,7063.696177375001,1.279388427734375,0.4134674072265625,-0.34857177734375,1,0.91
2020-05-19 15:06:30.931 -0400,1589915190.001074,41.374877019153,-71.83079939263018,2.909373,1.335693,310.7063870737408,4.020522337711641,8.626455665627379,-9999,7063.746161375,0.9996337890625,0.2550201416015625,-0.2080230712890625,1,0.91
2020-05-19 15:06:30.981 -0400,1589915190.001074,41.374877019153,-71.83079939263018,2.909373,1.335693,310.7063870737408,4.020522337711641,8.626455665627379,-9999,7063.796146375001,0.644622802734375,0.3351287841796875,-0.292388916015625,1,0.91
2020-05-19 15:06:31.031 -0400,1589915190.001074,41.374877019153,-71.83079939263018,2.909373,1.335693,310.7063870737408,4.020522337711641,8.626455665627379,-9999,7063.846130375,0.5241851806640625,0.520721435546875,-0.2571563720703125,1,0.91
2020-05-19 15:06:31.081 -0400,1589915190.001074,41.374877019153,-71.83079939263018,2.909373,1.335693,310.7063870737408,4.020522337711641,8.626455665627379,-9999,7063.896115375001,0.5055389404296875,0.6040802001953125,-0.2778472900390625,1,0.91
2020-05-19 15:06:31.131 -0400,1589915190.001074,41.374877019153,-71.83079939263018,2.909373,1.335693,310.7063870737408,4.020522337711641,8.626455665627379,-9999,7063.946099375001,0.6251678466796875,0.5654449462890625,-0.3406524658203125,1,0.91
2020-05-19 15:06:31.181 -0400,1589915190.001074,41.374877019153,-71.83079939263018,2.909373,1.335693,310.7063870737408,4.020522337711641,8.626455665627379,-9999,7063.996084375,0.9152374267578125,0.5694732666015625,-0.4571685791015625,1,0.91
2020-05-19 15:06:31.231 -0400,1589915190.001074,41.374877019153,-71.83079939263018,2.909373,1.335693,310.7063870737408,4.020522337711641,8.626455665627379,-9999,7064.046068375001,1.196502685546875,0.5925445556640625,-0.4504547119140625,1,0.91
2020-05-19 15:06:31.281 -0400,1589915191.001081,41.37487828023416,-71.83081700359806,1.985007,1.593062,294.366996547636,4.072902025723191,8.065265674585243,-9999,7064.096053375,1.382247924804688,0.5008392333984375,-0.40972900390625,1,0.91
2020-05-19 15:06:31.331 -0400,1589915191.001081,41.37487828023416,-71.83081700359806,1.985007,1.593062,294.366996547636,4.072902025723191,8.065265674585243,-9999,7064.146038375,1.025222778320312,0.4966583251953125,-0.4531097412109375,1,0.91
2020-05-19 15:06:31.381 -0400,1589915191.001081,41.37487828023416,-71.83081700359806,1.985007,1.593062,294.366996547636,4.072902025723191,8.065265674585243,-9999,7064.196022375,1.084716796875,0.56494140625,-0.35107421875,1,0.91
2020-05-19 15:06:31.431 -0400,1589915191.001081,41.37487828023416,-71.83081700359806,1.985007,1.593062,294.366996547636,4.072902025723191,8.065265674585243,-9999,7064.246007375001,1.341781616210938,0.48370361328125,-0.313812255859375,1,0.91
2020-05-19 15:06:31.481 -0400,1589915191.001081,41.37487828023416,-71.83081700359806,1.985007,1.593062,294.366996547636,4.072902025723191,8.065265674585243,-9999,7064.295991375,1.060699462890625,0.331268310546875,-0.2841796875,1,0.91
2020-05-19 15:06:31.536 -0400,1589915191.001081,41.37487828023416,-71.83081700359806,1.985007,1.593062,294.366996547636,4.072902025723191,8.065265674585243,-9999,7064.350941375001,0.8580169677734375,0.2915496826171875,-0.2244720458984375,1,0.91
2020-05-19 15:06:31.586 -0400,1589915191.001081,41.37487828023416,-71.83081700359806,1.985007,1.593062,294.366996547636,4.072902025723191,8.065265674585243,-9999,7064.400840375,0.74957275390625,0.3139495849609375,-0.1718597412109375,1,0.91
2020-05-19 15:06:31.636 -0400,1589915191.001081,41.37487828023416,-71.83081700359806,1.985007,1.593062,294.366996547636,4.072902025723191,8.065265674585243,-9999,7064.450740375,0.6245269775390625,0.271148681640625,-0.1398773193359375,1,0.91
2020-05-19 15:06:31.685 -0400,1589915191.001081,41.37487828023416,-71.83081700359806,1.985007,1.593062,294.366996547636,4.072902025723191,8.065265674585243,-9999,7064.500639541667,0.62786865234375,0.234771728515625,-0.082855224609375,1,0.91
2020-05-19 15:06:31.735 -0400,1589915191.001081,41.37487828023416,-71.83081700359806,1.985007,1.593062,294.366996547636,4.072902025723191,8.065265674585243,-9999,7064.550537541667,0.7158966064453125,0.2564849853515625,-0.055694580078125,1,0.91
2020-05-19 15:06:31.785 -0400,1589915191.001081,41.37487828023416,-71.83081700359806,1.985007,1.593062,294.366996547636,4.072902025723191,8.065265674585243,-9999,7064.600434541667,0.7581939697265625,0.3692169189453125,-0.0917816162109375,1,0.91
2020-05-19 15:06:31.835 -0400,1589915191.001081,41.37487828023416,-71.83081700359806,1.985007,1.593062,294.366996547636,4.072902025723191,8.065265674585243,-9999,7064.650329541667,0.9424591064453125,0.466522216796875,-0.265869140625,1,0.91
2020-05-19 15:06:31.885 -0400,1589915191.001081,41.37487828023416,-71.83081700359806,1.985007,1.593062,294.366996547636,4.072902025723191,8.065265674585243,-9999,7064.700228541667,1.101715087890625,0.47705078125,-0.273773193359375,1,0.91
2020-05-19 15:06:31.935 -0400,1589915191.001081,41.37487828023416,-71.83081700359806,1.985007,1.593062,294.366996547636,4.072902025723191,8.065265674585243,-9999,7064.750124541667,1.366836547851562,0.439208984375,-0.3908233642578125,1,0.91
2020-05-19 15:06:31.985 -0400,1589915191.001081,41.37487828023416,-71.83081700359806,1.985007,1.593062,294.366996547636,4.072902025723191,8.065265674585243,-9999,7064.800016541667,1.273422241210938,0.4198455810546875,-0.4197845458984375,1,0.91
2020-05-19 15:06:32.035 -0400,1589915191.001081,41.37487828023416,-71.83081700359806,1.985007,1.593062,294.366996547636,4.072902025723191,8.065265674585243,-9999,7064.849911541667,0.8028717041015625,0.3455047607421875,-0.3664093017578125,1,0.91
2020-05-19 15:06:32.084 -0400,1589915191.001081,41.37487828023416,-71.83081700359806,1.985007,1.593062,294.366996547636,4.072902025723191,8.065265674585243,-9999,7064.899806541667,0.69232177734375,0.4170684814453125,-0.2488555908203125,1,0.91
2020-05-19 15:06:32.135 -0400,1589915191.001081,41.37487828023416,-71.83081700359806,1.985007,1.593062,294.366996547636,4.072902025723191,8.065265674585243,-9999,7064.949701541667,0.6557464599609375,0.5135345458984375,-0.2405242919921875,1,0.91
2020-05-19 15:06:32.184 -0400,1589915191.001081,41.37487828023416,-71.83081700359806,1.985007,1.593062,294.366996547636,4.072902025723191,8.065265674585243,-9999,7064.999600541667,0.663665771484375,0.586212158203125,-0.277740478515625,1,0.91
2020-05-19 15:06:32.234 -0400,1589915191.001081,41.37487828023416,-71.83081700359806,1.985007,1.593062,294.366996547636,4.072902025723191,8.065265674585243,-9999,7065.049497541667,0.7891845703125,0.6113739013671875,-0.3437042236328125,1,0.91
2020-05-19 15:06:32.284 -0400,1589915191.001081,41.37487828023416,-71.83081700359806,1.985007,1.593062,294.366996547636,4.072902025723191,8.065265674585243,-9999,7065.099393541667,0.9305877685546875,0.610626220703125,-0.3990936279296875,1,0.91
2020-05-19 15:06:32.334 -0400,1589915192.001089,41.37488109596394,-71.83080846456724,1.954587,0.910041,283.5588651682083,4.221526656094484,7.905015029506854,-9999,7065.149289541667,1.220230102539062,0.6201629638671875,-0.4365081787109375,1,0.91
2020-05-19 15:06:32.384 -0400,1589915192.001089,41.37488109596394,-71.83080846456724,1.954587,0.910041,283.5588651682083,4.221526656094484,7.905015029506854,-9999,7065.199184541667,1.268463134765625,0.4897918701171875,-0.4722747802734375,1,0.91
2020-05-19 15:06:32.434 -0400,1589915192.001089,41.37488109596394,-71.83080846456724,1.954587,0.910041,283.5588651682083,4.221526656094484,7.905015029506854,-9999,7065.249081541667,0.921173095703125,0.38299560546875,-0.427978515625,1,0.91
2020-05-19 15:06:32.484 -0400,1589915192.001089,41.37488109596394,-71.83080846456724,1.954587,0.910041,283.5588651682083,4.221526656094484,7.905015029506854,-9999,7065.298979541667,1.217971801757812,0.4395599365234375,-0.34344482421875,1,0.91
2020-05-19 15:06:32.534 -0400,1589915192.001089,41.37488109596394,-71.83080846456724,1.954587,0.910041,283.5588651682083,4.221526656094484,7.905015029506854,-9999,7065.348877541667,1.214675903320312,0.38262939453125,-0.3412933349609375,1,0.91
2020-05-19 15:06:32.583 -0400,1589915192.001089,41.37488109596394,-71.83080846456724,1.954587,0.910041,283.5588651682083,4.221526656094484,7.905015029506854,-9999,7065.398774541667,1.035568237304688,0.3462677001953125,-0.3476715087890625,1,0.91
2020-05-19 15:06:32.633 -0400,1589915192.001089,41.37488109596394,-71.83080846456724,1.954587,0.910041,283.5588651682083,4.221526656094484,7.905015029506854,-9999,7065.448669541667,0.9095458984375,0.30291748046875,-0.2537689208984375,1,0.91
2020-05-19 15:06:32.683 -0400,1589915192.001089,41.37488109596394,-71.83080846456724,1.954587,0.910041,283.5588651682083,4.221526656094484,7.905015029506854,-9999,7065.4985655,0.784942626953125,0.2658843994140625,-0.2269439697265625,1,0.91
2020-05-19 15:06:32.733 -0400,1589915192.001089,41.37488109596394,-71.83080846456724,1.954587,0.910041,283.5588651682083,4.221526656094484,7.905015029506854,-9999,7065.5484615,0.663970947265625,0.2366180419921875,-0.1847686767578125,1,0.91
2020-05-19 15:06:32.783 -0400,1589915192.001089,41.37488109596394,-71.83080846456724,1.954587,0.910041,283.5588651682083,4.221526656094484,7.905015029506854,-9999,7065.5983585,0.601287841796875,0.2228851318359375,-0.13336181640625,1,0.91
2020-05-19 15:06:32.833 -0400,1589915192.001089,41.37488109596394,-71.83080846456724,1.954587,0.910041,283.5588651682083,4.221526656094484,7.905015029506854,-9999,7065.648254500001,0.634796142578125,0.2478179931640625,-0.0957183837890625,1,0.91
2020-05-19 15:06:32.883 -0400,1589915192.001089,41.37488109596394,-71.83080846456724,1.954587,0.910041,283.5588651682083,4.221526656094484,7.905015029506854,-9999,7065.698151500001,0.6925201416015625,0.334869384765625,-0.0941925048828125,1,0.91
2020-05-19 15:06:32.933 -0400,1589915192.001089,41.37488109596394,-71.83080846456724,1.954587,0.910041,283.5588651682083,4.221526656094484,7.905015029506854,-9999,7065.7480445,0.8625946044921875,0.46826171875,-0.22052001953125,1,0.91
2020-05-19 15:06:32.983 -0400,1589915192.001089,41.37488109596394,-71.83080846456724,1.954587,0.910041,283.5588651682083,4.221526656094484,7.905015029506854,-9999,7065.7979375,1.193328857421875,0.5960845947265625,-0.2552642822265625,1,0.91
2020-05-19 15:06:33.033 -0400,1589915192.001089,41.37488109596394,-71.83080846456724,1.954587,0.910041,283.5588651682083,4.221526656094484,7.905015029506854,-9999,7065.847827500001,1.143341064453125,0.538421630859375,-0.361846923828125,1,0.91
2020-05-19 15:06:33.082 -0400,1589915192.001089,41.37488109596394,-71.83080846456724,1.954587,0.910041,283.5588651682083,4.221526656094484,7.905015029506854,-9999,7065.897722500001,1.367721557617188,0.4387969970703125,-0.3417510986328125,1,0.91
2020-05-19 15:06:33.133 -0400,1589915192.001089,41.37488109596394,-71.83080846456724,1.954587,0.910041,283.5588651682083,4.221526656094484,7.905015029506854,-9999,7065.947614500001,1.057708740234375,0.3846282958984375,-0.266937255859375,1,0.91
2020-05-19 15:06:33.182 -0400,1589915192.001089,41.37488109596394,-71.83080846456724,1.954587,0.910041,283.5588651682083,4.221526656094484,7.905015029506854,-9999,7065.9975055,0.8241729736328125,0.4758758544921875,-0.26507568359375,1,0.91
2020-05-19 15:06:33.237 -0400,1589915193.001095,41.37487865417769,-71.83080935002383,1.758591,0.4396603,271.5182801885851,4.424727000890433,7.979296530610258,-9999,7066.0473975,0.705230712890625,0.5297393798828125,-0.2534027099609375,1,0.91
2020-05-19 15:06:33.282 -0400,1589915193.001095,41.37487865417769,-71.83080935002383,1.758591,0.4396603,271.5182801885851,4.424727000890433,7.979296530610258,-9999,7066.097290500001,0.623809814453125,0.5599517822265625,-0.2822113037109375,1,0.91
2020-05-19 15:06:33.332 -0400,1589915193.001095,41.37487865417769,-71.83080935002383,1.758591,0.4396603,271.5182801885851,4.424727000890433,7.979296530610258,-9999,7066.1471855,0.6199493408203125,0.51593017578125,-0.3206329345703125,1,0.91
2020-05-19 15:06:33.382 -0400,1589915193.001095,41.37487865417769,-71.83080935002383,1.758591,0.4396603,271.5182801885851,4.424727000890433,7.979296530610258,-9999,7066.197076500001,0.65838623046875,0.5029144287109375,-0.3649444580078125,1,0.91
2020-05-19 15:06:33.432 -0400,1589915193.001095,41.37487865417769,-71.83080935002383,1.758591,0.4396603,271.5182801885851,4.424727000890433,7.979296530610258,-9999,7066.246966500001,0.8513031005859375,0.5673828125,-0.489837646484375,1,0.91
2020-05-19 15:06:33.482 -0400,1589915193.001095,41.37487865417769,-71.83080935002383,1.758591,0.4396603,271.5182801885851,4.424727000890433,7.979296530610258,-9999,7066.2968565,1.200210571289062,0.5699615478515625,-0.4954071044921875,1,0.91
2020-05-19 15:06:33.532 -0400,1589915193.001095,41.37487865417769,-71.83080935002383,1.758591,0.4396603,271.5182801885851,4.424727000890433,7.979296530610258,-9999,7066.3467515,1.243423461914062,0.42291259765625,-0.45306396484375,1,0.91
2020-05-19 15:06:33.581 -0400,1589915193.001095,41.37487865417769,-71.83080935002383,1.758591,0.4396603,271.5182801885851,4.424727000890433,7.979296530610258,-9999,7066.3966455,0.945068359375,0.379547119140625,-0.4216156005859375,1,0.91
2020-05-19 15:06:33.631 -0400,1589915193.001095,41.37487865417769,-71.83080935002383,1.758591,0.4396603,271.5182801885851,4.424727000890433,7.979296530610258,-9999,7066.4465375,0.927947998046875,0.3998870849609375,-0.3748779296875,1,0.91
2020-05-19 15:06:33.681 -0400,1589915193.001095,41.37487865417769,-71.83080935002383,1.758591,0.4396603,271.5182801885851,4.424727000890433,7.979296530610258,-9999,7066.496431250001,1.072113037109375,0.2645263671875,-0.271484375,1,0.91
2020-05-19 15:06:33.731 -0400,1589915193.001095,41.37487865417769,-71.83080935002383,1.758591,0.4396603,271.5182801885851,4.424727000890433,7.979296530610258,-9999,7066.54632525,1.060546875,0.0678558349609375,-0.2622833251953125,1,0.91
2020-05-19 15:06:33.781 -0400,1589915193.001095,41.37487865417769,-71.83080935002383,1.758591,0.4396603,271.5182801885851,4.424727000890433,7.979296530610258,-9999,7066.59621925,1.067047119140625,0.4047698974609375,-0.199188232421875,1,0.91
2020-05-19 15:06:33.831 -0400,1589915193.001095,41.37487865417769,-71.83080935002383,1.758591,0.4396603,271.5182801885851,4.424727000890433,7.979296530610258,-9999,7066.64611225,0.963775634765625,0.44195556640625,-0.1591644287109375,1,0.91
2020-05-19 15:06:33.881 -0400,1589915193.001095,41.37487865417769,-71.83080935002383,1.758591,0.4396603,271.5182801885851,4.424727000890433,7.979296530610258,-9999,7066.696005250001,0.897247314453125,0.3678436279296875,-0.127349853515625,1,0.91
2020-05-19 15:06:33.931 -0400,1589915193.001095,41.37487865417769,-71.83080935002383,1.758591,0.4396603,271.5182801885851,4.424727000890433,7.979296530610258,-9999,7066.745897250001,0.839508056640625,0.2964935302734375,-0.0711822509765625,1,0.91
2020-05-19 15:06:33.981 -0400,1589915193.001095,41.37487865417769,-71.83080935002383,1.758591,0.4396603,271.5182801885851,4.424727000890433,7.979296530610258,-9999,7066.79579025,0.7550506591796875,0.2874755859375,-0.0472869873046875,1,0.91
2020-05-19 15:06:34.031 -0400,1589915193.001095,41.37487865417769,-71.83080935002383,1.758591,0.4396603,271.5182801885851,4.424727000890433,7.979296530610258,-9999,7066.845681250001,0.712860107421875,0.3157501220703125,-0.0542755126953125,1,0.91
2020-05-19 15:06:34.080 -0400,1589915193.001095,41.37487865417769,-71.83080935002383,1.758591,0.4396603,271.5182801885851,4.424727000890433,7.979296530610258,-9999,7066.895573250001,0.7634429931640625,0.3666839599609375,-0.0583343505859375,1,0.91
2020-05-19 15:06:34.130 -0400,1589915193.001095,41.37487865417769,-71.83080935002383,1.758591,0.4396603,271.5182801885851,4.424727000890433,7.979296530610258,-9999,7066.94546625,0.799407958984375,0.41357421875,-0.11322021484375,1,0.91
2020-05-19 15:06:34.180 -0400,1589915193.001095,41.37487865417769,-71.83080935002383,1.758591,0.4396603,271.5182801885851,4.424727000890433,7.979296530610258,-9999,7066.995357250001,0.987762451171875,0.4753265380859375,-0.201019287109375,1,0.91
2020-05-19 15:06:34.230 -0400,1589915193.001095,41.37487865417769,-71.83080935002383,1.758591,0.4396603,271.5182801885851,4.424727000890433,7.979296530610258,-9999,7067.045251250001,1.337677001953125,0.5238037109375,-0.2374114990234375,1,0.91
2020-05-19 15:06:34.280 -0400,1589915193.001095,41.37487865417769,-71.83080935002383,1.758591,0.4396603,271.5182801885851,4.424727000890433,7.979296530610258,-9999,7067.09514425,0.9796142578125,0.4633636474609375,-0.2868804931640625,1,0.91
2020-05-19 15:06:34.330 -0400,1589915194.001102,41.37487289606509,-71.83081129717132,2.092993,0,245.677795393777,4.647513840748261,8.18987529694639,-9999,7067.14503625,0.8106842041015625,0.425201416015625,-0.3610992431640625,1,0.91
2020-05-19 15:06:34.380 -0400,1589915194.001102,41.37487289606509,-71.83081129717132,2.092993,0,245.677795393777,4.647513840748261,8.18987529694639,-9999,7067.19492825,0.8958892822265625,0.392547607421875,-0.2168426513671875,1,0.91
2020-05-19 15:06:34.430 -0400,1589915194.001102,41.37487289606509,-71.83081129717132,2.092993,0,245.677795393777,4.647513840748261,8.18987529694639,-9999,7067.24482125,0.97698974609375,0.5108489990234375,-0.285064697265625,1,0.91
2020-05-19 15:06:34.479 -0400,1589915194.001102,41.37487289606509,-71.83081129717132,2.092993,0,245.677795393777,4.647513840748261,8.18987529694639,-9999,7067.294717250001,0.8903045654296875,0.5191650390625,-0.409820556640625,1,0.91
2020-05-19 15:06:34.529 -0400,1589915194.001102,41.37487289606509,-71.83081129717132,2.092993,0,245.677795393777,4.647513840748261,8.18987529694639,-9999,7067.34461325,0.8386688232421875,0.4744873046875,-0.4131011962890625,1,0.91
2020-05-19 15:06:34.579 -0400,1589915194.001102,41.37487289606509,-71.83081129717132,2.092993,0,245.677795393777,4.647513840748261,8.18987529694639,-9999,7067.394506250001,0.8885498046875,0.409027099609375,-0.399749755859375,1,0.91
2020-05-19 15:06:34.629 -0400,1589915194.001102,41.37487289606509,-71.83081129717132,2.092993,0,245.677795393777,4.647513840748261,8.18987529694639,-9999,7067.44440025,0.8902435302734375,0.30364990234375,-0.3845367431640625,1,0.91
2020-05-19 15:06:34.679 -0400,1589915194.001102,41.37487289606509,-71.83081129717132,2.092993,0,245.677795393777,4.647513840748261,8.18987529694639,-9999,7067.494291375,0.9067535400390625,0.171630859375,-0.37396240234375,1,0.91
2020-05-19 15:06:34.729 -0400,1589915194.001102,41.37487289606509,-71.83081129717132,2.092993,0,245.677795393777,4.647513840748261,8.18987529694639,-9999,7067.544183375,0.8521728515625,-0.035430908203125,-0.2636566162109375,1,0.91
2020-05-19 15:06:34.779 -0400,1589915194.001102,41.37487289606509,-71.83081129717132,2.092993,0,245.677795393777,4.647513840748261,8.18987529694639,-9999,7067.594074375001,0.872283935546875,-0.0497589111328125,-0.1941986083984375,1,0.91
2020-05-19 15:06:34.829 -0400,1589915194.001102,41.37487289606509,-71.83081129717132,2.092993,0,245.677795393777,4.647513840748261,8.18987529694639,-9999,7067.643962375,0.945404052734375,0.07000732421875,-0.22344970703125,1,0.91
2020-05-19 15:06:34.879 -0400,1589915194.001102,41.37487289606509,-71.83081129717132,2.092993,0,245.677795393777,4.647513840748261,8.18987529694639,-9999,7067.693850375001,1.007659912109375,0.24688720703125,-0.2183685302734375,1,0.91
2020-05-19 15:06:34.928 -0400,1589915194.001102,41.37487289606509,-71.83081129717132,2.092993,0,245.677795393777,4.647513840748261,8.18987529694639,-9999,7067.743741375,1.041336059570312,0.105316162109375,-0.142425537109375,1,0.91
2020-05-19 15:06:34.978 -0400,1589915194.001102,41.37487289606509,-71.83081129717132,2.092993,0,245.677795393777,4.647513840748261,8.18987529694639,-9999,7067.793636375,0.977935791015625,0.3704376220703125,-0.258697509765625,1,0.91
2020-05-19 15:06:35.028 -0400,1589915194.001102,41.37487289606509,-71.83081129717132,2.092993,0,245.677795393777,4.647513840748261,8.18987529694639,-9999,7067.843531375001,0.87335205078125,0.5866241455078125,-0.3830108642578125,1,0.91
2020-05-19 15:06:35.078 -0400,1589915194.001102,41.37487289606509,-71.83081129717132,2.092993,0,245.677795393777,4.647513840748261,8.18987529694639,-9999,7067.893424375,0.8490753173828125,0.3545074462890625,-0.36248779296875,1,0.91
2020-05-19 15:06:35.128 -0400,1589915194.001102,41.37487289606509,-71.83081129717132,2.092993,0,245.677795393777,4.647513840748261,8.18987529694639,-9999,7067.943316375,0.87908935546875,0.2054443359375,-0.32586669921875,1,0.91
2020-05-19 15:06:35.178 -0400,1589915194.001102,41.37487289606509,-71.83081129717132,2.092993,0,245.677795393777,4.647513840748261,8.18987529694639,-9999,7067.993207375001,0.9425201416015625,0.3059844970703125,-0.327606201171875,1,0.91
2020-05-19 15:06:35.228 -0400,1589915194.001102,41.37487289606509,-71.83081129717132,2.092993,0,245.677795393777,4.647513840748261,8.18987529694639,-9999,7068.043097375001,0.98138427734375,0.456573486328125,-0.311767578125,1,0.91
2020-05-19 15:06:35.278 -0400,1589915195.001109,41.37486167693014,-71.83082681889779,1.511429,0,246.5260646956801,4.839918918365835,8.179255176614847,-9999,7068.092987375,0.9387054443359375,0.4210968017578125,-0.2879180908203125,1,0.91
2020-05-19 15:06:35.328 -0400,1589915195.001109,41.37486167693014,-71.83082681889779,1.511429,0,246.5260646956801,4.839918918365835,8.179255176614847,-9999,7068.142877375,0.86981201171875,0.4586944580078125,-0.265960693359375,1,0.91
2020-05-19 15:06:35.377 -0400,1589915195.001109,41.37486167693014,-71.83082681889779,1.511429,0,246.5260646956801,4.839918918365835,8.179255176614847,-9999,7068.192766375,0.928802490234375,0.55133056640625,-0.1537933349609375,1,0.91
2020-05-19 15:06:35.427 -0400,1589915195.001109,41.37486167693014,-71.83082681889779,1.511429,0,246.5260646956801,4.839918918365835,8.179255176614847,-9999,7068.242655375,0.870513916015625,0.7090911865234375,-0.1422576904296875,1,0.91
2020-05-19 15:06:35.477 -0400,1589915195.001109,41.37486167693014,-71.83082681889779,1.511429,0,246.5260646956801,4.839918918365835,8.179255176614847,-9999,7068.292545375,0.7608184814453125,0.78399658203125,-0.095977783203125,1,0.91
2020-05-19 15:06:35.527 -0400,1589915195.001109,41.37486167693014,-71.83082681889779,1.511429,0,246.5260646956801,4.839918918365835,8.179255176614847,-9999,7068.342433375001,0.62982177734375,0.6185302734375,-0.0527496337890625,1,0.91
2020-05-19 15:06:35.577 -0400,1589915195.001109,41.37486167693014,-71.83082681889779,1.511429,0,246.5260646956801,4.839918918365835,8.179255176614847,-9999,7068.392327375001,0.58160400390625,0.6597442626953125,-0.112884521484375,1,0.91
2020-05-19 15:06:35.627 -0400,1589915195.001109,41.37486167693014,-71.83082681889779,1.511429,0,246.5260646956801,4.839918918365835,8.179255176614847,-9999,7068.442219375001,0.5831146240234375,0.803558349609375,-0.167724609375,1,0.91
2020-05-19 15:06:35.677 -0400,1589915195.001109,41.37486167693014,-71.83082681889779,1.511429,0,246.5260646956801,4.839918918365835,8.179255176614847,-9999,7068.49211,0.6282958984375,0.837127685546875,-0.2228240966796875,1,0.91
2020-05-19 15:06:35.727 -0400,1589915195.001109,41.37486167693014,-71.83082681889779,1.511429,0,246.5260646956801,4.839918918365835,8.179255176614847,-9999,7068.542004000001,0.6748199462890625,0.79473876953125,-0.2631988525390625,1,0.91
2020-05-19 15:06:35.777 -0400,1589915195.001109,41.37486167693014,-71.83082681889779,1.511429,0,246.5260646956801,4.839918918365835,8.179255176614847,-9999,7068.591898000001,0.826416015625,0.68353271484375,-0.329986572265625,1,0.91
2020-05-19 15:06:35.827 -0400,1589915195.001109,41.37486167693014,-71.83082681889779,1.511429,0,246.5260646956801,4.839918918365835,8.179255176614847,-9999,7068.641791,0.8790283203125,0.5346832275390625,-0.34088134765625,1,0.91
2020-05-19 15:06:35.876 -0400,1589915195.001109,41.37486167693014,-71.83082681889779,1.511429,0,246.5260646956801,4.839918918365835,8.179255176614847,-9999,7068.691686,0.892181396484375,0.4776611328125,-0.3165283203125,1,0.91
2020-05-19 15:06:35.926 -0400,1589915195.001109,41.37486167693014,-71.83082681889779,1.511429,0,246.5260646956801,4.839918918365835,8.179255176614847,-9999,7068.741581,0.9232330322265625,0.48773193359375,-0.343017578125,1,0.91
2020-05-19 15:06:35.976 -0400,1589915195.001109,41.37486167693014,-71.83082681889779,1.511429,0,246.5260646956801,4.839918918365835,8.179255176614847,-9999,7068.791473,0.6815185546875,0.372772216796875,-0.3956298828125,1,0.91
2020-05-19 15:06:36.026 -0400,1589915195.001109,41.37486167693014,-71.83082681889779,1.511429,0,246.5260646956801,4.839918918365835,8.179255176614847,-9999,7068.841363,0.882537841796875,0.2673187255859375,-0.3414459228515625,1,0.91
2020-05-19 15:06:36.076 -0400,1589915195.001109,41.37486167693014,-71.83082681889779,1.511429,0,246.5260646956801,4.839918918365835,8.179255176614847,-9999,7068.891252,1.033905029296875,0.2458343505859375,-0.23114013671875,1,0.91
2020-05-19 15:06:36.126 -0400,1589915195.001109,41.37486167693014,-71.83082681889779,1.511429,0,246.5260646956801,4.839918918365835,8.179255176614847,-9999,7068.941141,0.9059295654296875,0.3433990478515625,-0.3058929443359375,1,0.91
2020-05-19 15:06:36.176 -0400,1589915195.001109,41.37486167693014,-71.83082681889779,1.511429,0,246.5260646956801,4.839918918365835,8.179255176614847,-9999,7068.991029000001,0.69256591796875,0.4493255615234375,-0.2886199951171875,1,0.91
2020-05-19 15:06:36.237 -0400,1589915195.001109,41.37486167693014,-71.83082681889779,1.511429,0,246.5260646956801,4.839918918365835,8.179255176614847,-9999,7069.040915,0.590728759765625,0.4756011962890625,-0.2216339111328125,1,0.91
2020-05-19 15:06:36.276 -0400,1589915196.001116,41.37486521548369,-71.8308186416141,2.356024,0,246.5260707668808,4.976832433845293,8.506934227671936,-9999,7069.090804,0.627593994140625,0.4637451171875,-0.223297119140625,1,0.91
2020-05-19 15:06:36.326 -0400,1589915196.001116,41.37486521548369,-71.8308186416141,2.356024,0,246.5260707668808,4.976832433845293,8.506934227671936,-9999,7069.140693,0.7370147705078125,0.427886962890625,-0.24017333984375,1,0.91
2020-05-19 15:06:36.375 -0400,1589915196.001116,41.37486521548369,-71.8308186416141,2.356024,0,246.5260707668808,4.976832433845293,8.506934227671936,-9999,7069.190582,0.85614013671875,0.45361328125,-0.277984619140625,1,0.91
2020-05-19 15:06:36.425 -0400,1589915196.001116,41.37486521548369,-71.8308186416141,2.356024,0,246.5260707668808,4.976832433845293,8.506934227671936,-9999,7069.240470000001,0.9694671630859375,0.5611572265625,-0.314422607421875,1,0.91
2020-05-19 15:06:36.475 -0400,1589915196.001116,41.37486521548369,-71.8308186416141,2.356024,0,246.5260707668808,4.976832433845293,8.506934227671936,-9999,7069.290358,1.16058349609375,0.6337890625,-0.3241729736328125,1,0.91
2020-05-19 15:06:36.525 -0400,1589915196.001116,41.37486521548369,-71.8308186416141,2.356024,0,246.5260707668808,4.976832433845293,8.506934227671936,-9999,7069.340245,1.119171142578125,0.6192474365234375,-0.3803863525390625,1,0.91
2020-05-19 15:06:36.575 -0400,1589915196.001116,41.37486521548369,-71.8308186416141,2.356024,0,246.5260707668808,4.976832433845293,8.506934227671936,-9999,7069.390133000001,0.9571380615234375,0.5368194580078125,-0.329833984375,1,0.91
2020-05-19 15:06:36.626 -0400,1589915196.001116,41.37486521548369,-71.8308186416141,2.356024,0,246.5260707668808,4.976832433845293,8.506934227671936,-9999,7069.440023,1.211669921875,0.5628509521484375,-0.3018341064453125,1,0.91
2020-05-19 15:06:36.675 -0400,1589915196.001116,41.37486521548369,-71.8308186416141,2.356024,0,246.5260707668808,4.976832433845293,8.506934227671936,-9999,7069.489911666667,1.248428344726562,0.377899169921875,-0.21392822265625,1,0.91
2020-05-19 15:06:36.724 -0400,1589915196.001116,41.37486521548369,-71.8308186416141,2.356024,0,246.5260707668808,4.976832433845293,8.506934227671936,-9999,7069.539799666667,1.012130737304688,0.1999664306640625,-0.2151031494140625,1,0.91
2020-05-19 15:06:36.774 -0400,1589915196.001116,41.37486521548369,-71.8308186416141,2.356024,0,246.5260707668808,4.976832433845293,8.506934227671936,-9999,7069.589686666667,0.781402587890625,0.3120574951171875,-0.164459228515625,1,0.91
2020-05-19 15:06:36.824 -0400,1589915196.001116,41.37486521548369,-71.8308186416141,2.356024,0,246.5260707668808,4.976832433845293,8.506934227671936,-9999,7069.639573666667,0.685150146484375,0.40069580078125,-0.1144561767578125,1,0.91
2020-05-19 15:06:36.874 -0400,1589915196.001116,41.37486521548369,-71.8308186416141,2.356024,0,246.5260707668808,4.976832433845293,8.506934227671936,-9999,7069.689460666667,0.761016845703125,0.34222412109375,-0.069183349609375,1,0.91
2020-05-19 15:06:36.924 -0400,1589915196.001116,41.37486521548369,-71.8308186416141,2.356024,0,246.5260707668808,4.976832433845293,8.506934227671936,-9999,7069.739347666668,0.884857177734375,0.2575836181640625,-0.0258331298828125,1,0.91
2020-05-19 15:06:36.974 -0400,1589915196.001116,41.37486521548369,-71.8308186416141,2.356024,0,246.5260707668808,4.976832433845293,8.506934227671936,-9999,7069.789233666667,0.854705810546875,0.256103515625,-0.0051727294921875,1,0.91
2020-05-19 15:06:37.024 -0400,1589915196.001116,41.37486521548369,-71.8308186416141,2.356024,0,246.5260707668808,4.976832433845293,8.506934227671936,-9999,7069.839119666667,0.7965240478515625,0.3949432373046875,-0.134124755859375,1,0.91
2020-05-19 15:06:37.074 -0400,1589915196.001116,41.37486521548369,-71.8308186416141,2.356024,0,246.5260707668808,4.976832433845293,8.506934227671936,-9999,7069.889005666667,1.007568359375,0.5006866455078125,-0.2808380126953125,1,0.91
2020-05-19 15:06:37.124 -0400,1589915196.001116,41.37486521548369,-71.8308186416141,2.356024,0,246.5260707668808,4.976832433845293,8.506934227671936,-9999,7069.938889666667,0.9090576171875,0.45843505859375,-0.3617401123046875,1,0.91
2020-05-19 15:06:37.173 -0400,1589915196.001116,41.37486521548369,-71.8308186416141,2.356024,0,246.5260707668808,4.976832433845293,8.506934227671936,-9999,7069.988773666667,1.08624267578125,0.3667144775390625,-0.4890289306640625,1,0.91
2020-05-19 15:06:37.223 -0400,1589915196.001116,41.37486521548369,-71.8308186416141,2.356024,0,246.5260707668808,4.976832433845293,8.506934227671936,-9999,7070.038661666667,1.106689453125,0.2965545654296875,-0.362060546875,1,0.91
2020-05-19 15:06:37.273 -0400,1589915196.001116,41.37486521548369,-71.8308186416141,2.356024,0,246.5260707668808,4.976832433845293,8.506934227671936,-9999,7070.088546666667,0.8481597900390625,0.2812042236328125,-0.3516693115234375,1,0.91
2020-05-19 15:06:37.323 -0400,1589915197.001122,41.37486168246199,-71.8308124323749,2.035005,0,246.5260706347961,4.510938442052065,8.27423818182579,-9999,7070.138432666668,0.6407928466796875,0.4325714111328125,-0.33551025390625,1,0.91
2020-05-19 15:06:37.373 -0400,1589915197.001122,41.37486168246199,-71.8308124323749,2.035005,0,246.5260706347961,4.510938442052065,8.27423818182579,-9999,7070.188322666667,0.5548248291015625,0.546844482421875,-0.319549560546875,1,0.91
2020-05-19 15:06:37.423 -0400,1589915197.001122,41.37486168246199,-71.8308124323749,2.035005,0,246.5260706347961,4.510938442052065,8.27423818182579,-9999,7070.238212666667,0.614227294921875,0.569061279296875,-0.339080810546875,1,0.91
2020-05-19 15:06:37.473 -0400,1589915197.001122,41.37486168246199,-71.8308124323749,2.035005,0,246.5260706347961,4.510938442052065,8.27423818182579,-9999,7070.288098666667,0.751739501953125,0.530517578125,-0.3630523681640625,1,0.91
2020-05-19 15:06:37.523 -0400,1589915197.001122,41.37486168246199,-71.8308124323749,2.035005,0,246.5260706347961,4.510938442052065,8.27423818182579,-9999,7070.337983666667,1.045150756835938,0.58905029296875,-0.3996734619140625,1,0.91
2020-05-19 15:06:37.573 -0400,1589915197.001122,41.37486168246199,-71.8308124323749,2.035005,0,246.5260706347961,4.510938442052065,8.27423818182579,-9999,7070.387869666667,1.09942626953125,0.5086212158203125,-0.326202392578125,1,0.91
2020-05-19 15:06:37.623 -0400,1589915197.001122,41.37486168246199,-71.8308124323749,2.035005,0,246.5260706347961,4.510938442052065,8.27423818182579,-9999,7070.437759666667,1.175155639648438,0.4545745849609375,-0.4253692626953125,1,0.91
2020-05-19 15:06:37.672 -0400,1589915197.001122,41.37486168246199,-71.8308124323749,2.035005,0,246.5260706347961,4.510938442052065,8.27423818182579,-9999,7070.487649666667,0.9878997802734375,0.5556488037109375,-0.40350341796875,1,0.91
2020-05-19 15:06:37.722 -0400,1589915197.001122,41.37486168246199,-71.8308124323749,2.035005,0,246.5260706347961,4.510938442052065,8.27423818182579,-9999,7070.53754025,1.14263916015625,0.5691375732421875,-0.2495880126953125,1,0.91
2020-05-19 15:06:37.772 -0400,1589915197.001122,41.37486168246199,-71.8308124323749,2.035005,0,246.5260706347961,4.510938442052065,8.27423818182579,-9999,7070.587428250001,1.334487915039062,0.4087677001953125,-0.193206787109375,1,0.91
2020-05-19 15:06:37.822 -0400,1589915197.001122,41.37486168246199,-71.8308124323749,2.035005,0,246.5260706347961,4.510938442052065,8.27423818182579,-9999,7070.63732125,0.98468017578125,0.336395263671875,-0.1988372802734375,1,0.91
2020-05-19 15:06:37.872 -0400,1589915197.001122,41.37486168246199,-71.8308124323749,2.035005,0,246.5260706347961,4.510938442052065,8.27423818182579,-9999,7070.68721525,0.7280120849609375,0.35858154296875,-0.1887664794921875,1,0.91
2020-05-19 15:06:37.922 -0400,1589915197.001122,41.37486168246199,-71.8308124323749,2.035005,0,246.5260706347961,4.510938442052065,8.27423818182579,-9999,7070.73710825,0.6109619140625,0.3609161376953125,-0.098358154296875,1,0.91
2020-05-19 15:06:37.972 -0400,1589915197.001122,41.37486168246199,-71.8308124323749,2.035005,0,246.5260706347961,4.510938442052065,8.27423818182579,-9999,7070.78700225,0.6106719970703125,0.3023223876953125,-0.0810394287109375,1,0.91
2020-05-19 15:06:38.022 -0400,1589915197.001122,41.37486168246199,-71.8308124323749,2.035005,0,246.5260706347961,4.510938442052065,8.27423818182579,-9999,7070.83689925,0.7310028076171875,0.267486572265625,-0.0616302490234375,1,0.91
2020-05-19 15:06:38.071 -0400,1589915197.001122,41.37486168246199,-71.8308124323749,2.035005,0,246.5260706347961,4.510938442052065,8.27423818182579,-9999,7070.886793250001,0.997772216796875,0.3170623779296875,-0.087310791015625,1,0.91
2020-05-19 15:06:38.121 -0400,1589915197.001122,41.37486168246199,-71.8308124323749,2.035005,0,246.5260706347961,4.510938442052065,8.27423818182579,-9999,7070.93668325,1.009552001953125,0.389556884765625,-0.192291259765625,1,0.91
2020-05-19 15:06:38.171 -0400,1589915197.001122,41.37486168246199,-71.8308124323749,2.035005,0,246.5260706347961,4.510938442052065,8.27423818182579,-9999,7070.986572250001,1.150100708007812,0.456695556640625,-0.3443603515625,1,0.91
2020-05-19 15:06:38.221 -0400,1589915197.001122,41.37486168246199,-71.8308124323749,2.035005,0,246.5260706347961,4.510938442052065,8.27423818182579,-9999,7071.036464250001,0.88763427734375,0.36749267578125,-0.4031982421875,1,0.91
2020-05-19 15:06:38.271 -0400,1589915197.001122,41.37486168246199,-71.8308124323749,2.035005,0,246.5260706347961,4.510938442052065,8.27423818182579,-9999,7071.08635525,0.9367828369140625,0.259307861328125,-0.486236572265625,1,0.91
2020-05-19 15:06:38.321 -0400,1589915197.001122,41.37486168246199,-71.8308124323749,2.035005,0,246.5260706347961,4.510938442052065,8.27423818182579,-9999,7071.13624725,0.9656524658203125,0.16259765625,-0.2987518310546875,1,0.91
2020-05-19 15:06:38.371 -0400,1589915198.001129,41.3748662332163,-71.83080952055428,-2.83577,1.552237,-1,4.197004828119963,8.18453188683746,-9999,7071.186140250001,0.6968231201171875,0.2531280517578125,-0.232666015625,1,0.91
2020-05-19 15:06:38.421 -0400,1589915198.001129,41.3748662332163,-71.83080952055428,-2.83577,1.552237,-1,4.197004828119963,8.18453188683746,-9999,7071.23602825,0.5890045166015625,0.12115478515625,-0.1420135498046875,1,0.91
2020-05-19 15:06:38.471 -0400,1589915198.001129,41.3748662332163,-71.83080952055428,-2.83577,1.552237,-1,4.197004828119963,8.18453188683746,-9999,7071.28591725,0.489471435546875,0.51507568359375,-0.27972412109375,1,0.91
2020-05-19 15:06:38.521 -0400,1589915198.001129,41.3748662332163,-71.83080952055428,-2.83577,1.552237,-1,4.197004828119963,8.18453188683746,-9999,7071.335802250001,0.659912109375,0.69244384765625,-0.2713775634765625,1,0.91
2020-05-19 15:06:38.570 -0400,1589915198.001129,41.3748662332163,-71.83080952055428,-2.83577,1.552237,-1,4.197004828119963,8.18453188683746,-9999,7071.38568725,0.89404296875,0.6448974609375,-0.30377197265625,1,0.91
2020-05-19 15:06:38.620 -0400,1589915198.001129,41.3748662332163,-71.83080952055428,-2.83577,1.552237,-1,4.197004828119963,8.18453188683746,-9999,7071.435573250001,1.189544677734375,0.6758270263671875,-0.294525146484375,1,0.91
2020-05-19 15:06:38.670 -0400,1589915198.001129,41.3748662332163,-71.83080952055428,-2.83577,1.552237,-1,4.197004828119963,8.18453188683746,-9999,7071.485459250001,1.281723022460938,0.6685791015625,-0.3318939208984375,1,0.91
2020-05-19 15:06:38.720 -0400,1589915198.001129,41.3748662332163,-71.83080952055428,-2.83577,1.552237,-1,4.197004828119963,8.18453188683746,-9999,7071.535345541667,1.204635620117188,0.7003021240234375,-0.4820404052734375,1,0.91
2020-05-19 15:06:38.770 -0400,1589915198.001129,41.3748662332163,-71.83080952055428,-2.83577,1.552237,-1,4.197004828119963,8.18453188683746,-9999,7071.585229541667,1.072708129882812,0.63836669921875,-0.261962890625,1,0.91
2020-05-19 15:06:38.820 -0400,1589915198.001129,41.3748662332163,-71.83080952055428,-2.83577,1.552237,-1,4.197004828119963,8.18453188683746,-9999,7071.635116541667,1.2327880859375,0.57861328125,-0.26171875,1,0.91
2020-05-19 15:06:38.870 -0400,1589915198.001129,41.3748662332163,-71.83080952055428,-2.83577,1.552237,-1,4.197004828119963,8.18453188683746,-9999,7071.685006541667,1.058792114257812,0.43756103515625,-0.24139404296875,1,0.91
2020-05-19 15:06:38.920 -0400,1589915198.001129,41.3748662332163,-71.83080952055428,-2.83577,1.552237,-1,4.197004828119963,8.18453188683746,-9999,7071.734895541667,0.849151611328125,0.356964111328125,-0.1716766357421875,1,0.91
2020-05-19 15:06:38.969 -0400,1589915198.001129,41.3748662332163,-71.83080952055428,-2.83577,1.552237,-1,4.197004828119963,8.18453188683746,-9999,7071.784781541667,0.8307952880859375,0.3750762939453125,-0.119384765625,1,0.91
2020-05-19 15:06:39.019 -0400,1589915198.001129,41.3748662332163,-71.83080952055428,-2.83577,1.552237,-1,4.197004828119963,8.18453188683746,-9999,7071.834666541668,0.9084625244140625,0.32769775390625,-0.0754852294921875,1,0.91
2020-05-19 15:06:39.069 -0400,1589915198.001129,41.3748662332163,-71.83080952055428,-2.83577,1.552237,-1,4.197004828119963,8.18453188683746,-9999,7071.884552541667,0.942474365234375,0.2775421142578125,-0.054412841796875,1,0.91
2020-05-19 15:06:39.119 -0400,1589915198.001129,41.3748662332163,-71.83080952055428,-2.83577,1.552237,-1,4.197004828119963,8.18453188683746,-9999,7071.934437541667,0.979644775390625,0.2640533447265625,-0.003143310546875,1,0.91
2020-05-19 15:06:39.169 -0400,1589915198.001129,41.3748662332163,-71.83080952055428,-2.83577,1.552237,-1,4.197004828119963,8.18453188683746,-9999,7071.984324541667,0.8436431884765625,0.28662109375,-0.0157318115234375,1,0.91
2020-05-19 15:06:39.219 -0400,1589915198.001129,41.3748662332163,-71.83080952055428,-2.83577,1.552237,-1,4.197004828119963,8.18453188683746,-9999,7072.034211541667,0.8065032958984375,0.3632659912109375,-0.0923004150390625,1,0.91
2020-05-19 15:06:39.269 -0400,1589915199.001136,41.37487270372948,-71.83080511943291,1.09217,0,19.19772777697941,4.194165644413528,7.98201639742977,-9999,7072.084099541667,0.73779296875,0.4011993408203125,-0.148590087890625,1,0.91
2020-05-19 15:06:39.319 -0400,1589915199.001136,41.37487270372948,-71.83080511943291,1.09217,0,19.19772777697941,4.194165644413528,7.98201639742977,-9999,7072.133986541667,0.9501190185546875,0.4862060546875,-0.361358642578125,1,0.91
2020-05-19 15:06:39.369 -0400,1589915199.001136,41.37487270372948,-71.83080511943291,1.09217,0,19.19772777697941,4.194165644413528,7.98201639742977,-9999,7072.183873541667,1.100189208984375,0.5166778564453125,-0.4779815673828125,1,0.91
2020-05-19 15:06:39.419 -0400,1589915199.001136,41.37487270372948,-71.83080511943291,1.09217,0,19.19772777697941,4.194165644413528,7.98201639742977,-9999,7072.233757541667,0.84423828125,0.3535919189453125,-0.361663818359375,1,0.91
2020-05-19 15:06:39.468 -0400,1589915199.001136,41.37487270372948,-71.83080511943291,1.09217,0,19.19772777697941,4.194165644413528,7.98201639742977,-9999,7072.283644541667,0.7314453125,0.348419189453125,-0.37615966796875,1,0.91
2020-05-19 15:06:39.518 -0400,1589915199.001136,41.37487270372948,-71.83080511943291,1.09217,0,19.19772777697941,4.194165644413528,7.98201639742977,-9999,7072.333531541667,0.7217559814453125,0.510711669921875,-0.39984130859375,1,0.91
2020-05-19 15:06:39.568 -0400,1589915199.001136,41.37487270372948,-71.83080511943291,1.09217,0,19.19772777697941,4.194165644413528,7.98201639742977,-9999,7072.383416541667,0.7208404541015625,0.5851593017578125,-0.4350128173828125,1,0.91
2020-05-19 15:06:39.618 -0400,1589915199.001136,41.37487270372948,-71.83080511943291,1.09217,0,19.19772777697941,4.194165644413528,7.98201639742977,-9999,7072.433302541667,0.8864288330078125,0.6215057373046875,-0.47802734375,1,0.91
2020-05-19 15:06:39.668 -0400,1589915199.001136,41.37487270372948,-71.83080511943291,1.09217,0,19.19772777697941,4.194165644413528,7.98201639742977,-9999,7072.483190541667,1.12225341796875,0.6696624755859375,-0.47039794921875,1,0.91
2020-05-19 15:06:39.718 -0400,1589915199.001136,41.37487270372948,-71.83080511943291,1.09217,0,19.19772777697941,4.194165644413528,7.98201639742977,-9999,7072.533077,1.121185302734375,0.4639739990234375,-0.3270721435546875,1,0.91
2020-05-19 15:06:39.768 -0400,1589915199.001136,41.37487270372948,-71.83080511943291,1.09217,0,19.19772777697941,4.194165644413528,7.98201639742977,-9999,7072.582967,1.127593994140625,0.379730224609375,-0.3282623291015625,1,0.91
2020-05-19 15:06:39.818 -0400,1589915199.001136,41.37487270372948,-71.83080511943291,1.09217,0,19.19772777697941,4.194165644413528,7.98201639742977,-9999,7072.632856,1.038116455078125,0.5602874755859375,-0.2918243408203125,1,0.91
2020-05-19 15:06:39.867 -0400,1589915199.001136,41.37487270372948,-71.83080511943291,1.09217,0,19.19772777697941,4.194165644413528,7.98201639742977,-9999,7072.682746,1.239105224609375,0.64508056640625,-0.178741455078125,1,0.91
2020-05-19 15:06:39.917 -0400,1589915199.001136,41.37487270372948,-71.83080511943291,1.09217,0,19.19772777697941,4.194165644413528,7.98201639742977,-9999,7072.732635,1.167938232421875,0.4709014892578125,-0.1362762451171875,1,0.91
2020-05-19 15:06:39.967 -0400,1589915199.001136,41.37487270372948,-71.83080511943291,1.09217,0,19.19772777697941,4.194165644413528,7.98201639742977,-9999,7072.782524,0.84088134765625,0.33099365234375,-0.1266021728515625,1,0.91
2020-05-19 15:06:40.017 -0400,1589915199.001136,41.37487270372948,-71.83080511943291,1.09217,0,19.19772777697941,4.194165644413528,7.98201639742977,-9999,7072.832414,0.74481201171875,0.3419342041015625,-0.084869384765625,1,0.91
2020-05-19 15:06:40.067 -0400,1589915199.001136,41.37487270372948,-71.83080511943291,1.09217,0,19.19772777697941,4.194165644413528,7.98201639742977,-9999,7072.882302,0.7492523193359375,0.322998046875,-0.03753662109375,1,0.91
2020-05-19 15:06:40.117 -0400,1589915199.001136,41.37487270372948,-71.83080511943291,1.09217,0,19.19772777697941,4.194165644413528,7.98201639742977,-9999,7072.932189,0.7800445556640625,0.2740936279296875,-0.02276611328125,1,0.91
2020-05-19 15:06:40.167 -0400,1589915199.001136,41.37487270372948,-71.83080511943291,1.09217,0,19.19772777697941,4.194165644413528,7.98201639742977,-9999,7072.982076,0.8205718994140625,0.2915802001953125,-0.0311279296875,1,0.91
2020-05-19 15:06:40.217 -0400,1589915199.001136,41.37487270372948,-71.83080511943291,1.09217,0,19.19772777697941,4.194165644413528,7.98201639742977,-9999,7073.031963,0.8490447998046875,0.3094940185546875,-0.0490570068359375,1,0.91
2020-05-19 15:06:40.267 -0400,1589915199.001136,41.37487270372948,-71.83080511943291,1.09217,0,19.19772777697941,4.194165644413528,7.98201639742977,-9999,7073.081853000001,0.7484893798828125,0.350830078125,-0.091827392578125,1,0.91
2020-05-19 15:06:40.317 -0400,1589915200.001143,41.37487352310045,-71.83080351058329,1.37852,0,19.19772928480649,4.107889925998934,7.911421382906429,-9999,7073.131744,0.9316864013671875,0.4745025634765625,-0.2755279541015625,1,0.91
2020-05-19 15:06:40.367 -0400,1589915200.001143,41.37487352310045,-71.83080351058329,1.37852,0,19.19772928480649,4.107889925998934,7.911421382906429,-9999,7073.181637000001,0.9072723388671875,0.530731201171875,-0.385345458984375,1,0.91
2020-05-19 15:06:40.416 -0400,1589915200.001143,41.37487352310045,-71.83080351058329,1.37852,0,19.19772928480649,4.107889925998934,7.911421382906429,-9999,7073.231527000001,1.1304931640625,0.474365234375,-0.56817626953125,1,0.91
2020-05-19 15:06:40.466 -0400,1589915200.001143,41.37487352310045,-71.83080351058329,1.37852,0,19.19772928480649,4.107889925998934,7.911421382906429,-9999,7073.281415,1.1998291015625,0.3250579833984375,-0.4275970458984375,1,0.91
2020-05-19 15:06:40.516 -0400,1589915200.001143,41.37487352310045,-71.83080351058329,1.37852,0,19.19772928480649,4.107889925998934,7.911421382906429,-9999,7073.331306,0.8663330078125,0.197052001953125,-0.4810791015625,1,0.91
2020-05-19 15:06:40.566 -0400,1589915200.001143,41.37487352310045,-71.83080351058329,1.37852,0,19.19772928480649,4.107889925998934,7.911421382906429,-9999,7073.381197000001,0.6030426025390625,0.3530426025390625,-0.476531982421875,1,0.91
2020-05-19 15:06:40.616 -0400,1589915200.001143,41.37487352310045,-71.83080351058329,1.37852,0,19.19772928480649,4.107889925998934,7.911421382906429,-9999,7073.431087000001,0.54010009765625,0.480865478515625,-0.447357177734375,1,0.91
2020-05-19 15:06:40.666 -0400,1589915200.001143,41.37487352310045,-71.83080351058329,1.37852,0,19.19772928480649,4.107889925998934,7.911421382906429,-9999,7073.480976000001,0.62359619140625,0.4873046875,-0.4442901611328125,1,0.91
2020-05-19 15:06:40.716 -0400,1589915200.001143,41.37487352310045,-71.83080351058329,1.37852,0,19.19772928480649,4.107889925998934,7.911421382906429,-9999,7073.530863666667,0.8096771240234375,0.4080810546875,-0.399993896484375,1,0.91
2020-05-19 15:06:40.766 -0400,1589915200.001143,41.37487352310045,-71.83080351058329,1.37852,0,19.19772928480649,4.107889925998934,7.911421382906429,-9999,7073.580753666667,1.020538330078125,0.4217987060546875,-0.343658447265625,1,0.91
2020-05-19 15:06:40.816 -0400,1589915200.001143,41.37487352310045,-71.83080351058329,1.37852,0,19.19772928480649,4.107889925998934,7.911421382906429,-9999,7073.630637666667,1.09649658203125,0.4483489990234375,-0.290069580078125,1,0.91
2020-05-19 15:06:40.865 -0400,1589915200.001143,41.37487352310045,-71.83080351058329,1.37852,0,19.19772928480649,4.107889925998934,7.911421382906429,-9999,7073.680524666667,1.188735961914062,0.4628143310546875,-0.2633514404296875,1,0.91
2020-05-19 15:06:40.915 -0400,1589915200.001143,41.37487352310045,-71.83080351058329,1.37852,0,19.19772928480649,4.107889925998934,7.911421382906429,-9999,7073.730417666667,0.9336700439453125,0.525482177734375,-0.3051300048828125,1,0.91
2020-05-19 15:06:40.965 -0400,1589915200.001143,41.37487352310045,-71.83080351058329,1.37852,0,19.19772928480649,4.107889925998934,7.911421382906429,-9999,7073.780310666667,1.024093627929688,0.5691375732421875,-0.232025146484375,1,0.91
2020-05-19 15:06:41.015 -0400,1589915200.001143,41.37487352310045,-71.83080351058329,1.37852,0,19.19772928480649,4.107889925998934,7.911421382906429,-9999,7073.830199666667,1.147933959960938,0.4772491455078125,-0.2888641357421875,1,0.91
2020-05-19 15:06:41.065 -0400,1589915200.001143,41.37487352310045,-71.83080351058329,1.37852,0,19.19772928480649,4.107889925998934,7.911421382906429,-9999,7073.880090666667,0.9319000244140625,0.323455810546875,-0.3084716796875,1,0.91
2020-05-19 15:06:41.115 -0400,1589915200.001143,41.37487352310045,-71.83080351058329,1.37852,0,19.19772928480649,4.107889925998934,7.911421382906429,-9999,7073.929980666667,0.74456787109375,0.318450927734375,-0.306915283203125,1,0.91
2020-05-19 15:06:41.165 -0400,1589915200.001143,41.37487352310045,-71.83080351058329,1.37852,0,19.19772928480649,4.107889925998934,7.911421382906429,-9999,7073.979873666667,0.678497314453125,0.3292236328125,-0.246307373046875,1,0.91
2020-05-19 15:06:41.214 -0400,1589915200.001143,41.37487352310045,-71.83080351058329,1.37852,0,19.19772928480649,4.107889925998934,7.911421382906429,-9999,7074.029763666667,0.69488525390625,0.295135498046875,-0.2030792236328125,1,0.91
2020-05-19 15:06:41.264 -0400,1589915200.001143,41.37487352310045,-71.83080351058329,1.37852,0,19.19772928480649,4.107889925998934,7.911421382906429,-9999,7074.079653666667,0.735870361328125,0.271697998046875,-0.15277099609375,1,0.91
2020-05-19 15:06:41.314 -0400,1589915201.00115,41.37488346873448,-71.83078933800525,1.82839,0,52.74020707049429,4.095713467633772,7.685536977968134,-9999,7074.129544666667,0.8353271484375,0.3038482666015625,-0.1611785888671875,1,0.91
2020-05-19 15:06:41.364 -0400,1589915201.00115,41.37488346873448,-71.83078933800525,1.82839,0,52.74020707049429,4.095713467633772,7.685536977968134,-9999,7074.179432666667,0.873443603515625,0.342926025390625,-0.1462860107421875,1,0.91
2020-05-19 15:06:41.414 -0400,1589915201.00115,41.37488346873448,-71.83078933800525,1.82839,0,52.74020707049429,4.095713467633772,7.685536977968134,-9999,7074.229318666667,1.060714721679688,0.44427490234375,-0.2650299072265625,1,0.91
2020-05-19 15:06:41.464 -0400,1589915201.00115,41.37488346873448,-71.83078933800525,1.82839,0,52.74020707049429,4.095713467633772,7.685536977968134,-9999,7074.279208666667,0.932525634765625,0.4535369873046875,-0.366058349609375,1,0.91
2020-05-19 15:06:41.514 -0400,1589915201.00115,41.37488346873448,-71.83078933800525,1.82839,0,52.74020707049429,4.095713467633772,7.685536977968134,-9999,7074.329094666668,1.1929931640625,0.357940673828125,-0.4011383056640625,1,0.91
2020-05-19 15:06:41.564 -0400,1589915201.00115,41.37488346873448,-71.83078933800525,1.82839,0,52.74020707049429,4.095713467633772,7.685536977968134,-9999,7074.378980666667,1.186492919921875,0.304229736328125,-0.41790771484375,1,0.91
2020-05-19 15:06:41.614 -0400,1589915201.00115,41.37488346873448,-71.83078933800525,1.82839,0,52.74020707049429,4.095713467633772,7.685536977968134,-9999,7074.428867666667,0.633941650390625,0.2674560546875,-0.456756591796875,1,0.91
2020-05-19 15:06:41.663 -0400,1589915201.00115,41.37488346873448,-71.83078933800525,1.82839,0,52.74020707049429,4.095713467633772,7.685536977968134,-9999,7074.478753666667,0.4675750732421875,0.3004150390625,-0.345306396484375,1,0.91
2020-05-19 15:06:41.713 -0400,1589915201.00115,41.37488346873448,-71.83078933800525,1.82839,0,52.74020707049429,4.095713467633772,7.685536977968134,-9999,7074.528638916667,0.47802734375,0.3477325439453125,-0.2471923828125,1,0.91
2020-05-19 15:06:41.763 -0400,1589915201.00115,41.37488346873448,-71.83078933800525,1.82839,0,52.74020707049429,4.095713467633772,7.685536977968134,-9999,7074.578528916667,0.5997772216796875,0.4058074951171875,-0.2838592529296875,1,0.91
2020-05-19 15:06:41.813 -0400,1589915201.00115,41.37488346873448,-71.83078933800525,1.82839,0,52.74020707049429,4.095713467633772,7.685536977968134,-9999,7074.628415916667,0.8474884033203125,0.4673004150390625,-0.316436767578125,1,0.91
2020-05-19 15:06:41.863 -0400,1589915201.00115,41.37488346873448,-71.83078933800525,1.82839,0,52.74020707049429,4.095713467633772,7.685536977968134,-9999,7074.678302916667,0.998443603515625,0.5215606689453125,-0.425262451171875,1,0.91
2020-05-19 15:06:41.913 -0400,1589915201.00115,41.37488346873448,-71.83078933800525,1.82839,0,52.74020707049429,4.095713467633772,7.685536977968134,-9999,7074.728187916667,1.208221435546875,0.5331268310546875,-0.414642333984375,1,0.91
2020-05-19 15:06:41.963 -0400,1589915201.00115,41.37488346873448,-71.83078933800525,1.82839,0,52.74020707049429,4.095713467633772,7.685536977968134,-9999,7074.778073916667,1.267837524414062,0.4991455078125,-0.4302825927734375,1,0.91
2020-05-19 15:06:42.013 -0400,1589915201.00115,41.37488346873448,-71.83078933800525,1.82839,0,52.74020707049429,4.095713467633772,7.685536977968134,-9999,7074.827958916667,1.049896240234375,0.50970458984375,-0.381591796875,1,0.91
2020-05-19 15:06:42.063 -0400,1589915201.00115,41.37488346873448,-71.83078933800525,1.82839,0,52.74020707049429,4.095713467633772,7.685536977968134,-9999,7074.877845916667,1.17205810546875,0.495086669921875,-0.300689697265625,1,0.91
2020-05-19 15:06:42.113 -0400,1589915201.00115,41.37488346873448,-71.83078933800525,1.82839,0,52.74020707049429,4.095713467633772,7.685536977968134,-9999,7074.927731916667,1.040496826171875,0.3625946044921875,-0.2549896240234375,1,0.91
2020-05-19 15:06:42.162 -0400,1589915201.00115,41.37488346873448,-71.83078933800525,1.82839,0,52.74020707049429,4.095713467633772,7.685536977968134,-9999,7074.977620916668,0.7530364990234375,0.3698883056640625,-0.248687744140625,1,0.91
2020-05-19 15:06:42.212 -0400,1589915201.00115,41.37488346873448,-71.83078933800525,1.82839,0,52.74020707049429,4.095713467633772,7.685536977968134,-9999,7075.027508916667,0.6476287841796875,0.4149627685546875,-0.210540771484375,1,0.91
2020-05-19 15:06:42.262 -0400,1589915202.001157,41.37489439318955,-71.83078919826164,1.089752,0.4400336,24.81809079361143,3.85593057749624,7.470139410564223,-9999,7075.077396916667,0.64056396484375,0.35906982421875,-0.1548614501953125,1,0.91
2020-05-19 15:06:42.312 -0400,1589915202.001157,41.37489439318955,-71.83078919826164,1.089752,0.4400336,24.81809079361143,3.85593057749624,7.470139410564223,-9999,7075.127282916667,0.7241973876953125,0.3026580810546875,-0.1524810791015625,1,0.91
2020-05-19 15:06:42.362 -0400,1589915202.001157,41.37489439318955,-71.83078919826164,1.089752,0.4400336,24.81809079361143,3.85593057749624,7.470139410564223,-9999,7075.177168916667,0.892059326171875,0.2894439697265625,-0.1034698486328125,1,0.91
2020-05-19 15:06:42.412 -0400,1589915202.001157,41.37489439318955,-71.83078919826164,1.089752,0.4400336,24.81809079361143,3.85593057749624,7.470139410564223,-9999,7075.227054916667,1.004165649414062,0.347503662109375,-0.1108245849609375,1,0.91
2020-05-19 15:06:42.462 -0400,1589915202.001157,41.37489439318955,-71.83078919826164,1.089752,0.4400336,24.81809079361143,3.85593057749624,7.470139410564223,-9999,7075.276941916667,0.8311309814453125,0.40545654296875,-0.1927947998046875,1,0.91
2020-05-19 15:06:42.511 -0400,1589915202.001157,41.37489439318955,-71.83078919826164,1.089752,0.4400336,24.81809079361143,3.85593057749624,7.470139410564223,-9999,7075.326829916668,1.12109375,0.477447509765625,-0.281463623046875,1,0.91
2020-05-19 15:06:42.561 -0400,1589915202.001157,41.37489439318955,-71.83078919826164,1.089752,0.4400336,24.81809079361143,3.85593057749624,7.470139410564223,-9999,7075.376715916667,0.946014404296875,0.3915863037109375,-0.2196197509765625,1,0.91
2020-05-19 15:06:42.611 -0400,1589915202.001157,41.37489439318955,-71.83078919826164,1.089752,0.4400336,24.81809079361143,3.85593057749624,7.470139410564223,-9999,7075.426600916667,1.143524169921875,0.4405364990234375,-0.42864990234375,1,0.91
2020-05-19 15:06:42.661 -0400,1589915202.001157,41.37489439318955,-71.83078919826164,1.089752,0.4400336,24.81809079361143,3.85593057749624,7.470139410564223,-9999,7075.476486916667,1.007476806640625,0.4753570556640625,-0.38580322265625,1,0.91
2020-05-19 15:06:42.711 -0400,1589915202.001157,41.37489439318955,-71.83078919826164,1.089752,0.4400336,24.81809079361143,3.85593057749624,7.470139410564223,-9999,7075.52636925,0.669097900390625,0.341094970703125,-0.3359832763671875,1,0.91
2020-05-19 15:06:42.761 -0400,1589915202.001157,41.37489439318955,-71.83078919826164,1.089752,0.4400336,24.81809079361143,3.85593057749624,7.470139410564223,-9999,7075.57625325,0.52783203125,0.43218994140625,-0.31475830078125,1,0.91
2020-05-19 15:06:42.811 -0400,1589915202.001157,41.37489439318955,-71.83078919826164,1.089752,0.4400336,24.81809079361143,3.85593057749624,7.470139410564223,-9999,7075.62613725,0.55413818359375,0.516754150390625,-0.3073272705078125,1,0.91
2020-05-19 15:06:42.861 -0400,1589915202.001157,41.37489439318955,-71.83078919826164,1.089752,0.4400336,24.81809079361143,3.85593057749624,7.470139410564223,-9999,7075.67602325,0.675994873046875,0.5353240966796875,-0.3757781982421875,1,0.91
2020-05-19 15:06:42.911 -0400,1589915202.001157,41.37489439318955,-71.83078919826164,1.089752,0.4400336,24.81809079361143,3.85593057749624,7.470139410564223,-9999,7075.72590525,0.8868560791015625,0.51092529296875,-0.3552398681640625,1,0.91
2020-05-19 15:06:42.960 -0400,1589915202.001157,41.37489439318955,-71.83078919826164,1.089752,0.4400336,24.81809079361143,3.85593057749624,7.470139410564223,-9999,7075.77578825,1.130599975585938,0.4936676025390625,-0.3259735107421875,1,0.91
2020-05-19 15:06:43.010 -0400,1589915202.001157,41.37489439318955,-71.83078919826164,1.089752,0.4400336,24.81809079361143,3.85593057749624,7.470139410564223,-9999,7075.82567225,1.137680053710938,0.3930206298828125,-0.25445556640625,1,0.91
2020-05-19 15:06:43.060 -0400,1589915202.001157,41.37489439318955,-71.83078919826164,1.089752,0.4400336,24.81809079361143,3.85593057749624,7.470139410564223,-9999,7075.875558250001,1.11358642578125,0.4561004638671875,-0.27313232421875,1,0.91
2020-05-19 15:06:43.110 -0400,1589915202.001157,41.37489439318955,-71.83078919826164,1.089752,0.4400336,24.81809079361143,3.85593057749624,7.470139410564223,-9999,7075.92544325,1.0511474609375,0.58538818359375,-0.2260894775390625,1,0.91
2020-05-19 15:06:43.160 -0400,1589915202.001157,41.37489439318955,-71.83078919826164,1.089752,0.4400336,24.81809079361143,3.85593057749624,7.470139410564223,-9999,7075.97532725,1.245025634765625,0.5791015625,-0.1807708740234375,1,0.91
2020-05-19 15:06:43.210 -0400,1589915202.001157,41.37489439318955,-71.83078919826164,1.089752,0.4400336,24.81809079361143,3.85593057749624,7.470139410564223,-9999,7076.02520925,1.051406860351562,0.3604736328125,-0.1451263427734375,1,0.91
2020-05-19 15:06:43.260 -0400,1589915202.001157,41.37489439318955,-71.83078919826164,1.089752,0.4400336,24.81809079361143,3.85593057749624,7.470139410564223,-9999,7076.075094250001,0.7899017333984375,0.2880859375,-0.1658782958984375,1,0.91
2020-05-19 15:06:43.310 -0400,1589915202.001157,41.37489439318955,-71.83078919826164,1.089752,0.4400336,24.81809079361143,3.85593057749624,7.470139410564223,-9999,7076.12497925,0.707550048828125,0.3353118896484375,-0.135284423828125,1,0.91
2020-05-19 15:06:43.360 -0400,1589915203.001164,41.37488218813549,-71.83077308242149,1.739125,0.5387328,97.33270623405116,3.869875803673601,7.409202265492345,-9999,7076.17486625,0.734710693359375,0.31231689453125,-0.11724853515625,1,0.91
2020-05-19 15:06:43.409 -0400,1589915203.001164,41.37488218813549,-71.83077308242149,1.739125,0.5387328,97.33270623405116,3.869875803673601,7.409202265492345,-9999,7076.22475225,0.7669219970703125,0.2625885009765625,-0.11346435546875,1,0.91
2020-05-19 15:06:43.459 -0400,1589915203.001164,41.37488218813549,-71.83077308242149,1.739125,0.5387328,97.33270623405116,3.869875803673601,7.409202265492345,-9999,7076.27463925,0.828277587890625,0.2664794921875,-0.1008148193359375,1,0.91
2020-05-19 15:06:43.509 -0400,1589915203.001164,41.37488218813549,-71.83077308242149,1.739125,0.5387328,97.33270623405116,3.869875803673601,7.409202265492345,-9999,7076.32452525,0.801483154296875,0.29925537109375,-0.098724365234375,1,0.91
2020-05-19 15:06:43.559 -0400,1589915203.001164,41.37488218813549,-71.83077308242149,1.739125,0.5387328,97.33270623405116,3.869875803673601,7.409202265492345,-9999,7076.374411250001,0.97784423828125,0.4048614501953125,-0.1495513916015625,1,0.91
2020-05-19 15:06:43.609 -0400,1589915203.001164,41.37488218813549,-71.83077308242149,1.739125,0.5387328,97.33270623405116,3.869875803673601,7.409202265492345,-9999,7076.42429825,0.9347076416015625,0.5099639892578125,-0.3110504150390625,1,0.91
2020-05-19 15:06:43.659 -0400,1589915203.001164,41.37488218813549,-71.83077308242149,1.739125,0.5387328,97.33270623405116,3.869875803673601,7.409202265492345,-9999,7076.47418025,1.19879150390625,0.5637359619140625,-0.4285430908203125,1,0.91
2020-05-19 15:06:43.709 -0400,1589915203.001164,41.37488218813549,-71.83077308242149,1.739125,0.5387328,97.33270623405116,3.869875803673601,7.409202265492345,-9999,7076.524065250001,1.2479248046875,0.508880615234375,-0.440887451171875,1,0.91
2020-05-19 15:06:43.759 -0400,1589915203.001164,41.37488218813549,-71.83077308242149,1.739125,0.5387328,97.33270623405116,3.869875803673601,7.409202265492345,-9999,7076.57395025,0.788238525390625,0.306915283203125,-0.3431396484375,1,0.91
2020-05-19 15:06:43.809 -0400,1589915203.001164,41.37488218813549,-71.83077308242149,1.739125,0.5387328,97.33270623405116,3.869875803673601,7.409202265492345,-9999,7076.623836250001,0.630401611328125,0.3253326416015625,-0.3092041015625,1,0.91
2020-05-19 15:06:43.859 -0400,1589915203.001164,41.37488218813549,-71.83077308242149,1.739125,0.5387328,97.33270623405116,3.869875803673601,7.409202265492345,-9999,7076.67372125,0.6190643310546875,0.418670654296875,-0.3575439453125,1,0.91
2020-05-19 15:06:43.909 -0400,1589915203.001164,41.37488218813549,-71.83077308242149,1.739125,0.5387328,97.33270623405116,3.869875803673601,7.409202265492345,-9999,7076.72361125,0.641754150390625,0.4474334716796875,-0.3610687255859375,1,0.91
2020-05-19 15:06:43.958 -0400,1589915203.001164,41.37488218813549,-71.83077308242149,1.739125,0.5387328,97.33270623405116,3.869875803673601,7.409202265492345,-9999,7076.77350025,0.738739013671875,0.4133148193359375,-0.317413330078125,1,0.91
2020-05-19 15:06:44.008 -0400,1589915203.001164,41.37488218813549,-71.83077308242149,1.739125,0.5387328,97.33270623405116,3.869875803673601,7.409202265492345,-9999,7076.82338925,0.950592041015625,0.4737548828125,-0.345977783203125,1,0.91
2020-05-19 15:06:44.058 -0400,1589915203.001164,41.37488218813549,-71.83077308242149,1.739125,0.5387328,97.33270623405116,3.869875803673601,7.409202265492345,-9999,7076.873277250001,1.14459228515625,0.5155487060546875,-0.3436279296875,1,0.91
2020-05-19 15:06:44.108 -0400,1589915203.001164,41.37488218813549,-71.83077308242149,1.739125,0.5387328,97.33270623405116,3.869875803673601,7.409202265492345,-9999,7076.923166250001,1.345443725585938,0.536956787109375,-0.383056640625,1,0.91
2020-05-19 15:06:44.158 -0400,1589915203.001164,41.37488218813549,-71.83077308242149,1.739125,0.5387328,97.33270623405116,3.869875803673601,7.409202265492345,-9999,7076.97305225,0.995635986328125,0.486419677734375,-0.358367919921875,1,0.91
2020-05-19 15:06:44.208 -0400,1589915203.001164,41.37488218813549,-71.83077308242149,1.739125,0.5387328,97.33270623405116,3.869875803673601,7.409202265492345,-9999,7077.02294425,1.11505126953125,0.4195404052734375,-0.2375640869140625,1,0.91
2020-05-19 15:06:44.257 -0400,1589915203.001164,41.37488218813549,-71.83077308242149,1.739125,0.5387328,97.33270623405116,3.869875803673601,7.409202265492345,-9999,7077.07283525,1.112960815429688,0.344970703125,-0.2523345947265625,1,0.91
2020-05-19 15:06:44.308 -0400,1589915204.001171,41.37488245014506,-71.83077267060828,2.367373,0,79.43745659041839,4.0670026593142,7.620489418693839,-9999,7077.12272525,0.868682861328125,0.334747314453125,-0.2409515380859375,1,0.91
2020-05-19 15:06:44.357 -0400,1589915204.001171,41.37488245014506,-71.83077267060828,2.367373,0,79.43745659041839,4.0670026593142,7.620489418693839,-9999,7077.172613250001,0.7400054931640625,0.33770751953125,-0.19232177734375,1,0.91
2020-05-19 15:06:44.407 -0400,1589915204.001171,41.37488245014506,-71.83077267060828,2.367373,0,79.43745659041839,4.0670026593142,7.620489418693839,-9999,7077.22250125,0.6693572998046875,0.3254547119140625,-0.140594482421875,1,0.91
2020-05-19 15:06:44.457 -0400,1589915204.001171,41.37488245014506,-71.83077267060828,2.367373,0,79.43745659041839,4.0670026593142,7.620489418693839,-9999,7077.27238825,0.650054931640625,0.285308837890625,-0.130096435546875,1,0.91
2020-05-19 15:06:44.507 -0400,1589915204.001171,41.37488245014506,-71.83077267060828,2.367373,0,79.43745659041839,4.0670026593142,7.620489418693839,-9999,7077.32227725,0.6308746337890625,0.2725982666015625,-0.1191558837890625,1,0.91
2020-05-19 15:06:44.557 -0400,1589915204.001171,41.37488245014506,-71.83077267060828,2.367373,0,79.43745659041839,4.0670026593142,7.620489418693839,-9999,7077.372167250001,0.6896209716796875,0.300201416015625,-0.1403350830078125,1,0.91
2020-05-19 15:06:44.607 -0400,1589915204.001171,41.37488245014506,-71.83077267060828,2.367373,0,79.43745659041839,4.0670026593142,7.620489418693839,-9999,7077.422054250001,0.852203369140625,0.3519439697265625,-0.1593475341796875,1,0.91
2020-05-19 15:06:44.657 -0400,1589915204.001171,41.37488245014506,-71.83077267060828,2.367373,0,79.43745659041839,4.0670026593142,7.620489418693839,-9999,7077.47194425,1.0487060546875,0.412933349609375,-0.2087249755859375,1,0.91
2020-05-19 15:06:44.707 -0400,1589915204.001171,41.37488245014506,-71.83077267060828,2.367373,0,79.43745659041839,4.0670026593142,7.620489418693839,-9999,7077.521833166667,1.153778076171875,0.478118896484375,-0.347625732421875,1,0.91
2020-05-19 15:06:44.756 -0400,1589915204.001171,41.37488245014506,-71.83077267060828,2.367373,0,79.43745659041839,4.0670026593142,7.620489418693839,-9999,7077.571719166667,1.110549926757812,0.4625244140625,-0.4365386962890625,1,0.91
2020-05-19 15:06:44.806 -0400,1589915204.001171,41.37488245014506,-71.83077267060828,2.367373,0,79.43745659041839,4.0670026593142,7.620489418693839,-9999,7077.621607166667,1.196990966796875,0.35772705078125,-0.3886260986328125,1,0.91
2020-05-19 15:06:44.856 -0400,1589915204.001171,41.37488245014506,-71.83077267060828,2.367373,0,79.43745659041839,4.0670026593142,7.620489418693839,-9999,7077.671496166667,0.778350830078125,0.284423828125,-0.313690185546875,1,0.91
2020-05-19 15:06:44.906 -0400,1589915204.001171,41.37488245014506,-71.83077267060828,2.367373,0,79.43745659041839,4.0670026593142,7.620489418693839,-9999,7077.721384166667,0.535919189453125,0.41448974609375,-0.3184967041015625,1,0.91
2020-05-19 15:06:44.956 -0400,1589915204.001171,41.37488245014506,-71.83077267060828,2.367373,0,79.43745659041839,4.0670026593142,7.620489418693839,-9999,7077.771273166667,0.5039215087890625,0.48541259765625,-0.2709503173828125,1,0.91
2020-05-19 15:06:45.006 -0400,1589915204.001171,41.37488245014506,-71.83077267060828,2.367373,0,79.43745659041839,4.0670026593142,7.620489418693839,-9999,7077.821160166667,0.672454833984375,0.5130462646484375,-0.2994842529296875,1,0.91
2020-05-19 15:06:45.056 -0400,1589915204.001171,41.37488245014506,-71.83077267060828,2.367373,0,79.43745659041839,4.0670026593142,7.620489418693839,-9999,7077.871048166667,0.9707489013671875,0.5070648193359375,-0.3639678955078125,1,0.91
2020-05-19 15:06:45.106 -0400,1589915204.001171,41.37488245014506,-71.83077267060828,2.367373,0,79.43745659041839,4.0670026593142,7.620489418693839,-9999,7077.920935166667,1.028457641601562,0.47711181640625,-0.3956756591796875,1,0.91
2020-05-19 15:06:45.155 -0400,1589915204.001171,41.37488245014506,-71.83077267060828,2.367373,0,79.43745659041839,4.0670026593142,7.620489418693839,-9999,7077.970823166667,1.1300048828125,0.4186553955078125,-0.381134033203125,1,0.91
2020-05-19 15:06:45.205 -0400,1589915204.001171,41.37488245014506,-71.83077267060828,2.367373,0,79.43745659041839,4.0670026593142,7.620489418693839,-9999,7078.020715166667,1.13262939453125,0.424591064453125,-0.3253173828125,1,0.91
2020-05-19 15:06:45.266 -0400,1589915204.001171,41.37488245014506,-71.83077267060828,2.367373,0,79.43745659041839,4.0670026593142,7.620489418693839,-9999,7078.070606166667,0.94635009765625,0.550201416015625,-0.3779449462890625,1,0.91
2020-05-19 15:06:45.305 -0400,1589915205.001178,41.37487489711518,-71.83077067752575,2.370028,0,79.43745800222696,4.265583088864395,7.565318001340165,-9999,7078.120497166668,1.085494995117188,0.571258544921875,-0.2658843994140625,1,0.91
2020-05-19 15:06:45.355 -0400,1589915205.001178,41.37487489711518,-71.83077067752575,2.370028,0,79.43745800222696,4.265583088864395,7.565318001340165,-9999,7078.170385166667,1.111663818359375,0.3890228271484375,-0.28564453125,1,0.91
2020-05-19 15:06:45.405 -0400,1589915205.001178,41.37487489711518,-71.83077067752575,2.370028,0,79.43745800222696,4.265583088864395,7.565318001340165,-9999,7078.220274166667,0.890716552734375,0.3073272705078125,-0.2540740966796875,1,0.91
2020-05-19 15:06:45.455 -0400,1589915205.001178,41.37487489711518,-71.83077067752575,2.370028,0,79.43745800222696,4.265583088864395,7.565318001340165,-9999,7078.270164166667,0.737823486328125,0.3668670654296875,-0.2115631103515625,1,0.91
2020-05-19 15:06:45.505 -0400,1589915205.001178,41.37487489711518,-71.83077067752575,2.370028,0,79.43745800222696,4.265583088864395,7.565318001340165,-9999,7078.320052166667,0.73541259765625,0.36663818359375,-0.1866607666015625,1,0.91
2020-05-19 15:06:45.555 -0400,1589915205.001178,41.37487489711518,-71.83077067752575,2.370028,0,79.43745800222696,4.265583088864395,7.565318001340165,-9999,7078.369939166667,0.6983642578125,0.2981414794921875,-0.1519622802734375,1,0.91
2020-05-19 15:06:45.604 -0400,1589915205.001178,41.37487489711518,-71.83077067752575,2.370028,0,79.43745800222696,4.265583088864395,7.565318001340165,-9999,7078.419825166667,0.7418212890625,0.283905029296875,-0.1170501708984375,1,0.91
2020-05-19 15:06:45.654 -0400,1589915205.001178,41.37487489711518,-71.83077067752575,2.370028,0,79.43745800222696,4.265583088864395,7.565318001340165,-9999,7078.469712166667,0.798248291015625,0.298797607421875,-0.099212646484375,1,0.91
2020-05-19 15:06:45.704 -0400,1589915205.001178,41.37487489711518,-71.83077067752575,2.370028,0,79.43745800222696,4.265583088864395,7.565318001340165,-9999,7078.519597375001,0.8268280029296875,0.355987548828125,-0.1132965087890625,1,0.91
2020-05-19 15:06:45.754 -0400,1589915205.001178,41.37487489711518,-71.83077067752575,2.370028,0,79.43745800222696,4.265583088864395,7.565318001340165,-9999,7078.569485375,1.12396240234375,0.466033935546875,-0.1593780517578125,1,0.91
2020-05-19 15:06:45.804 -0400,1589915205.001178,41.37487489711518,-71.83077067752575,2.370028,0,79.43745800222696,4.265583088864395,7.565318001340165,-9999,7078.619374375,0.8690948486328125,0.50445556640625,-0.2973785400390625,1,0.91
2020-05-19 15:06:45.854 -0400,1589915205.001178,41.37487489711518,-71.83077067752575,2.370028,0,79.43745800222696,4.265583088864395,7.565318001340165,-9999,7078.669263375001,1.098480224609375,0.5157623291015625,-0.4324188232421875,1,0.91
2020-05-19 15:06:45.904 -0400,1589915205.001178,41.37487489711518,-71.83077067752575,2.370028,0,79.43745800222696,4.265583088864395,7.565318001340165,-9999,7078.719150375,1.156448364257812,0.483856201171875,-0.4077606201171875,1,0.91
2020-05-19 15:06:45.954 -0400,1589915205.001178,41.37487489711518,-71.83077067752575,2.370028,0,79.43745800222696,4.265583088864395,7.565318001340165,-9999,7078.769040375,0.786224365234375,0.2772674560546875,-0.371856689453125,1,0.91
2020-05-19 15:06:46.004 -0400,1589915205.001178,41.37487489711518,-71.83077067752575,2.370028,0,79.43745800222696,4.265583088864395,7.565318001340165,-9999,7078.818929375,0.5978851318359375,0.3644256591796875,-0.361480712890625,1,0.91
2020-05-19 15:06:46.053 -0400,1589915205.001178,41.37487489711518,-71.83077067752575,2.370028,0,79.43745800222696,4.265583088864395,7.565318001340165,-9999,7078.868820375001,0.57904052734375,0.4947357177734375,-0.356536865234375,1,0.91
2020-05-19 15:06:46.103 -0400,1589915205.001178,41.37487489711518,-71.83077067752575,2.370028,0,79.43745800222696,4.265583088864395,7.565318001340165,-9999,7078.918709375001,0.64215087890625,0.464447021484375,-0.4149169921875,1,0.91
2020-05-19 15:06:46.153 -0400,1589915205.001178,41.37487489711518,-71.83077067752575,2.370028,0,79.43745800222696,4.265583088864395,7.565318001340165,-9999,7078.968598375001,0.7971649169921875,0.4777984619140625,-0.3955078125,1,0.91
2020-05-19 15:06:46.203 -0400,1589915205.001178,41.37487489711518,-71.83077067752575,2.370028,0,79.43745800222696,4.265583088864395,7.565318001340165,-9999,7079.018486375,0.9866943359375,0.49261474609375,-0.376129150390625,1,0.91
2020-05-19 15:06:46.253 -0400,1589915205.001178,41.37487489711518,-71.83077067752575,2.370028,0,79.43745800222696,4.265583088864395,7.565318001340165,-9999,7079.068374375001,1.198074340820312,0.4908447265625,-0.3565521240234375,1,0.91
2020-05-19 15:06:46.303 -0400,1589915205.001178,41.37487489711518,-71.83077067752575,2.370028,0,79.43745800222696,4.265583088864395,7.565318001340165,-9999,7079.118263375,1.209274291992188,0.43182373046875,-0.2662353515625,1,0.91
2020-05-19 15:06:46.353 -0400,1589915205.001178,41.37487489711518,-71.83077067752575,2.370028,0,79.43745800222696,4.265583088864395,7.565318001340165,-9999,7079.168154375,0.9730072021484375,0.451416015625,-0.301666259765625,1,0.91
2020-05-19 15:06:46.403 -0400,1589915206.001184,41.37487632749138,-71.8307678025924,2.684163,0.7824159,69.99416062955079,4.231429115870731,7.460414816159059,-9999,7079.218045375001,0.86053466796875,0.474884033203125,-0.205780029296875,1,0.91
2020-05-19 15:06:46.453 -0400,1589915206.001184,41.37487632749138,-71.8307678025924,2.684163,0.7824159,69.99416062955079,4.231429115870731,7.460414816159059,-9999,7079.267937375001,1.115982055664062,0.4761505126953125,-0.1965179443359375,1,0.91
2020-05-19 15:06:46.503 -0400,1589915206.001184,41.37487632749138,-71.8307678025924,2.684163,0.7824159,69.99416062955079,4.231429115870731,7.460414816159059,-9999,7079.317829375001,1.03546142578125,0.3999176025390625,-0.2079620361328125,1,0.91
2020-05-19 15:06:46.553 -0400,1589915206.001184,41.37487632749138,-71.8307678025924,2.684163,0.7824159,69.99416062955079,4.231429115870731,7.460414816159059,-9999,7079.367724375001,0.8697357177734375,0.3718109130859375,-0.20599365234375,1,0.91
2020-05-19 15:06:46.602 -0400,1589915206.001184,41.37487632749138,-71.8307678025924,2.684163,0.7824159,69.99416062955079,4.231429115870731,7.460414816159059,-9999,7079.417616375001,0.75994873046875,0.3390960693359375,-0.145263671875,1,0.91
2020-05-19 15:06:46.652 -0400,1589915206.001184,41.37487632749138,-71.8307678025924,2.684163,0.7824159,69.99416062955079,4.231429115870731,7.460414816159059,-9999,7079.467506375,0.722991943359375,0.3040313720703125,-0.16412353515625,1,0.91
2020-05-19 15:06:46.702 -0400,1589915206.001184,41.37487632749138,-71.8307678025924,2.684163,0.7824159,69.99416062955079,4.231429115870731,7.460414816159059,-9999,7079.51740125,0.6988067626953125,0.333099365234375,-0.173095703125,1,0.91
2020-05-19 15:06:46.752 -0400,1589915206.001184,41.37487632749138,-71.8307678025924,2.684163,0.7824159,69.99416062955079,4.231429115870731,7.460414816159059,-9999,7079.56729425,0.7191925048828125,0.2847442626953125,-0.1395416259765625,1,0.91
2020-05-19 15:06:46.802 -0400,1589915206.001184,41.37487632749138,-71.8307678025924,2.684163,0.7824159,69.99416062955079,4.231429115870731,7.460414816159059,-9999,7079.617184250001,0.8025360107421875,0.3404693603515625,-0.078521728515625,1,0.91
2020-05-19 15:06:46.852 -0400,1589915206.001184,41.37487632749138,-71.8307678025924,2.684163,0.7824159,69.99416062955079,4.231429115870731,7.460414816159059,-9999,7079.66707425,0.8037567138671875,0.40771484375,-0.126251220703125,1,0.91
2020-05-19 15:06:46.902 -0400,1589915206.001184,41.37487632749138,-71.8307678025924,2.684163,0.7824159,69.99416062955079,4.231429115870731,7.460414816159059,-9999,7079.716963250001,1.076263427734375,0.5359344482421875,-0.1459808349609375,1,0.91
2020-05-19 15:06:46.951 -0400,1589915206.001184,41.37487632749138,-71.8307678025924,2.684163,0.7824159,69.99416062955079,4.231429115870731,7.460414816159059,-9999,7079.76685325,0.9837799072265625,0.445587158203125,-0.240142822265625,1,0.91
2020-05-19 15:06:47.001 -0400,1589915206.001184,41.37487632749138,-71.8307678025924,2.684163,0.7824159,69.99416062955079,4.231429115870731,7.460414816159059,-9999,7079.816741250001,1.106399536132812,0.6358795166015625,-0.48101806640625,1,0.91
2020-05-19 15:06:47.051 -0400,1589915206.001184,41.37487632749138,-71.8307678025924,2.684163,0.7824159,69.99416062955079,4.231429115870731,7.460414816159059,-9999,7079.86663225,0.9662628173828125,0.5193634033203125,-0.461334228515625,1,0.91
2020-05-19 15:06:47.107 -0400,1589915206.001184,41.37487632749138,-71.8307678025924,2.684163,0.7824159,69.99416062955079,4.231429115870731,7.460414816159059,-9999,7079.916522250001,0.71282958984375,0.4439239501953125,-0.4933013916015625,1,0.91
2020-05-19 15:06:47.151 -0400,1589915206.001184,41.37487632749138,-71.8307678025924,2.684163,0.7824159,69.99416062955079,4.231429115870731,7.460414816159059,-9999,7079.966412250001,0.6810302734375,0.4612579345703125,-0.442779541015625,1,0.91
2020-05-19 15:06:47.201 -0400,1589915206.001184,41.37487632749138,-71.8307678025924,2.684163,0.7824159,69.99416062955079,4.231429115870731,7.460414816159059,-9999,7080.01629925,0.761138916015625,0.4188232421875,-0.4058685302734375,1,0.91
2020-05-19 15:06:47.251 -0400,1589915207.001191,41.374869614616,-71.83076551733294,3.502392,0.6064287,76.0132891831496,4.384554494072318,7.296950405748899,-9999,7080.06618425,0.850738525390625,0.405609130859375,-0.3271331787109375,1,0.91
2020-05-19 15:06:47.301 -0400,1589915207.001191,41.374869614616,-71.83076551733294,3.502392,0.6064287,76.0132891831496,4.384554494072318,7.296950405748899,-9999,7080.116072250001,0.87127685546875,0.455780029296875,-0.33404541015625,1,0.91
2020-05-19 15:06:47.351 -0400,1589915207.001191,41.374869614616,-71.83076551733294,3.502392,0.6064287,76.0132891831496,4.384554494072318,7.296950405748899,-9999,7080.165958250001,0.933685302734375,0.4501800537109375,-0.2884521484375,1,0.91
2020-05-19 15:06:47.401 -0400,1589915207.001191,41.374869614616,-71.83076551733294,3.502392,0.6064287,76.0132891831496,4.384554494072318,7.296950405748899,-9999,7080.215845250001,0.9981536865234375,0.4240875244140625,-0.252593994140625,1,0.91
2020-05-19 15:06:47.450 -0400,1589915207.001191,41.374869614616,-71.83076551733294,3.502392,0.6064287,76.0132891831496,4.384554494072318,7.296950405748899,-9999,7080.26573325,1.037750244140625,0.399505615234375,-0.2348175048828125,1,0.91
2020-05-19 15:06:47.500 -0400,1589915207.001191,41.374869614616,-71.83076551733294,3.502392,0.6064287,76.0132891831496,4.384554494072318,7.296950405748899,-9999,7080.31562225,0.8957672119140625,0.441864013671875,-0.19964599609375,1,0.91
2020-05-19 15:06:47.550 -0400,1589915207.001191,41.374869614616,-71.83076551733294,3.502392,0.6064287,76.0132891831496,4.384554494072318,7.296950405748899,-9999,7080.365510250001,0.8459320068359375,0.4296112060546875,-0.2223968505859375,1,0.91
2020-05-19 15:06:47.600 -0400,1589915207.001191,41.374869614616,-71.83076551733294,3.502392,0.6064287,76.0132891831496,4.384554494072318,7.296950405748899,-9999,7080.415397250001,0.8849945068359375,0.329681396484375,-0.119049072265625,1,0.91
2020-05-19 15:06:47.650 -0400,1589915207.001191,41.374869614616,-71.83076551733294,3.502392,0.6064287,76.0132891831496,4.384554494072318,7.296950405748899,-9999,7080.465286250001,0.86614990234375,0.3448333740234375,-0.139984130859375,1,0.91
2020-05-19 15:06:47.700 -0400,1589915207.001191,41.374869614616,-71.83076551733294,3.502392,0.6064287,76.0132891831496,4.384554494072318,7.296950405748899,-9999,7080.515173125001,0.8128662109375,0.369384765625,-0.08795166015625,1,0.91
2020-05-19 15:06:47.750 -0400,1589915207.001191,41.374869614616,-71.83076551733294,3.502392,0.6064287,76.0132891831496,4.384554494072318,7.296950405748899,-9999,7080.565062125001,0.8093414306640625,0.4014892578125,-0.075286865234375,1,0.91
2020-05-19 15:06:47.800 -0400,1589915207.001191,41.374869614616,-71.83076551733294,3.502392,0.6064287,76.0132891831496,4.384554494072318,7.296950405748899,-9999,7080.614950125,0.774749755859375,0.365081787109375,-0.0372161865234375,1,0.91
2020-05-19 15:06:47.850 -0400,1589915207.001191,41.374869614616,-71.83076551733294,3.502392,0.6064287,76.0132891831496,4.384554494072318,7.296950405748899,-9999,7080.664833125001,0.7863311767578125,0.45135498046875,-0.1372528076171875,1,0.91
2020-05-19 15:06:47.899 -0400,1589915207.001191,41.374869614616,-71.83076551733294,3.502392,0.6064287,76.0132891831496,4.384554494072318,7.296950405748899,-9999,7080.714719125001,0.84808349609375,0.5435028076171875,-0.1301116943359375,1,0.91
2020-05-19 15:06:47.949 -0400,1589915207.001191,41.374869614616,-71.83076551733294,3.502392,0.6064287,76.0132891831496,4.384554494072318,7.296950405748899,-9999,7080.764604125,0.9315185546875,0.5416412353515625,-0.12127685546875,1,0.91
2020-05-19 15:06:47.999 -0400,1589915207.001191,41.374869614616,-71.83076551733294,3.502392,0.6064287,76.0132891831496,4.384554494072318,7.296950405748899,-9999,7080.814489125,1.031509399414062,0.6066436767578125,-0.1826934814453125,1,0.91
2020-05-19 15:06:48.049 -0400,1589915207.001191,41.374869614616,-71.83076551733294,3.502392,0.6064287,76.0132891831496,4.384554494072318,7.296950405748899,-9999,7080.864375125,1.007919311523438,0.5622711181640625,-0.1271514892578125,1,0.91
2020-05-19 15:06:48.099 -0400,1589915207.001191,41.374869614616,-71.83076551733294,3.502392,0.6064287,76.0132891831496,4.384554494072318,7.296950405748899,-9999,7080.914260125001,0.9836273193359375,0.5453948974609375,-0.15802001953125,1,0.91
2020-05-19 15:06:48.149 -0400,1589915207.001191,41.374869614616,-71.83076551733294,3.502392,0.6064287,76.0132891831496,4.384554494072318,7.296950405748899,-9999,7080.964148125,0.9849853515625,0.4970855712890625,-0.145111083984375,1,0.91
2020-05-19 15:06:48.199 -0400,1589915207.001191,41.374869614616,-71.83076551733294,3.502392,0.6064287,76.0132891831496,4.384554494072318,7.296950405748899,-9999,7081.014036125001,0.9994354248046875,0.4731597900390625,-0.12872314453125,1,0.91
2020-05-19 15:06:48.251 -0400,1589915207.001191,41.374869614616,-71.83076551733294,3.502392,0.6064287,76.0132891831496,4.384554494072318,7.296950405748899,-9999,7081.063924125,0.9621734619140625,0.409576416015625,-0.14056396484375,1,0.91
2020-05-19 15:06:48.299 -0400,1589915208.001198,41.37486653903165,-71.8307669367567,3.484826,0,87.21082713187891,4.468888869534585,7.429899979820088,-9999,7081.113809125,0.91021728515625,0.404052734375,-0.1387176513671875,1,0.91
2020-05-19 15:06:48.349 -0400,1589915208.001198,41.37486653903165,-71.8307669367567,3.484826,0,87.21082713187891,4.468888869534585,7.429899979820088,-9999,7081.163691125001,0.8926849365234375,0.4189300537109375,-0.1386871337890625,1,0.91
2020-05-19 15:06:48.398 -0400,1589915208.001198,41.37486653903165,-71.8307669367567,3.484826,0,87.21082713187891,4.468888869534585,7.429899979820088,-9999,7081.213575125001,0.8528594970703125,0.415771484375,-0.0844573974609375,1,0.91
2020-05-19 15:06:48.448 -0400,1589915208.001198,41.37486653903165,-71.8307669367567,3.484826,0,87.21082713187891,4.468888869534585,7.429899979820088,-9999,7081.263461125001,0.817718505859375,0.4336395263671875,-0.0879974365234375,1,0.91
2020-05-19 15:06:48.498 -0400,1589915208.001198,41.37486653903165,-71.8307669367567,3.484826,0,87.21082713187891,4.468888869534585,7.429899979820088,-9999,7081.313346125001,0.7766876220703125,0.442169189453125,-0.081390380859375,1,0.91
2020-05-19 15:06:48.548 -0400,1589915208.001198,41.37486653903165,-71.8307669367567,3.484826,0,87.21082713187891,4.468888869534585,7.429899979820088,-9999,7081.363232125001,0.787567138671875,0.49456787109375,-0.054656982421875,1,0.91
2020-05-19 15:06:48.598 -0400,1589915208.001198,41.37486653903165,-71.8307669367567,3.484826,0,87.21082713187891,4.468888869534585,7.429899979820088,-9999,7081.413118125,0.8282012939453125,0.4405975341796875,-0.099365234375,1,0.91
2020-05-19 15:06:48.648 -0400,1589915208.001198,41.37486653903165,-71.8307669367567,3.484826,0,87.21082713187891,4.468888869534585,7.429899979820088,-9999,7081.463004125,0.8915252685546875,0.4462890625,-0.10455322265625,1,0.91
2020-05-19 15:06:48.698 -0400,1589915208.001198,41.37486653903165,-71.8307669367567,3.484826,0,87.21082713187891,4.468888869534585,7.429899979820088,-9999,7081.512894375001,0.8837127685546875,0.502899169921875,-0.2527313232421875,1,0.91
2020-05-19 15:06:48.748 -0400,1589915208.001198,41.37486653903165,-71.8307669367567,3.484826,0,87.21082713187891,4.468888869534585,7.429899979820088,-9999,7081.562780375,0.9525146484375,0.5182647705078125,-0.3613739013671875,1,0.91
2020-05-19 15:06:48.797 -0400,1589915208.001198,41.37486653903165,-71.8307669367567,3.484826,0,87.21082713187891,4.468888869534585,7.429899979820088,-9999,7081.612669375,1.119537353515625,0.4678955078125,-0.46038818359375,1,0.91
2020-05-19 15:06:48.847 -0400,1589915208.001198,41.37486653903165,-71.8307669367567,3.484826,0,87.21082713187891,4.468888869534585,7.429899979820088,-9999,7081.662554375001,0.9925384521484375,0.2943267822265625,-0.4999847412109375,1,0.91
2020-05-19 15:06:48.897 -0400,1589915208.001198,41.37486653903165,-71.8307669367567,3.484826,0,87.21082713187891,4.468888869534585,7.429899979820088,-9999,7081.712440375,0.79913330078125,0.4146270751953125,-0.5419464111328125,1,0.91
2020-05-19 15:06:48.947 -0400,1589915208.001198,41.37486653903165,-71.8307669367567,3.484826,0,87.21082713187891,4.468888869534585,7.429899979820088,-9999,7081.762324375,0.750457763671875,0.3054351806640625,-0.5328521728515625,1,0.91
2020-05-19 15:06:48.997 -0400,1589915208.001198,41.37486653903165,-71.8307669367567,3.484826,0,87.21082713187891,4.468888869534585,7.429899979820088,-9999,7081.812211375001,0.7320709228515625,0.2704620361328125,-0.3946075439453125,1,0.91
2020-05-19 15:06:49.047 -0400,1589915208.001198,41.37486653903165,-71.8307669367567,3.484826,0,87.21082713187891,4.468888869534585,7.429899979820088,-9999,7081.862095375001,0.748016357421875,0.293670654296875,-0.346405029296875,1,0.91
2020-05-19 15:06:49.097 -0400,1589915208.001198,41.37486653903165,-71.8307669367567,3.484826,0,87.21082713187891,4.468888869534585,7.429899979820088,-9999,7081.911982375001,0.8084869384765625,0.3298492431640625,-0.2716522216796875,1,0.91
2020-05-19 15:06:49.147 -0400,1589915208.001198,41.37486653903165,-71.8307669367567,3.484826,0,87.21082713187891,4.468888869534585,7.429899979820088,-9999,7081.961869375001,0.87371826171875,0.3343658447265625,-0.361083984375,1,0.91
2020-05-19 15:06:49.196 -0400,1589915208.001198,41.37486653903165,-71.8307669367567,3.484826,0,87.21082713187891,4.468888869534585,7.429899979820088,-9999,7082.011754375,0.8274383544921875,0.226959228515625,-0.0341949462890625,1,0.91
2020-05-19 15:06:49.246 -0400,1589915208.001198,41.37486653903165,-71.8307669367567,3.484826,0,87.21082713187891,4.468888869534585,7.429899979820088,-9999,7082.061642375001,0.920654296875,0.6614837646484375,-0.1943511962890625,1,0.91
2020-05-19 15:06:49.296 -0400,1589915208.001198,41.37486653903165,-71.8307669367567,3.484826,0,87.21082713187891,4.468888869534585,7.429899979820088,-9999,7082.111530375,0.85107421875,0.362548828125,-0.0345001220703125,1,0.91
2020-05-19 15:06:49.346 -0400,1589915209.001205,41.37486419821752,-71.83076806816852,2.915066,0,87.21082549775724,4.510045287646415,7.534568777124131,-9999,7082.161413375001,0.964935302734375,0.556396484375,-0.011932373046875,1,0.91
2020-05-19 15:06:49.397 -0400,1589915209.001205,41.37486419821752,-71.83076806816852,2.915066,0,87.21082549775724,4.510045287646415,7.534568777124131,-9999,7082.211300375,1.02532958984375,0.724456787109375,-0.185699462890625,1,0.91
2020-05-19 15:06:49.446 -0400,1589915209.001205,41.37486419821752,-71.83076806816852,2.915066,0,87.21082549775724,4.510045287646415,7.534568777124131,-9999,7082.261188375001,1.188674926757812,0.7817840576171875,-0.1591339111328125,1,0.91
2020-05-19 15:06:49.496 -0400,1589915209.001205,41.37486419821752,-71.83076806816852,2.915066,0,87.21082549775724,4.510045287646415,7.534568777124131,-9999,7082.311076375,1.171875,0.5301361083984375,-0.1567535400390625,1,0.91
2020-05-19 15:06:49.546 -0400,1589915209.001205,41.37486419821752,-71.83076806816852,2.915066,0,87.21082549775724,4.510045287646415,7.534568777124131,-9999,7082.360965375,1.068038940429688,0.446990966796875,-0.25006103515625,1,0.91
2020-05-19 15:06:49.596 -0400,1589915209.001205,41.37486419821752,-71.83076806816852,2.915066,0,87.21082549775724,4.510045287646415,7.534568777124131,-9999,7082.410857375,0.9579010009765625,0.439300537109375,-0.2433013916015625,1,0.91
2020-05-19 15:06:49.645 -0400,1589915209.001205,41.37486419821752,-71.83076806816852,2.915066,0,87.21082549775724,4.510045287646415,7.534568777124131,-9999,7082.460745375,0.8439178466796875,0.371826171875,-0.2047119140625,1,0.91
2020-05-19 15:06:49.695 -0400,1589915209.001205,41.37486419821752,-71.83076806816852,2.915066,0,87.21082549775724,4.510045287646415,7.534568777124131,-9999,7082.510633875,0.8144683837890625,0.3314361572265625,-0.218841552734375,1,0.91
2020-05-19 15:06:49.745 -0400,1589915209.001205,41.37486419821752,-71.83076806816852,2.915066,0,87.21082549775724,4.510045287646415,7.534568777124131,-9999,7082.560524875001,0.8963775634765625,0.32086181640625,-0.233551025390625,1,0.91
2020-05-19 15:06:49.795 -0400,1589915209.001205,41.37486419821752,-71.83076806816852,2.915066,0,87.21082549775724,4.510045287646415,7.534568777124131,-9999,7082.610413875001,0.94366455078125,0.2539215087890625,-0.2023468017578125,1,0.91
2020-05-19 15:06:49.845 -0400,1589915209.001205,41.37486419821752,-71.83076806816852,2.915066,0,87.21082549775724,4.510045287646415,7.534568777124131,-9999,7082.660300875001,0.912841796875,0.2230987548828125,-0.1279754638671875,1,0.91
2020-05-19 15:06:49.895 -0400,1589915209.001205,41.37486419821752,-71.83076806816852,2.915066,0,87.21082549775724,4.510045287646415,7.534568777124131,-9999,7082.710187875001,0.8686370849609375,0.2914886474609375,-0.186248779296875,1,0.91
2020-05-19 15:06:49.945 -0400,1589915209.001205,41.37486419821752,-71.83076806816852,2.915066,0,87.21082549775724,4.510045287646415,7.534568777124131,-9999,7082.760074875,1.022430419921875,0.3881072998046875,-0.2562103271484375,1,0.91
2020-05-19 15:06:49.995 -0400,1589915209.001205,41.37486419821752,-71.83076806816852,2.915066,0,87.21082549775724,4.510045287646415,7.534568777124131,-9999,7082.809961875,0.8811492919921875,0.3526153564453125,-0.267974853515625,1,0.91
2020-05-19 15:06:50.045 -0400,1589915209.001205,41.37486419821752,-71.83076806816852,2.915066,0,87.21082549775724,4.510045287646415,7.534568777124131,-9999,7082.859850875,1.164047241210938,0.4256439208984375,-0.3619232177734375,1,0.91
2020-05-19 15:06:50.094 -0400,1589915209.001205,41.37486419821752,-71.83076806816852,2.915066,0,87.21082549775724,4.510045287646415,7.534568777124131,-9999,7082.909739875,1.194320678710938,0.4832916259765625,-0.3504180908203125,1,0.91
2020-05-19 15:06:50.144 -0400,1589915209.001205,41.37486419821752,-71.83076806816852,2.915066,0,87.21082549775724,4.510045287646415,7.534568777124131,-9999,7082.959627875,0.8488922119140625,0.35955810546875,-0.37005615234375,1,0.91
2020-05-19 15:06:50.194 -0400,1589915209.001205,41.37486419821752,-71.83076806816852,2.915066,0,87.21082549775724,4.510045287646415,7.534568777124131,-9999,7083.009516875,0.6525115966796875,0.4078216552734375,-0.2923583984375,1,0.91
2020-05-19 15:06:50.244 -0400,1589915209.001205,41.37486419821752,-71.83076806816852,2.915066,0,87.21082549775724,4.510045287646415,7.534568777124131,-9999,7083.059403875,0.63232421875,0.4907073974609375,-0.2397003173828125,1,0.91
2020-05-19 15:06:50.304 -0400,1589915209.001205,41.37486419821752,-71.83076806816852,2.915066,0,87.21082549775724,4.510045287646415,7.534568777124131,-9999,7083.109291875,0.656646728515625,0.5459442138671875,-0.18487548828125,1,0.91
2020-05-19 15:06:50.344 -0400,1589915210.001212,41.37486171157123,-71.83077451397807,5.690914,0.721768,-1,4.669931218940383,7.805188170203349,-9999,7083.159178875,0.811248779296875,0.591949462890625,-0.1320037841796875,1,0.91
2020-05-19 15:06:50.394 -0400,1589915210.001212,41.37486171157123,-71.83077451397807,5.690914,0.721768,-1,4.669931218940383,7.805188170203349,-9999,7083.209063875001,0.9950103759765625,0.6773223876953125,-0.14453125,1,0.91
2020-05-19 15:06:50.444 -0400,1589915210.001212,41.37486171157123,-71.83077451397807,5.690914,0.721768,-1,4.669931218940383,7.805188170203349,-9999,7083.258949875,1.071990966796875,0.7567291259765625,-0.2375335693359375,1,0.91
2020-05-19 15:06:50.494 -0400,1589915210.001212,41.37486171157123,-71.83077451397807,5.690914,0.721768,-1,4.669931218940383,7.805188170203349,-9999,7083.308835875,1.010787963867188,0.7084808349609375,-0.3362579345703125,1,0.91
2020-05-19 15:06:50.543 -0400,1589915210.001212,41.37486171157123,-71.83077451397807,5.690914,0.721768,-1,4.669931218940383,7.805188170203349,-9999,7083.358722875,0.907073974609375,0.6891632080078125,-0.3775177001953125,1,0.91
2020-05-19 15:06:50.593 -0400,1589915210.001212,41.37486171157123,-71.83077451397807,5.690914,0.721768,-1,4.669931218940383,7.805188170203349,-9999,7083.408613875001,1.166778564453125,0.7083892822265625,-0.259796142578125,1,0.91
2020-05-19 15:06:50.643 -0400,1589915210.001212,41.37486171157123,-71.83077451397807,5.690914,0.721768,-1,4.669931218940383,7.805188170203349,-9999,7083.458503875,1.140213012695312,0.4926300048828125,-0.3858642578125,1,0.91
2020-05-19 15:06:50.693 -0400,1589915210.001212,41.37486171157123,-71.83077451397807,5.690914,0.721768,-1,4.669931218940383,7.805188170203349,-9999,7083.508393541667,0.862518310546875,0.4711761474609375,-0.3984527587890625,1,0.91
2020-05-19 15:06:50.743 -0400,1589915210.001212,41.37486171157123,-71.83077451397807,5.690914,0.721768,-1,4.669931218940383,7.805188170203349,-9999,7083.558284541667,0.6868438720703125,0.3255157470703125,-0.33184814453125,1,0.91
2020-05-19 15:06:50.793 -0400,1589915210.001212,41.37486171157123,-71.83077451397807,5.690914,0.721768,-1,4.669931218940383,7.805188170203349,-9999,7083.608176541667,0.589935302734375,0.30999755859375,-0.244659423828125,1,0.91
2020-05-19 15:06:50.843 -0400,1589915210.001212,41.37486171157123,-71.83077451397807,5.690914,0.721768,-1,4.669931218940383,7.805188170203349,-9999,7083.658065541667,0.6348419189453125,0.3519439697265625,-0.18048095703125,1,0.91
2020-05-19 15:06:50.893 -0400,1589915210.001212,41.37486171157123,-71.83077451397807,5.690914,0.721768,-1,4.669931218940383,7.805188170203349,-9999,7083.707958541667,0.902984619140625,0.351531982421875,-0.13555908203125,1,0.91
2020-05-19 15:06:50.943 -0400,1589915210.001212,41.37486171157123,-71.83077451397807,5.690914,0.721768,-1,4.669931218940383,7.805188170203349,-9999,7083.757848541667,0.9984893798828125,0.31854248046875,-0.0866546630859375,1,0.91
2020-05-19 15:06:50.992 -0400,1589915210.001212,41.37486171157123,-71.83077451397807,5.690914,0.721768,-1,4.669931218940383,7.805188170203349,-9999,7083.807737541667,1.117782592773438,0.4013214111328125,-0.0672454833984375,1,0.91
2020-05-19 15:06:51.042 -0400,1589915210.001212,41.37486171157123,-71.83077451397807,5.690914,0.721768,-1,4.669931218940383,7.805188170203349,-9999,7083.857629541667,1.055068969726562,0.540985107421875,-0.088836669921875,1,0.91
2020-05-19 15:06:51.092 -0400,1589915210.001212,41.37486171157123,-71.83077451397807,5.690914,0.721768,-1,4.669931218940383,7.805188170203349,-9999,7083.907522541667,0.972900390625,0.5646820068359375,-0.2816925048828125,1,0.91
2020-05-19 15:06:51.142 -0400,1589915210.001212,41.37486171157123,-71.83077451397807,5.690914,0.721768,-1,4.669931218940383,7.805188170203349,-9999,7083.957414541667,1.148712158203125,0.550537109375,-0.295501708984375,1,0.91
2020-05-19 15:06:51.192 -0400,1589915210.001212,41.37486171157123,-71.83077451397807,5.690914,0.721768,-1,4.669931218940383,7.805188170203349,-9999,7084.007307541667,0.8271942138671875,0.2935638427734375,-0.272369384765625,1,0.91
2020-05-19 15:06:51.242 -0400,1589915211.001218,41.37485790526612,-71.83077212425606,3.655865,0,-1,4.788495705086537,8.266370487632475,-9999,7084.057198541667,0.5451507568359375,0.319183349609375,-0.37359619140625,1,0.91
2020-05-19 15:06:51.292 -0400,1589915211.001218,41.37485790526612,-71.83077212425606,3.655865,0,-1,4.788495705086537,8.266370487632475,-9999,7084.107088541668,0.4586334228515625,0.3851318359375,-0.3233795166015625,1,0.91
2020-05-19 15:06:51.342 -0400,1589915211.001218,41.37485790526612,-71.83077212425606,3.655865,0,-1,4.788495705086537,8.266370487632475,-9999,7084.156977541667,0.5859222412109375,0.4539642333984375,-0.3907470703125,1,0.91
2020-05-19 15:06:51.392 -0400,1589915211.001218,41.37485790526612,-71.83077212425606,3.655865,0,-1,4.788495705086537,8.266370487632475,-9999,7084.206870541667,0.892791748046875,0.459014892578125,-0.4744720458984375,1,0.91
2020-05-19 15:06:51.442 -0400,1589915211.001218,41.37485790526612,-71.83077212425606,3.655865,0,-1,4.788495705086537,8.266370487632475,-9999,7084.256761541667,1.07965087890625,0.49151611328125,-0.5158538818359375,1,0.91
2020-05-19 15:06:51.491 -0400,1589915211.001218,41.37485790526612,-71.83077212425606,3.655865,0,-1,4.788495705086537,8.266370487632475,-9999,7084.306653541667,1.152877807617188,0.460052490234375,-0.5006103515625,1,0.91
2020-05-19 15:06:51.541 -0400,1589915211.001218,41.37485790526612,-71.83077212425606,3.655865,0,-1,4.788495705086537,8.266370487632475,-9999,7084.356545541667,1.206497192382812,0.410980224609375,-0.3652496337890625,1,0.91
2020-05-19 15:06:51.591 -0400,1589915211.001218,41.37485790526612,-71.83077212425606,3.655865,0,-1,4.788495705086537,8.266370487632475,-9999,7084.406435541667,1.10186767578125,0.5618896484375,-0.3787841796875,1,0.91
2020-05-19 15:06:51.641 -0400,1589915211.001218,41.37485790526612,-71.83077212425606,3.655865,0,-1,4.788495705086537,8.266370487632475,-9999,7084.456324541668,1.212799072265625,0.6466217041015625,-0.2763671875,1,0.91
2020-05-19 15:06:51.691 -0400,1589915211.001218,41.37485790526612,-71.83077212425606,3.655865,0,-1,4.788495705086537,8.266370487632475,-9999,7084.506214375,1.114578247070312,0.4369354248046875,-0.2239837646484375,1,0.91
2020-05-19 15:06:51.741 -0400,1589915211.001218,41.37485790526612,-71.83077212425606,3.655865,0,-1,4.788495705086537,8.266370487632475,-9999,7084.556101375,0.8158111572265625,0.33203125,-0.2292327880859375,1,0.91
2020-05-19 15:06:51.791 -0400,1589915211.001218,41.37485790526612,-71.83077212425606,3.655865,0,-1,4.788495705086537,8.266370487632475,-9999,7084.605989375001,0.690826416015625,0.398193359375,-0.1875762939453125,1,0.91
2020-05-19 15:06:51.841 -0400,1589915211.001218,41.37485790526612,-71.83077212425606,3.655865,0,-1,4.788495705086537,8.266370487632475,-9999,7084.655877375,0.7111968994140625,0.3726654052734375,-0.127899169921875,1,0.91
2020-05-19 15:06:51.891 -0400,1589915211.001218,41.37485790526612,-71.83077212425606,3.655865,0,-1,4.788495705086537,8.266370487632475,-9999,7084.705767375001,0.7054901123046875,0.2557525634765625,-0.0665283203125,1,0.91
2020-05-19 15:06:51.940 -0400,1589915211.001218,41.37485790526612,-71.83077212425606,3.655865,0,-1,4.788495705086537,8.266370487632475,-9999,7084.755655375,0.8253936767578125,0.252685546875,-0.044830322265625,1,0.91
2020-05-19 15:06:51.991 -0400,1589915211.001218,41.37485790526612,-71.83077212425606,3.655865,0,-1,4.788495705086537,8.266370487632475,-9999,7084.805542375,0.96240234375,0.316162109375,-0.053131103515625,1,0.91
2020-05-19 15:06:52.040 -0400,1589915211.001218,41.37485790526612,-71.83077212425606,3.655865,0,-1,4.788495705086537,8.266370487632475,-9999,7084.855429375,0.793060302734375,0.3747100830078125,-0.14654541015625,1,0.91
2020-05-19 15:06:52.090 -0400,1589915211.001218,41.37485790526612,-71.83077212425606,3.655865,0,-1,4.788495705086537,8.266370487632475,-9999,7084.905319375001,0.9838409423828125,0.44683837890625,-0.253265380859375,1,0.91
2020-05-19 15:06:52.140 -0400,1589915211.001218,41.37485790526612,-71.83077212425606,3.655865,0,-1,4.788495705086537,8.266370487632475,-9999,7084.955207375,0.9508056640625,0.4142303466796875,-0.3367156982421875,1,0.91
2020-05-19 15:06:52.190 -0400,1589915211.001218,41.37485790526612,-71.83077212425606,3.655865,0,-1,4.788495705086537,8.266370487632475,-9999,7085.005092375,1.23651123046875,0.4647674560546875,-0.562164306640625,1,0.91
2020-05-19 15:06:52.240 -0400,1589915211.001218,41.37485790526612,-71.83077212425606,3.655865,0,-1,4.788495705086537,8.266370487632475,-9999,7085.054979375001,0.9759368896484375,0.350341796875,-0.434326171875,1,0.91
2020-05-19 15:06:52.290 -0400,1589915211.001218,41.37485790526612,-71.83077212425606,3.655865,0,-1,4.788495705086537,8.266370487632475,-9999,7085.104869375001,0.684234619140625,0.219573974609375,-0.361602783203125,1,0.91
2020-05-19 15:06:52.340 -0400,1589915212.001225,41.37484783804021,-71.83076965447802,-0.6855898,1.332782,-1,4.647280222104597,8.687270151881872,-9999,7085.154762375,0.637725830078125,0.420379638671875,-0.350189208984375,1,0.91
2020-05-19 15:06:52.389 -0400,1589915212.001225,41.37484783804021,-71.83076965447802,-0.6855898,1.332782,-1,4.647280222104597,8.687270151881872,-9999,7085.204653375001,0.6588592529296875,0.6147003173828125,-0.372802734375,1,0.91
2020-05-19 15:06:52.439 -0400,1589915212.001225,41.37484783804021,-71.83076965447802,-0.6855898,1.332782,-1,4.647280222104597,8.687270151881872,-9999,7085.254544375,0.7902069091796875,0.644439697265625,-0.43212890625,1,0.91
2020-05-19 15:06:52.489 -0400,1589915212.001225,41.37484783804021,-71.83076965447802,-0.6855898,1.332782,-1,4.647280222104597,8.687270151881872,-9999,7085.304433375,0.9889068603515625,0.6648101806640625,-0.4598846435546875,1,0.91
2020-05-19 15:06:52.539 -0400,1589915212.001225,41.37484783804021,-71.83076965447802,-0.6855898,1.332782,-1,4.647280222104597,8.687270151881872,-9999,7085.354322375,1.197998046875,0.7178802490234375,-0.40802001953125,1,0.91
2020-05-19 15:06:52.589 -0400,1589915212.001225,41.37484783804021,-71.83076965447802,-0.6855898,1.332782,-1,4.647280222104597,8.687270151881872,-9999,7085.404214375,1.361480712890625,0.598846435546875,-0.3816680908203125,1,0.91
2020-05-19 15:06:52.639 -0400,1589915212.001225,41.37484783804021,-71.83076965447802,-0.6855898,1.332782,-1,4.647280222104597,8.687270151881872,-9999,7085.454103375,0.9866180419921875,0.50738525390625,-0.387725830078125,1,0.91
2020-05-19 15:06:52.689 -0400,1589915212.001225,41.37484783804021,-71.83076965447802,-0.6855898,1.332782,-1,4.647280222104597,8.687270151881872,-9999,7085.503993375,1.224945068359375,0.607635498046875,-0.296234130859375,1,0.91
2020-05-19 15:06:52.739 -0400,1589915212.001225,41.37484783804021,-71.83076965447802,-0.6855898,1.332782,-1,4.647280222104597,8.687270151881872,-9999,7085.55387975,1.216293334960938,0.46441650390625,-0.245361328125,1,0.91
2020-05-19 15:06:52.789 -0400,1589915212.001225,41.37484783804021,-71.83076965447802,-0.6855898,1.332782,-1,4.647280222104597,8.687270151881872,-9999,7085.60376875,0.935943603515625,0.313720703125,-0.2568206787109375,1,0.91
2020-05-19 15:06:52.838 -0400,1589915212.001225,41.37484783804021,-71.83076965447802,-0.6855898,1.332782,-1,4.647280222104597,8.687270151881872,-9999,7085.65365875,0.7760467529296875,0.3349456787109375,-0.195892333984375,1,0.91
2020-05-19 15:06:52.888 -0400,1589915212.001225,41.37484783804021,-71.83076965447802,-0.6855898,1.332782,-1,4.647280222104597,8.687270151881872,-9999,7085.70354775,0.7369232177734375,0.3302459716796875,-0.15264892578125,1,0.91
2020-05-19 15:06:52.938 -0400,1589915212.001225,41.37484783804021,-71.83076965447802,-0.6855898,1.332782,-1,4.647280222104597,8.687270151881872,-9999,7085.753435750001,0.69561767578125,0.2581787109375,-0.1074676513671875,1,0.91
2020-05-19 15:06:52.988 -0400,1589915212.001225,41.37484783804021,-71.83076965447802,-0.6855898,1.332782,-1,4.647280222104597,8.687270151881872,-9999,7085.803327750001,0.692596435546875,0.2203521728515625,-0.0705718994140625,1,0.91
2020-05-19 15:06:53.038 -0400,1589915212.001225,41.37484783804021,-71.83076965447802,-0.6855898,1.332782,-1,4.647280222104597,8.687270151881872,-9999,7085.853219750001,0.7913970947265625,0.252716064453125,-0.0419769287109375,1,0.91
2020-05-19 15:06:53.088 -0400,1589915212.001225,41.37484783804021,-71.83076965447802,-0.6855898,1.332782,-1,4.647280222104597,8.687270151881872,-9999,7085.903111750001,0.7873992919921875,0.3237762451171875,-0.0545501708984375,1,0.91
2020-05-19 15:06:53.138 -0400,1589915212.001225,41.37484783804021,-71.83076965447802,-0.6855898,1.332782,-1,4.647280222104597,8.687270151881872,-9999,7085.95300675,1.071136474609375,0.4503021240234375,-0.0921478271484375,1,0.91
2020-05-19 15:06:53.188 -0400,1589915212.001225,41.37484783804021,-71.83076965447802,-0.6855898,1.332782,-1,4.647280222104597,8.687270151881872,-9999,7086.00290175,1.02178955078125,0.5183868408203125,-0.31103515625,1,0.91
2020-05-19 15:06:53.243 -0400,1589915212.001225,41.37484783804021,-71.83076965447802,-0.6855898,1.332782,-1,4.647280222104597,8.687270151881872,-9999,7086.052795750001,1.331268310546875,0.518829345703125,-0.4461212158203125,1,0.91
2020-05-19 15:06:53.288 -0400,1589915212.999938,41.37484517624912,-71.83076461393735,6.283208,0.8907136,183.2900767005432,4.554012723867698,8.912781040984328,-9999,7086.102687750001,1.082717895507812,0.4672698974609375,-0.4721832275390625,1,0.91
2020-05-19 15:06:53.337 -0400,1589915212.999938,41.37484517624912,-71.83076461393735,6.283208,0.8907136,183.2900767005432,4.554012723867698,8.912781040984328,-9999,7086.15257875,0.6811370849609375,0.298980712890625,-0.4757537841796875,1,0.91
2020-05-19 15:06:53.387 -0400,1589915212.999938,41.37484517624912,-71.83076461393735,6.283208,0.8907136,183.2900767005432,4.554012723867698,8.912781040984328,-9999,7086.20246775,0.629974365234375,0.285491943359375,-0.397674560546875,1,0.91
2020-05-19 15:06:53.437 -0400,1589915212.999938,41.37484517624912,-71.83076461393735,6.283208,0.8907136,183.2900767005432,4.554012723867698,8.912781040984328,-9999,7086.25235675,0.7066650390625,0.4130706787109375,-0.35028076171875,1,0.91
2020-05-19 15:06:53.487 -0400,1589915212.999938,41.37484517624912,-71.83076461393735,6.283208,0.8907136,183.2900767005432,4.554012723867698,8.912781040984328,-9999,7086.30224275,0.8692779541015625,0.51348876953125,-0.4221954345703125,1,0.91
2020-05-19 15:06:53.537 -0400,1589915212.999938,41.37484517624912,-71.83076461393735,6.283208,0.8907136,183.2900767005432,4.554012723867698,8.912781040984328,-9999,7086.35212975,0.94818115234375,0.5939483642578125,-0.467041015625,1,0.91
2020-05-19 15:06:53.587 -0400,1589915212.999938,41.37484517624912,-71.83076461393735,6.283208,0.8907136,183.2900767005432,4.554012723867698,8.912781040984328,-9999,7086.402015750001,1.059921264648438,0.6415863037109375,-0.4548797607421875,1,0.91
2020-05-19 15:06:53.637 -0400,1589915212.999938,41.37484517624912,-71.83076461393735,6.283208,0.8907136,183.2900767005432,4.554012723867698,8.912781040984328,-9999,7086.45190675,1.32415771484375,0.631378173828125,-0.4089813232421875,1,0.91
2020-05-19 15:06:53.687 -0400,1589915212.999938,41.37484517624912,-71.83076461393735,6.283208,0.8907136,183.2900767005432,4.554012723867698,8.912781040984328,-9999,7086.50179875,1.078964233398438,0.530120849609375,-0.3955535888671875,1,0.91
2020-05-19 15:06:53.736 -0400,1589915212.999938,41.37484517624912,-71.83076461393735,6.283208,0.8907136,183.2900767005432,4.554012723867698,8.912781040984328,-9999,7086.551690125,1.124664306640625,0.4787139892578125,-0.3134918212890625,1,0.91
2020-05-19 15:06:53.786 -0400,1589915212.999938,41.37484517624912,-71.83076461393735,6.283208,0.8907136,183.2900767005432,4.554012723867698,8.912781040984328,-9999,7086.601582125,1.210891723632812,0.440521240234375,-0.29742431640625,1,0.91
2020-05-19 15:06:53.836 -0400,1589915212.999938,41.37484517624912,-71.83076461393735,6.283208,0.8907136,183.2900767005432,4.554012723867698,8.912781040984328,-9999,7086.651470125001,0.9051513671875,0.351287841796875,-0.2495574951171875,1,0.91
2020-05-19 15:06:53.886 -0400,1589915212.999938,41.37484517624912,-71.83076461393735,6.283208,0.8907136,183.2900767005432,4.554012723867698,8.912781040984328,-9999,7086.701357125001,0.6945953369140625,0.355010986328125,-0.2572021484375,1,0.91
2020-05-19 15:06:53.936 -0400,1589915212.999938,41.37484517624912,-71.83076461393735,6.283208,0.8907136,183.2900767005432,4.554012723867698,8.912781040984328,-9999,7086.751243125001,0.7068634033203125,0.360748291015625,-0.196197509765625,1,0.91
2020-05-19 15:06:53.986 -0400,1589915212.999938,41.37484517624912,-71.83076461393735,6.283208,0.8907136,183.2900767005432,4.554012723867698,8.912781040984328,-9999,7086.801130125001,0.740234375,0.2813720703125,-0.145263671875,1,0.91
