loggingTime(txt),accelerometerTimestamp_sinceReboot(s),accelerometerAccelerationX(G),accelerometerAccelerationY(G),accelerometerAccelerationZ(G),batteryState,batteryLevel
2020-05-16 12:54:49.825 -0400,11798.901071,0.105499267578125,0.03851318359375,-0.8886260986328125,1,0.94
2020-05-16 12:54:49.890 -0400,11798.971045,0.001708984375,0.0169677734375,-0.783203125,1,0.94
2020-05-16 12:54:49.960 -0400,11799.041018,-0.052154541015625,0.0686798095703125,-1.034515380859375,1,0.94
2020-05-16 12:54:50.030 -0400,11799.110991,0.1852569580078125,0.35833740234375,-1.57037353515625,1,0.94
2020-05-16 12:54:50.100 -0400,11799.180965,0.7240447998046875,0.5420379638671875,-1.473968505859375,1,0.94
2020-05-16 12:54:50.171 -0400,11799.250938875,0.6309967041015625,0.457672119140625,-0.7723236083984375,1,0.94
2020-05-16 12:54:50.240 -0400,11799.320912875,0.7237091064453125,0.4323272705078125,-0.6507720947265625,1,0.94
2020-05-16 12:54:50.321 -0400,11799.390885875,0.5988922119140625,0.30535888671875,-0.6154327392578125,1,0.94
2020-05-16 12:54:50.380 -0400,11799.460858875,0.522796630859375,0.3220062255859375,-0.4790191650390625,1,0.94
2020-05-16 12:54:50.450 -0400,11799.530832875,0.6822509765625,0.0864410400390625,-0.332550048828125,1,0.94
2020-05-16 12:54:50.520 -0400,11799.600805875,0.809478759765625,0.3256683349609375,-0.5271148681640625,1,0.94
2020-05-16 12:54:50.590 -0400,11799.670779875,0.718353271484375,0.293212890625,-0.522705078125,1,0.94
2020-05-16 12:54:50.660 -0400,11799.740752875,0.5216064453125,0.5319976806640625,-0.54791259765625,1,0.94
2020-05-16 12:54:50.730 -0400,11799.810725875,0.682708740234375,0.64031982421875,-0.4273834228515625,1,0.94
2020-05-16 12:54:50.808 -0400,11799.880699875,0.766876220703125,0.87530517578125,-0.4024658203125,1,0.94
2020-05-16 12:54:50.871 -0400,11799.950672875,0.8243255615234375,0.8102264404296875,-0.2187347412109375,1,0.94
2020-05-16 12:54:50.955 -0400,11800.035640875,1.096725463867188,0.7564849853515625,-0.278167724609375,1,0.94
2020-05-16 12:54:51.029 -0400,11800.100615875,0.865325927734375,0.537139892578125,-0.2025299072265625,1,0.94
2020-05-16 12:54:51.085 -0400,11800.165590875,0.65106201171875,0.44219970703125,-0.2021331787109375,1,0.94
2020-05-16 12:54:51.150 -0400,11800.230566875,0.5040435791015625,0.386260986328125,-0.1928863525390625,1,0.94
2020-05-16 12:54:51.215 -0400,11800.295541875,0.5363922119140625,0.3216552734375,-0.1313629150390625,1,0.94
2020-05-16 12:54:51.280 -0400,11800.360516875,1.147628784179688,0.395355224609375,-0.1236114501953125,1,0.94
2020-05-16 12:54:51.345 -0400,11800.425492875,1.291595458984375,0.747528076171875,-0.7428741455078125,1,0.94
2020-05-16 12:54:51.410 -0400,11800.490467875,1.32318115234375,0.3551788330078125,-0.2158050537109375,1,0.94
2020-05-16 12:54:51.475 -0400,11800.555442875,1.017044067382812,-0.1543731689453125,-0.1506805419921875,1,0.94
2020-05-16 12:54:51.540 -0400,11800.620417875,0.853973388671875,0.325439453125,-0.261932373046875,1,0.94
2020-05-16 12:54:51.604 -0400,11800.685393875,0.6671905517578125,0.3819427490234375,-0.2553863525390625,1,0.94
2020-05-16 12:54:51.670 -0400,11800.750368875,0.637603759765625,0.2936553955078125,-0.131134033203125,1,0.94
2020-05-16 12:54:51.734 -0400,11800.815343875,0.7608642578125,0.313262939453125,-0.1888427734375,1,0.94
2020-05-16 12:54:51.800 -0400,11800.880319875,0.789398193359375,0.2603302001953125,-0.196441650390625,1,0.94
2020-05-16 12:54:51.865 -0400,11800.945294875,0.809356689453125,0.2541656494140625,-0.2004241943359375,1,0.94
2020-05-16 12:54:51.929 -0400,11801.010269875,0.891082763671875,0.3155364990234375,-0.224090576171875,1,0.94
2020-05-16 12:54:51.994 -0400,11801.075245875,0.9149627685546875,0.319091796875,-0.27166748046875,1,0.94
2020-05-16 12:54:52.060 -0400,11801.140220875,0.9292449951171875,0.4455718994140625,-0.3017578125,1,0.94
2020-05-16 12:54:52.124 -0400,11801.20519629167,0.8112030029296875,0.155364990234375,-0.21826171875,1,0.94
2020-05-16 12:54:52.190 -0400,11801.27017129167,0.5943145751953125,0.243682861328125,-0.22662353515625,1,0.94
2020-05-16 12:54:52.254 -0400,11801.33514729167,0.4682159423828125,0.4737396240234375,-0.2383880615234375,1,0.94
2020-05-16 12:54:52.319 -0400,11801.40012229167,1.437286376953125,0.912872314453125,-0.41253662109375,1,0.94
2020-05-16 12:54:52.384 -0400,11801.46509729167,1.308456420898438,0.908294677734375,-0.3011322021484375,1,0.94
2020-05-16 12:54:52.449 -0400,11801.53007329167,1.27984619140625,0.76043701171875,-0.5897369384765625,1,0.94
2020-05-16 12:54:52.514 -0400,11801.59504829167,0.9102020263671875,0.5706329345703125,-0.4077301025390625,1,0.94
2020-05-16 12:54:52.579 -0400,11801.66002329167,0.71148681640625,0.320587158203125,-0.2194366455078125,1,0.94
2020-05-16 12:54:52.644 -0400,11801.72499929167,0.5929718017578125,0.2323760986328125,-0.244720458984375,1,0.94
2020-05-16 12:54:52.709 -0400,11801.78997429167,0.637115478515625,0.208740234375,-0.1745147705078125,1,0.94
2020-05-16 12:54:52.774 -0400,11801.85494929167,0.7843170166015625,0.191650390625,-0.10955810546875,1,0.94
2020-05-16 12:54:52.839 -0400,11801.91992529167,1.9007568359375,-0.0120697021484375,0.4431915283203125,1,0.94
2020-05-16 12:54:52.904 -0400,11801.98490029167,1.732742309570312,1.26397705078125,-0.2574920654296875,1,0.94
2020-05-16 12:54:52.969 -0400,11802.04987529167,1.1143798828125,0.306427001953125,-0.623809814453125,1,0.94
2020-05-16 12:54:53.034 -0400,11802.11485029167,0.7450408935546875,0.4351806640625,0.014251708984375,1,0.94
2020-05-16 12:54:53.099 -0400,11802.17982629167,0.4583740234375,0.466064453125,-0.083953857421875,1,0.94
2020-05-16 12:54:53.164 -0400,11802.244801375,0.5252685546875,0.56884765625,-0.055908203125,1,0.94
2020-05-16 12:54:53.229 -0400,11802.309776375,1.338668823242188,0.99444580078125,-0.0909423828125,1,0.94
2020-05-16 12:54:53.294 -0400,11802.374752375,1.279373168945312,0.7467193603515625,-0.294677734375,1,0.94
2020-05-16 12:54:53.359 -0400,11802.439727375,1.240203857421875,0.7346343994140625,-0.51251220703125,1,0.94
2020-05-16 12:54:53.424 -0400,11802.504702375,1.40020751953125,0.6965179443359375,-0.52606201171875,1,0.94
2020-05-16 12:54:53.489 -0400,11802.569678375,1.816665649414062,-0.0139617919921875,-0.1820831298828125,1,0.94
2020-05-16 12:54:53.554 -0400,11802.634653375,0.9281463623046875,-0.0391082763671875,-0.2922515869140625,1,0.94
2020-05-16 12:54:53.619 -0400,11802.699628375,0.7351837158203125,0.4635772705078125,-0.3456268310546875,1,0.94
2020-05-16 12:54:53.684 -0400,11802.764604375,0.651947021484375,0.3392333984375,-0.093536376953125,1,0.94
2020-05-16 12:54:53.749 -0400,11802.829579375,0.580474853515625,0.25067138671875,-0.113555908203125,1,0.94
2020-05-16 12:54:53.814 -0400,11802.894554375,0.685089111328125,0.183319091796875,-0.124237060546875,1,0.94
2020-05-16 12:54:53.879 -0400,11802.959530375,1.070602416992188,0.2733306884765625,-0.22113037109375,1,0.94
2020-05-16 12:54:53.943 -0400,11803.024505375,1.50616455078125,0.3133544921875,-0.1743621826171875,1,0.94
2020-05-16 12:54:54.009 -0400,11803.089480375,1.590652465820312,0.5484161376953125,-0.5363311767578125,1,0.94
2020-05-16 12:54:54.074 -0400,11803.154455375,1.643539428710938,0.43524169921875,-0.1330413818359375,1,0.94
2020-05-16 12:54:54.139 -0400,11803.2194315,1.099014282226562,0.30010986328125,-0.2572784423828125,1,0.94
2020-05-16 12:54:54.204 -0400,11803.2844065,0.6304168701171875,0.4556732177734375,-0.0701904296875,1,0.94
2020-05-16 12:54:54.273 -0400,11803.3493815,0.4393157958984375,0.6507110595703125,-0.015625,1,0.94
2020-05-16 12:54:54.333 -0400,11803.4143575,0.496337890625,0.49542236328125,-0.0742340087890625,1,0.94
2020-05-16 12:54:54.399 -0400,11803.4793325,0.9266815185546875,0.4306182861328125,-0.1731719970703125,1,0.94
2020-05-16 12:54:54.463 -0400,11803.5443075,1.195465087890625,0.4162139892578125,-0.298126220703125,1,0.94
2020-05-16 12:54:54.529 -0400,11803.6092835,1.0545654296875,0.387054443359375,-0.377105712890625,1,0.94
2020-05-16 12:54:54.593 -0400,11803.6742585,1.01397705078125,0.472076416015625,-0.546051025390625,1,0.94
2020-05-16 12:54:54.658 -0400,11803.7392335,1.081573486328125,0.3259429931640625,-0.3874359130859375,1,0.94
2020-05-16 12:54:54.723 -0400,11803.8042095,1.19061279296875,0.1107940673828125,-0.1940460205078125,1,0.94
2020-05-16 12:54:54.789 -0400,11803.8691845,1.094039916992188,0.2718048095703125,-0.28900146484375,1,0.94
2020-05-16 12:54:54.853 -0400,11803.9341595,0.8306121826171875,0.41131591796875,-0.218109130859375,1,0.94
2020-05-16 12:54:54.918 -0400,11803.9991345,0.684326171875,0.4308624267578125,-0.1108551025390625,1,0.94
2020-05-16 12:54:54.983 -0400,11804.0641105,0.709320068359375,0.353729248046875,-0.08984375,1,0.94
2020-05-16 12:54:55.049 -0400,11804.1290855,0.69598388671875,0.2353057861328125,-0.052032470703125,1,0.94
2020-05-16 12:54:55.113 -0400,11804.1940605,0.754486083984375,0.313385009765625,-0.116058349609375,1,0.94
2020-05-16 12:54:55.178 -0400,11804.2590365,1.09844970703125,0.4253082275390625,-0.2272491455078125,1,0.94
2020-05-16 12:54:55.243 -0400,11804.3240115,1.328094482421875,0.3722991943359375,-0.2496795654296875,1,0.94
2020-05-16 12:54:55.308 -0400,11804.3889865,1.193893432617188,0.448638916015625,-0.4595184326171875,1,0.94
2020-05-16 12:54:55.373 -0400,11804.4539625,1.022689819335938,0.4212799072265625,-0.5504913330078125,1,0.94
2020-05-16 12:54:55.438 -0400,11804.5189375,0.995147705078125,0.0699310302734375,-0.166168212890625,1,0.94
2020-05-16 12:54:55.503 -0400,11804.5839125,0.7837677001953125,0.2422332763671875,-0.2463836669921875,1,0.94
2020-05-16 12:54:55.568 -0400,11804.6488875,0.649810791015625,0.4737548828125,-0.206298828125,1,0.94
2020-05-16 12:54:55.633 -0400,11804.7138635,0.6455230712890625,0.4738006591796875,-0.2015380859375,1,0.94
2020-05-16 12:54:55.698 -0400,11804.7788385,0.74688720703125,0.3760223388671875,-0.177642822265625,1,0.94
2020-05-16 12:54:55.763 -0400,11804.8438135,0.9254913330078125,0.3628387451171875,-0.1784820556640625,1,0.94
2020-05-16 12:54:55.828 -0400,11804.9087895,0.89892578125,0.3116455078125,-0.2028350830078125,1,0.94
2020-05-16 12:54:55.893 -0400,11804.9737645,0.9577178955078125,0.2800140380859375,-0.21368408203125,1,0.94
2020-05-16 12:54:55.958 -0400,11805.0387395,1.351654052734375,0.39471435546875,-0.2553863525390625,1,0.94
2020-05-16 12:54:56.023 -0400,11805.1037155,1.110092163085938,0.300140380859375,-0.258544921875,1,0.94
2020-05-16 12:54:56.088 -0400,11805.1686905,1.101959228515625,0.2740631103515625,-0.249298095703125,1,0.94
2020-05-16 12:54:56.153 -0400,11805.23366541667,0.905487060546875,0.3141937255859375,-0.2123260498046875,1,0.94
2020-05-16 12:54:56.218 -0400,11805.29864141667,0.74969482421875,0.3261566162109375,-0.2288665771484375,1,0.94
2020-05-16 12:54:56.284 -0400,11805.36361641667,0.807220458984375,0.326873779296875,-0.1965789794921875,1,0.94
2020-05-16 12:54:56.348 -0400,11805.42859141667,0.779571533203125,0.333740234375,-0.1891021728515625,1,0.94
2020-05-16 12:54:56.414 -0400,11805.49356641667,0.8436126708984375,0.3158721923828125,-0.1173095703125,1,0.94
2020-05-16 12:54:56.478 -0400,11805.55854241667,0.819061279296875,0.3605804443359375,-0.087646484375,1,0.94
2020-05-16 12:54:56.543 -0400,11805.62351741667,0.99200439453125,0.415435791015625,-0.111724853515625,1,0.94
2020-05-16 12:54:56.608 -0400,11805.68849241667,1.184234619140625,0.36248779296875,-0.0248260498046875,1,0.94
2020-05-16 12:54:56.673 -0400,11805.75346841667,1.070999145507812,0.360687255859375,-0.0166168212890625,1,0.94
2020-05-16 12:54:56.738 -0400,11805.81844341667,1.041854858398438,0.399749755859375,0.05194091796875,1,0.94
2020-05-16 12:54:56.803 -0400,11805.88341841667,1.069107055664062,0.4393463134765625,0.0854339599609375,1,0.94
2020-05-16 12:54:56.868 -0400,11805.94839441667,0.8969573974609375,0.4468841552734375,0.0059051513671875,1,0.94
2020-05-16 12:54:56.932 -0400,11806.01336941667,0.8003997802734375,0.479339599609375,-0.0446014404296875,1,0.94
2020-05-16 12:54:56.998 -0400,11806.07834441667,0.7781982421875,0.468994140625,-0.07940673828125,1,0.94
2020-05-16 12:54:57.062 -0400,11806.14331941667,0.7324066162109375,0.452392578125,-0.0646514892578125,1,0.94
2020-05-16 12:54:57.128 -0400,11806.208295625,0.830535888671875,0.5264129638671875,-0.082000732421875,1,0.94
2020-05-16 12:54:57.193 -0400,11806.273270625,0.8211212158203125,0.535888671875,-0.1689605712890625,1,0.94
2020-05-16 12:54:57.258 -0400,11806.338245625,0.844757080078125,0.5915069580078125,-0.3159942626953125,1,0.94
2020-05-16 12:54:57.322 -0400,11806.403221625,0.77154541015625,0.626190185546875,-0.534454345703125,1,0.94
2020-05-16 12:54:57.387 -0400,11806.468196625,0.766143798828125,0.6258087158203125,-0.6048126220703125,1,0.94
2020-05-16 12:54:57.452 -0400,11806.533171625,0.746734619140625,0.551116943359375,-0.4698333740234375,1,0.94
2020-05-16 12:54:57.518 -0400,11806.598147625,1.666336059570312,0.7295074462890625,-0.643402099609375,1,0.94
2020-05-16 12:54:57.582 -0400,11806.663122625,1.524093627929688,0.34381103515625,-0.1102294921875,1,0.94
2020-05-16 12:54:57.647 -0400,11806.728097625,1.228683471679688,-0.30609130859375,-0.0107879638671875,1,0.94
2020-05-16 12:54:57.712 -0400,11806.793072625,0.8219451904296875,0.6178131103515625,-0.091278076171875,1,0.94
2020-05-16 12:54:57.777 -0400,11806.858048625,0.9198455810546875,0.5473480224609375,0.1358489990234375,1,0.94
2020-05-16 12:54:57.842 -0400,11806.923023625,0.7547607421875,0.1695404052734375,0.1112823486328125,1,0.94
2020-05-16 12:54:57.907 -0400,11806.987998625,0.65167236328125,0.4061431884765625,0.011199951171875,1,0.94
2020-05-16 12:54:57.972 -0400,11807.052974625,0.602447509765625,0.5150909423828125,-0.0515289306640625,1,0.94
2020-05-16 12:54:58.037 -0400,11807.117949625,0.400390625,0.696746826171875,0.1207122802734375,1,0.94
2020-05-16 12:54:58.102 -0400,11807.182924625,1.052474975585938,0.9652252197265625,-0.2728729248046875,1,0.94
2020-05-16 12:54:58.167 -0400,11807.247899625,1.177017211914062,0.7143402099609375,-0.3225860595703125,1,0.94
2020-05-16 12:54:58.232 -0400,11807.312875625,1.115951538085938,0.7121429443359375,-0.4126129150390625,1,0.94
2020-05-16 12:54:58.297 -0400,11807.377850625,0.7658233642578125,0.413360595703125,-0.38433837890625,1,0.94
2020-05-16 12:54:58.362 -0400,11807.442825625,0.8953094482421875,0.293548583984375,-0.268524169921875,1,0.94
2020-05-16 12:54:58.427 -0400,11807.507801625,1.014968872070312,0.4056396484375,-0.2324066162109375,1,0.94
2020-05-16 12:54:58.492 -0400,11807.572776625,0.90460205078125,0.3934478759765625,-0.0921630859375,1,0.94
2020-05-16 12:54:58.557 -0400,11807.637751625,0.7892608642578125,0.4132232666015625,-0.0612640380859375,1,0.94
2020-05-16 12:54:58.622 -0400,11807.702727625,0.63134765625,0.347412109375,-0.041046142578125,1,0.94
2020-05-16 12:54:58.687 -0400,11807.767702625,0.5688018798828125,0.323516845703125,-0.076446533203125,1,0.94
2020-05-16 12:54:58.752 -0400,11807.832677625,0.5731964111328125,0.3584442138671875,-0.073150634765625,1,0.94
2020-05-16 12:54:58.817 -0400,11807.897652625,0.662994384765625,0.4596405029296875,-0.1467437744140625,1,0.94
2020-05-16 12:54:58.882 -0400,11807.962628625,1.165267944335938,0.51153564453125,-0.11199951171875,1,0.94
2020-05-16 12:54:58.947 -0400,11808.027603625,1.5721435546875,0.585845947265625,-0.0867767333984375,1,0.94
2020-05-16 12:54:59.012 -0400,11808.092578625,1.383865356445312,0.3807220458984375,0.0063934326171875,1,0.94
2020-05-16 12:54:59.077 -0400,11808.157554625,1.3951416015625,0.376861572265625,0.01593017578125,1,0.94
2020-05-16 12:54:59.142 -0400,11808.222529625,1.170913696289062,0.33770751953125,0.055908203125,1,0.94
2020-05-16 12:54:59.207 -0400,11808.287504625,0.8853759765625,0.2752685546875,0.1021270751953125,1,0.94
2020-05-16 12:54:59.284 -0400,11808.352480625,0.7342071533203125,0.255218505859375,0.0925445556640625,1,0.94
2020-05-16 12:54:59.337 -0400,11808.417455625,0.67364501953125,0.2238922119140625,0.090240478515625,1,0.94
2020-05-16 12:54:59.402 -0400,11808.482430625,0.7652740478515625,0.28948974609375,0.025665283203125,1,0.94
2020-05-16 12:54:59.467 -0400,11808.547405625,0.9316558837890625,0.33953857421875,0.0259552001953125,1,0.94
2020-05-16 12:54:59.531 -0400,11808.612381625,1.076889038085938,0.44635009765625,-0.12078857421875,1,0.94
2020-05-16 12:54:59.597 -0400,11808.677356625,1.077987670898438,0.5728912353515625,-0.3967742919921875,1,0.94
2020-05-16 12:54:59.661 -0400,11808.742331625,1.033355712890625,0.3961639404296875,-0.2925262451171875,1,0.94
2020-05-16 12:54:59.727 -0400,11808.807306625,1.035873413085938,0.0051727294921875,-0.45452880859375,1,0.94
2020-05-16 12:54:59.791 -0400,11808.872282625,0.8599395751953125,0.435089111328125,-0.4517974853515625,1,0.94
2020-05-16 12:54:59.857 -0400,11808.937257625,0.810394287109375,0.3056182861328125,-0.294677734375,1,0.94
2020-05-16 12:54:59.921 -0400,11809.002232625,0.7862396240234375,0.3252410888671875,-0.22137451171875,1,0.94
2020-05-16 12:54:59.987 -0400,11809.067208625,0.83087158203125,0.3575897216796875,-0.2129058837890625,1,0.94
2020-05-16 12:55:00.051 -0400,11809.132183625,0.8674468994140625,0.3134765625,-0.1493988037109375,1,0.94
2020-05-16 12:55:00.116 -0400,11809.197158625,0.8822479248046875,0.3527679443359375,-0.141021728515625,1,0.94
2020-05-16 12:55:00.181 -0400,11809.262134375,1.092620849609375,0.4293212890625,-0.1643829345703125,1,0.94
2020-05-16 12:55:00.246 -0400,11809.327109375,1.22552490234375,0.4501190185546875,-0.182159423828125,1,0.94
2020-05-16 12:55:00.311 -0400,11809.392084375,1.003982543945312,0.3967437744140625,-0.1649932861328125,1,0.94
2020-05-16 12:55:00.376 -0400,11809.457059375,0.898468017578125,0.3217620849609375,-0.11065673828125,1,0.94
2020-05-16 12:55:00.441 -0400,11809.522035375,0.819427490234375,0.2998504638671875,-0.08294677734375,1,0.94
2020-05-16 12:55:00.506 -0400,11809.587010375,0.827239990234375,0.328033447265625,-0.050689697265625,1,0.94
2020-05-16 12:55:00.571 -0400,11809.651985375,0.8939971923828125,0.364288330078125,-0.02947998046875,1,0.94
2020-05-16 12:55:00.636 -0400,11809.716961375,0.9458770751953125,0.4063568115234375,-0.0639495849609375,1,0.94
2020-05-16 12:55:00.701 -0400,11809.781936375,0.9524078369140625,0.3687744140625,-0.0580291748046875,1,0.94
2020-05-16 12:55:00.766 -0400,11809.846911375,0.9147491455078125,0.34637451171875,-0.0745849609375,1,0.94
2020-05-16 12:55:00.831 -0400,11809.911886375,0.899993896484375,0.3388214111328125,-0.103851318359375,1,0.94
2020-05-16 12:55:00.896 -0400,11809.976862375,0.885162353515625,0.3534393310546875,-0.13702392578125,1,0.94
2020-05-16 12:55:00.961 -0400,11810.041837375,0.9201202392578125,0.3644561767578125,-0.171630859375,1,0.94
2020-05-16 12:55:01.026 -0400,11810.106812375,0.95465087890625,0.363555908203125,-0.1767730712890625,1,0.94
2020-05-16 12:55:01.091 -0400,11810.171787375,1.015090942382812,0.4026336669921875,-0.1751708984375,1,0.94
2020-05-16 12:55:01.156 -0400,11810.2367635,1.001373291015625,0.4644012451171875,-0.213226318359375,1,0.94
2020-05-16 12:55:01.222 -0400,11810.3017385,0.97149658203125,0.4053955078125,-0.1828460693359375,1,0.94
2020-05-16 12:55:01.286 -0400,11810.3667135,0.8190460205078125,0.3311004638671875,-0.1834869384765625,1,0.94
2020-05-16 12:55:01.351 -0400,11810.4316895,0.8952789306640625,0.3315582275390625,-0.1658935546875,1,0.94
2020-05-16 12:55:01.416 -0400,11810.4966645,0.9069671630859375,0.342437744140625,-0.20941162109375,1,0.94
2020-05-16 12:55:01.481 -0400,11810.5616395,0.9513397216796875,0.33258056640625,-0.4110260009765625,1,0.94
2020-05-16 12:55:01.546 -0400,11810.6266145,0.881683349609375,0.0135955810546875,-0.4104766845703125,1,0.94
2020-05-16 12:55:01.611 -0400,11810.6915905,0.7744140625,0.2546234130859375,-0.3192596435546875,1,0.94
2020-05-16 12:55:01.676 -0400,11810.7565655,0.75323486328125,0.3470611572265625,-0.1894073486328125,1,0.94
2020-05-16 12:55:01.740 -0400,11810.8215405,0.78192138671875,0.350616455078125,-0.05706787109375,1,0.94
2020-05-16 12:55:01.806 -0400,11810.8865165,0.8469390869140625,0.3871612548828125,-0.092132568359375,1,0.94
2020-05-16 12:55:01.871 -0400,11810.9514915,0.9116058349609375,0.401031494140625,-0.119659423828125,1,0.94
2020-05-16 12:55:01.936 -0400,11811.0164665,1.05035400390625,0.4610137939453125,-0.1905364990234375,1,0.94
2020-05-16 12:55:02.001 -0400,11811.0814415,1.132720947265625,0.4787750244140625,-0.242462158203125,1,0.94
2020-05-16 12:55:02.066 -0400,11811.1464175,1.409286499023438,0.5130462646484375,-0.3425750732421875,1,0.94
2020-05-16 12:55:02.130 -0400,11811.21139225,1.322799682617188,0.3875885009765625,-0.20947265625,1,0.94
2020-05-16 12:55:02.196 -0400,11811.27636725,0.9859466552734375,0.3709869384765625,-0.221588134765625,1,0.94
2020-05-16 12:55:02.260 -0400,11811.34134325,0.961029052734375,0.3285675048828125,-0.0461273193359375,1,0.94
2020-05-16 12:55:02.326 -0400,11811.40631825,0.879302978515625,0.2774200439453125,0.000640869140625,1,0.94
2020-05-16 12:55:02.390 -0400,11811.47129325,0.8114166259765625,0.306365966796875,0.029937744140625,1,0.94
2020-05-16 12:55:02.455 -0400,11811.53626825,0.74884033203125,0.2995758056640625,0.0827789306640625,1,0.94
2020-05-16 12:55:02.520 -0400,11811.60124425,0.7694091796875,0.330047607421875,0.04864501953125,1,0.94
2020-05-16 12:55:02.586 -0400,11811.66621925,0.8891754150390625,0.3450469970703125,0.0326385498046875,1,0.94
2020-05-16 12:55:02.650 -0400,11811.73119425,0.9163665771484375,0.347747802734375,-0.0198974609375,1,0.94
2020-05-16 12:55:02.715 -0400,11811.79616925,1.155227661132812,0.40509033203125,-0.1128692626953125,1,0.94
2020-05-16 12:55:02.780 -0400,11811.86114525,1.324783325195312,0.399627685546875,-0.1712799072265625,1,0.94
2020-05-16 12:55:02.845 -0400,11811.92612025,1.633514404296875,0.4911956787109375,-0.302642822265625,1,0.94
2020-05-16 12:55:02.910 -0400,11811.99109525,1.155731201171875,0.2900238037109375,-0.1779632568359375,1,0.94
2020-05-16 12:55:02.975 -0400,11812.05607125,0.932342529296875,-0.1176910400390625,-0.253448486328125,1,0.94
2020-05-16 12:55:03.040 -0400,11812.12104625,0.7538299560546875,-0.146728515625,-0.15264892578125,1,0.94
2020-05-16 12:55:03.105 -0400,11812.18602125,0.7779083251953125,0.0152587890625,-0.12445068359375,1,0.94
2020-05-16 12:55:03.170 -0400,11812.25099625,0.7267608642578125,0.1542205810546875,-0.0667724609375,1,0.94
2020-05-16 12:55:03.235 -0400,11812.31597225,0.658538818359375,0.2620391845703125,-0.11041259765625,1,0.94
2020-05-16 12:55:03.300 -0400,11812.38094725,0.717376708984375,0.27484130859375,-0.0720977783203125,1,0.94
2020-05-16 12:55:03.365 -0400,11812.44592225,0.750732421875,0.297119140625,-0.1494293212890625,1,0.94
2020-05-16 12:55:03.430 -0400,11812.51089725,0.768524169921875,0.3978271484375,-0.4200286865234375,1,0.94
2020-05-16 12:55:03.495 -0400,11812.57587325,0.88397216796875,0.3406524658203125,-0.485931396484375,1,0.94
2020-05-16 12:55:03.560 -0400,11812.64084825,0.92266845703125,0.15447998046875,-0.4585418701171875,1,0.94
2020-05-16 12:55:03.625 -0400,11812.70582325,1.626632690429688,0.5361328125,-0.2680511474609375,1,0.94
2020-05-16 12:55:03.690 -0400,11812.77079825,1.393096923828125,0.5099639892578125,0.1832275390625,1,0.94
2020-05-16 12:55:03.755 -0400,11812.83577425,1.274887084960938,0.2495880126953125,0.15509033203125,1,0.94
2020-05-16 12:55:03.820 -0400,11812.90074925,1.18304443359375,0.4816131591796875,0.1823272705078125,1,0.94
2020-05-16 12:55:03.885 -0400,11812.96572425,0.78656005859375,0.3690643310546875,0.172576904296875,1,0.94
2020-05-16 12:55:03.950 -0400,11813.03070025,0.54241943359375,0.3041229248046875,0.087066650390625,1,0.94
2020-05-16 12:55:04.015 -0400,11813.09567525,0.510498046875,0.3357391357421875,0.0234222412109375,1,0.94
2020-05-16 12:55:04.080 -0400,11813.16065025,0.6062164306640625,0.416229248046875,0.012359619140625,1,0.94
2020-05-16 12:55:04.145 -0400,11813.225625375,0.8208160400390625,0.4319000244140625,-0.0289154052734375,1,0.94
2020-05-16 12:55:04.210 -0400,11813.290601375,1.0224609375,0.3905181884765625,-0.05450439453125,1,0.94
2020-05-16 12:55:04.275 -0400,11813.355576375,1.29547119140625,0.3846588134765625,-0.132354736328125,1,0.94
2020-05-16 12:55:04.351 -0400,11813.420551375,1.417633056640625,0.3412933349609375,-0.1329803466796875,1,0.94
2020-05-16 12:55:04.405 -0400,11813.485526375,1.59375,0.5069122314453125,-0.263916015625,1,0.94
2020-05-16 12:55:04.470 -0400,11813.550502375,1.099685668945312,0.1736297607421875,-0.23297119140625,1,0.94
2020-05-16 12:55:04.535 -0400,11813.615477375,0.90264892578125,0.031585693359375,-0.05474853515625,1,0.94
2020-05-16 12:55:04.599 -0400,11813.680452375,0.687530517578125,0.1446533203125,-0.1453704833984375,1,0.94
2020-05-16 12:55:04.665 -0400,11813.745427375,0.59893798828125,0.2154388427734375,-0.0627593994140625,1,0.94
2020-05-16 12:55:04.730 -0400,11813.810403375,0.5767059326171875,0.2754974365234375,-0.1356964111328125,1,0.94
2020-05-16 12:55:04.795 -0400,11813.875378375,0.583709716796875,0.2822723388671875,-0.174285888671875,1,0.94
2020-05-16 12:55:04.859 -0400,11813.940353375,0.737518310546875,0.322784423828125,-0.226104736328125,1,0.94
2020-05-16 12:55:04.924 -0400,11814.005329375,1.037765502929688,0.28460693359375,-0.218414306640625,1,0.94
2020-05-16 12:55:04.989 -0400,11814.070304375,1.301727294921875,0.258270263671875,-0.2358551025390625,1,0.94
2020-05-16 12:55:05.055 -0400,11814.135279375,1.334259033203125,0.3568267822265625,-0.309967041015625,1,0.94
2020-05-16 12:55:05.119 -0400,11814.200254375,1.305648803710938,0.4111785888671875,-0.2679901123046875,1,0.94
2020-05-16 12:55:05.185 -0400,11814.265229625,1.185440063476562,0.224334716796875,-0.111572265625,1,0.94
2020-05-16 12:55:05.249 -0400,11814.330204625,0.99591064453125,0.2926177978515625,-0.0821533203125,1,0.94
2020-05-16 12:55:05.314 -0400,11814.395179625,0.76690673828125,0.31732177734375,-0.052154541015625,1,0.94
2020-05-16 12:55:05.379 -0400,11814.460154625,0.6577606201171875,0.322174072265625,-0.038330078125,1,0.94
2020-05-16 12:55:05.444 -0400,11814.525130625,0.7684783935546875,0.2895355224609375,0.034210205078125,1,0.94
2020-05-16 12:55:05.509 -0400,11814.590105625,0.902618408203125,0.4072418212890625,-0.0478515625,1,0.94
2020-05-16 12:55:05.575 -0400,11814.655080625,0.9990997314453125,0.414947509765625,-0.0322723388671875,1,0.94
2020-05-16 12:55:05.639 -0400,11814.720055625,1.072525024414062,0.4306182861328125,-0.139739990234375,1,0.94
2020-05-16 12:55:05.704 -0400,11814.785031625,1.199722290039062,0.381744384765625,-0.16973876953125,1,0.94
2020-05-16 12:55:05.769 -0400,11814.850006625,1.3592529296875,0.334442138671875,-0.2236480712890625,1,0.94
2020-05-16 12:55:05.834 -0400,11814.914981625,1.195281982421875,0.2654876708984375,-0.271148681640625,1,0.94
2020-05-16 12:55:05.899 -0400,11814.979956625,1.106094360351562,0.084381103515625,-0.1771697998046875,1,0.94
2020-05-16 12:55:05.964 -0400,11815.044932625,0.9091644287109375,0.0100250244140625,-0.1483001708984375,1,0.94
2020-05-16 12:55:06.029 -0400,11815.109907625,0.722900390625,0.09771728515625,-0.085968017578125,1,0.94
2020-05-16 12:55:06.094 -0400,11815.174882625,0.5749664306640625,0.2342681884765625,-0.0820465087890625,1,0.94
2020-05-16 12:55:06.159 -0400,11815.23985804167,0.4368896484375,0.2375030517578125,-0.0858154296875,1,0.94
2020-05-16 12:55:06.224 -0400,11815.30483304167,0.656280517578125,0.3482818603515625,-0.1514739990234375,1,0.94
2020-05-16 12:55:06.289 -0400,11815.36980804167,0.932952880859375,0.483917236328125,-0.337432861328125,1,0.94
2020-05-16 12:55:06.354 -0400,11815.43478304167,1.160736083984375,0.2723846435546875,-0.4123687744140625,1,0.94
2020-05-16 12:55:06.419 -0400,11815.49975904167,1.186187744140625,0.123291015625,-0.3652496337890625,1,0.94
2020-05-16 12:55:06.484 -0400,11815.56473404167,1.38909912109375,0.361785888671875,-0.470733642578125,1,0.94
2020-05-16 12:55:06.549 -0400,11815.62970904167,1.231796264648438,0.4266815185546875,-0.2361907958984375,1,0.94
2020-05-16 12:55:06.614 -0400,11815.69468404167,1.1768798828125,0.2448272705078125,-0.1247406005859375,1,0.94
2020-05-16 12:55:06.679 -0400,11815.75966004167,1.1800537109375,0.3114166259765625,-0.061065673828125,1,0.94
2020-05-16 12:55:06.744 -0400,11815.82463504167,0.86029052734375,0.2606048583984375,0.044464111328125,1,0.94
2020-05-16 12:55:06.809 -0400,11815.88961004167,0.6414947509765625,0.40460205078125,-0.0079345703125,1,0.94
2020-05-16 12:55:06.874 -0400,11815.95458504167,0.5808563232421875,0.5388031005859375,0.012664794921875,1,0.94
2020-05-16 12:55:06.944 -0400,11816.01956104167,0.6651153564453125,0.66705322265625,-0.030914306640625,1,0.94
2020-05-16 12:55:07.004 -0400,11816.08453604167,0.8616790771484375,0.771697998046875,-0.1029815673828125,1,0.94
2020-05-16 12:55:07.068 -0400,11816.14951104167,0.824493408203125,0.6029052734375,-0.1413421630859375,1,0.94
2020-05-16 12:55:07.134 -0400,11816.21448725,0.790679931640625,0.61016845703125,-0.3252410888671875,1,0.94
2020-05-16 12:55:07.198 -0400,11816.27946325,0.823028564453125,0.5771331787109375,-0.3800048828125,1,0.94
2020-05-16 12:55:07.266 -0400,11816.34443825,0.7603607177734375,0.453125,-0.4398345947265625,1,0.94
2020-05-16 12:55:07.328 -0400,11816.40941325,0.9121856689453125,0.3888397216796875,-0.3333282470703125,1,0.94
2020-05-16 12:55:07.394 -0400,11816.47438825,1.177520751953125,0.4149017333984375,-0.1981658935546875,1,0.94
2020-05-16 12:55:07.458 -0400,11816.53936425,1.20037841796875,0.28948974609375,0.018524169921875,1,0.94
2020-05-16 12:55:07.524 -0400,11816.60433925,1.112060546875,0.2421417236328125,0.1107940673828125,1,0.94
2020-05-16 12:55:07.588 -0400,11816.66931425,1.025772094726562,0.31787109375,0.0699462890625,1,0.94
2020-05-16 12:55:07.654 -0400,11816.73428925,0.7842864990234375,0.3387603759765625,-0.0931854248046875,1,0.94
2020-05-16 12:55:07.718 -0400,11816.79926525,0.60028076171875,0.288116455078125,-0.176055908203125,1,0.94
2020-05-16 12:55:07.783 -0400,11816.86424025,0.6629180908203125,0.2444000244140625,-0.1488800048828125,1,0.94
2020-05-16 12:55:07.848 -0400,11816.92921525,0.7046356201171875,0.3053436279296875,-0.1807098388671875,1,0.94
2020-05-16 12:55:07.913 -0400,11816.99419125,0.8676300048828125,0.408660888671875,-0.3212127685546875,1,0.94
2020-05-16 12:55:07.978 -0400,11817.05916625,0.996734619140625,0.407196044921875,-0.418304443359375,1,0.94
2020-05-16 12:55:08.043 -0400,11817.12414125,0.954620361328125,0.3610076904296875,-0.4608306884765625,1,0.94
2020-05-16 12:55:08.108 -0400,11817.18911625,0.8584747314453125,0.467529296875,-0.46612548828125,1,0.94
2020-05-16 12:55:08.173 -0400,11817.25409275,1.450454711914062,0.5946197509765625,-0.3307952880859375,1,0.94
2020-05-16 12:55:08.238 -0400,11817.31906775,1.337921142578125,0.4705047607421875,0.05535888671875,1,0.94
2020-05-16 12:55:08.314 -0400,11817.38404275,1.443145751953125,0.4150238037109375,0.002044677734375,1,0.94
2020-05-16 12:55:08.368 -0400,11817.44901775,1.538299560546875,0.5140533447265625,0.2018280029296875,1,0.94
2020-05-16 12:55:08.433 -0400,11817.51399375,1.374557495117188,0.3555908203125,0.35491943359375,1,0.94
2020-05-16 12:55:08.498 -0400,11817.57896875,1.062362670898438,0.372222900390625,0.2120513916015625,1,0.94
2020-05-16 12:55:08.563 -0400,11817.64394375,0.6553955078125,0.43536376953125,0.0973052978515625,1,0.94
2020-05-16 12:55:08.628 -0400,11817.70891875,0.52752685546875,0.3740081787109375,0.0147857666015625,1,0.94
2020-05-16 12:55:08.693 -0400,11817.77389475,0.697479248046875,0.429290771484375,-0.2348480224609375,1,0.94
2020-05-16 12:55:08.758 -0400,11817.83886975,0.82391357421875,0.3479461669921875,-0.3083953857421875,1,0.94
2020-05-16 12:55:08.823 -0400,11817.90384475,0.83856201171875,0.168243408203125,-0.3056488037109375,1,0.94
2020-05-16 12:55:08.888 -0400,11817.96881975,0.8929443359375,0.1999053955078125,-0.389068603515625,1,0.94
2020-05-16 12:55:08.953 -0400,11818.03379575,1.186355590820312,0.3824615478515625,-0.35186767578125,1,0.94
2020-05-16 12:55:09.018 -0400,11818.09877075,1.41192626953125,0.493560791015625,-0.3444366455078125,1,0.94
2020-05-16 12:55:09.083 -0400,11818.16374575,1.313949584960938,0.0574188232421875,-0.1125335693359375,1,0.94
2020-05-16 12:55:09.148 -0400,11818.228719875,1.100997924804688,-0.2589874267578125,-0.04595947265625,1,0.94
2020-05-16 12:55:09.213 -0400,11818.293695875,0.8875274658203125,-0.0449981689453125,-0.20166015625,1,0.94
2020-05-16 12:55:09.278 -0400,11818.358670875,0.8089752197265625,-0.09344482421875,-0.0419464111328125,1,0.94
2020-05-16 12:55:09.343 -0400,11818.423645875,0.7989044189453125,0.04339599609375,-0.05474853515625,1,0.94
2020-05-16 12:55:09.408 -0400,11818.488620875,0.70928955078125,0.140045166015625,-0.09503173828125,1,0.94
2020-05-16 12:55:09.473 -0400,11818.553596875,0.6694488525390625,0.2259368896484375,-0.1876373291015625,1,0.94
2020-05-16 12:55:09.538 -0400,11818.618571875,0.751312255859375,0.274932861328125,-0.19091796875,1,0.94
2020-05-16 12:55:09.603 -0400,11818.683546875,0.85089111328125,0.2808380126953125,-0.1909332275390625,1,0.94
2020-05-16 12:55:09.668 -0400,11818.748521875,0.8045196533203125,0.270538330078125,-0.208343505859375,1,0.94
2020-05-16 12:55:09.733 -0400,11818.813497875,0.95709228515625,0.2822113037109375,-0.2001495361328125,1,0.94
2020-05-16 12:55:09.797 -0400,11818.878472875,1.005340576171875,0.2679901123046875,-0.2122802734375,1,0.94
2020-05-16 12:55:09.863 -0400,11818.943447875,1.391128540039062,0.3223724365234375,-0.1503753662109375,1,0.94
2020-05-16 12:55:09.927 -0400,11819.008422875,1.341644287109375,0.355865478515625,-0.1143646240234375,1,0.94
2020-05-16 12:55:09.993 -0400,11819.073398875,1.217056274414062,0.2666778564453125,0.0716705322265625,1,0.94
2020-05-16 12:55:10.065 -0400,11819.138373875,1.01953125,0.2984161376953125,0.0836639404296875,1,0.94
2020-05-16 12:55:10.123 -0400,11819.203348875,0.9368743896484375,0.33465576171875,0.091339111328125,1,0.94
2020-05-16 12:55:10.187 -0400,11819.268324,0.9340057373046875,0.339111328125,0.1226043701171875,1,0.94
2020-05-16 12:55:10.252 -0400,11819.3333,0.8324127197265625,0.37982177734375,0.0732574462890625,1,0.94
2020-05-16 12:55:10.317 -0400,11819.398275,0.7388153076171875,0.394744873046875,0.03277587890625,1,0.94
2020-05-16 12:55:10.383 -0400,11819.46325,0.7475738525390625,0.3611907958984375,0.023468017578125,1,0.94
2020-05-16 12:55:10.447 -0400,11819.528225,0.7671356201171875,0.3654632568359375,-0.01318359375,1,0.94
2020-05-16 12:55:10.512 -0400,11819.593201,0.9776611328125,0.3968963623046875,-0.0146484375,1,0.94
2020-05-16 12:55:10.577 -0400,11819.658176,1.047653198242188,0.394073486328125,-0.080413818359375,1,0.94
2020-05-16 12:55:10.642 -0400,11819.723151,1.169479370117188,0.4016876220703125,-0.10186767578125,1,0.94
2020-05-16 12:55:10.707 -0400,11819.788126,1.294601440429688,0.4215087890625,-0.1569366455078125,1,0.94
2020-05-16 12:55:10.772 -0400,11819.853102,1.17413330078125,0.2576751708984375,-0.05108642578125,1,0.94
2020-05-16 12:55:10.837 -0400,11819.918077,1.053085327148438,0.131805419921875,0.0063629150390625,1,0.94
2020-05-16 12:55:10.902 -0400,11819.983052,0.959625244140625,0.2468719482421875,0.0419158935546875,1,0.94
2020-05-16 12:55:10.967 -0400,11820.048027,0.7574462890625,0.2709808349609375,0.00701904296875,1,0.94
2020-05-16 12:55:11.032 -0400,11820.113003,0.6827545166015625,0.294586181640625,-0.0768585205078125,1,0.94
2020-05-16 12:55:11.097 -0400,11820.177978,0.811126708984375,0.339019775390625,-0.109771728515625,1,0.94
2020-05-16 12:55:11.162 -0400,11820.242953375,0.873199462890625,0.2907562255859375,-0.1423797607421875,1,0.94
2020-05-16 12:55:11.227 -0400,11820.307928375,0.86077880859375,0.26824951171875,-0.165283203125,1,0.94
2020-05-16 12:55:11.292 -0400,11820.372904375,0.7883758544921875,0.2058258056640625,-0.2103424072265625,1,0.94
2020-05-16 12:55:11.357 -0400,11820.437879375,0.7783660888671875,0.138763427734375,-0.2436676025390625,1,0.94
2020-05-16 12:55:11.422 -0400,11820.502854375,0.8577728271484375,0.1622161865234375,-0.08465576171875,1,0.94
2020-05-16 12:55:11.487 -0400,11820.567829375,1.0003662109375,0.29541015625,-0.1111602783203125,1,0.94
2020-05-16 12:55:11.552 -0400,11820.632805375,1.294937133789062,0.2109527587890625,0.0278472900390625,1,0.94
2020-05-16 12:55:11.617 -0400,11820.697780375,1.3458251953125,0.1699371337890625,0.1125640869140625,1,0.94
2020-05-16 12:55:11.682 -0400,11820.762755375,1.308502197265625,0.2159271240234375,0.0415191650390625,1,0.94
2020-05-16 12:55:11.747 -0400,11820.827730375,1.289276123046875,0.217193603515625,0.0577392578125,1,0.94
2020-05-16 12:55:11.812 -0400,11820.892706375,1.097122192382812,0.224761962890625,0.0270233154296875,1,0.94
2020-05-16 12:55:11.877 -0400,11820.957681375,0.899627685546875,0.2942657470703125,-0.043487548828125,1,0.94
2020-05-16 12:55:11.942 -0400,11821.022656375,0.6928253173828125,0.280548095703125,-0.066802978515625,1,0.94
2020-05-16 12:55:12.006 -0400,11821.087631375,0.59088134765625,0.2758026123046875,-0.0528411865234375,1,0.94
2020-05-16 12:55:12.072 -0400,11821.152607375,0.6749267578125,0.2719268798828125,-0.0015411376953125,1,0.94
2020-05-16 12:55:12.136 -0400,11821.217582375,0.7589874267578125,0.3537139892578125,0.0285186767578125,1,0.94
2020-05-16 12:55:12.202 -0400,11821.28255675,0.8105010986328125,0.4286651611328125,0.0089874267578125,1,0.94
2020-05-16 12:55:12.269 -0400,11821.34753175,0.9507293701171875,0.445770263671875,-0.05633544921875,1,0.94
2020-05-16 12:55:12.332 -0400,11821.41250775,1.254150390625,0.4763641357421875,-0.119476318359375,1,0.94
2020-05-16 12:55:12.396 -0400,11821.47748275,1.492507934570312,0.3824310302734375,-0.06640625,1,0.94
2020-05-16 12:55:12.461 -0400,11821.54245775,1.314315795898438,0.4269866943359375,-0.24041748046875,1,0.94
2020-05-16 12:55:12.526 -0400,11821.60743275,0.9358978271484375,0.36993408203125,-0.159088134765625,1,0.94
2020-05-16 12:55:12.592 -0400,11821.67240875,0.8004913330078125,0.0836181640625,-0.100830078125,1,0.94
2020-05-16 12:55:12.656 -0400,11821.73738375,0.7730865478515625,-0.0975341796875,-0.052459716796875,1,0.94
2020-05-16 12:55:12.722 -0400,11821.80235875,0.8349609375,0.01544189453125,-0.0858612060546875,1,0.94
2020-05-16 12:55:12.786 -0400,11821.86733375,0.7998504638671875,0.0679931640625,-0.2029571533203125,1,0.94
2020-05-16 12:55:12.851 -0400,11821.93230875,0.82208251953125,0.011138916015625,-0.1788177490234375,1,0.94
2020-05-16 12:55:12.916 -0400,11821.99728475,0.78857421875,0.0500030517578125,-0.1437225341796875,1,0.94
2020-05-16 12:55:12.981 -0400,11822.06225975,0.8158111572265625,0.23040771484375,-0.1797943115234375,1,0.94
2020-05-16 12:55:13.046 -0400,11822.12723475,0.8716888427734375,0.3452606201171875,-0.203887939453125,1,0.94
2020-05-16 12:55:13.111 -0400,11822.19220975,0.877227783203125,0.365509033203125,-0.2185211181640625,1,0.94
2020-05-16 12:55:13.176 -0400,11822.257186375,0.959014892578125,0.39483642578125,-0.2371826171875,1,0.94
2020-05-16 12:55:13.241 -0400,11822.322161375,1.249496459960938,0.418975830078125,-0.193756103515625,1,0.94
2020-05-16 12:55:13.306 -0400,11822.387136375,1.627151489257812,0.4292449951171875,-0.16796875,1,0.94
2020-05-16 12:55:13.371 -0400,11822.452111375,1.26910400390625,0.22259521484375,-0.1600799560546875,1,0.94
2020-05-16 12:55:13.436 -0400,11822.517087375,1.138381958007812,0.2208251953125,-0.1616668701171875,1,0.94
2020-05-16 12:55:13.501 -0400,11822.582062375,1.072402954101562,0.23370361328125,-0.1165924072265625,1,0.94
2020-05-16 12:55:13.566 -0400,11822.647037375,1.077667236328125,0.1539764404296875,-0.05419921875,1,0.94
2020-05-16 12:55:13.631 -0400,11822.712012375,0.8480987548828125,0.209442138671875,-0.06353759765625,1,0.94
2020-05-16 12:55:13.696 -0400,11822.776988375,0.621063232421875,0.2377166748046875,-0.0716552734375,1,0.94
2020-05-16 12:55:13.761 -0400,11822.841963375,0.5601043701171875,0.3091278076171875,-0.0699310302734375,1,0.94
2020-05-16 12:55:13.826 -0400,11822.906938375,0.7186431884765625,0.419464111328125,-0.078948974609375,1,0.94
2020-05-16 12:55:13.891 -0400,11822.971913375,0.9035797119140625,0.45050048828125,-0.1183624267578125,1,0.94
2020-05-16 12:55:13.956 -0400,11823.036889375,1.118728637695312,0.495452880859375,-0.152252197265625,1,0.94
2020-05-16 12:55:14.021 -0400,11823.101864375,1.27117919921875,0.5152740478515625,-0.2197723388671875,1,0.94
2020-05-16 12:55:14.086 -0400,11823.166839375,1.271987915039062,0.47930908203125,-0.2498016357421875,1,0.94
2020-05-16 12:55:14.151 -0400,11823.231813875,1.093185424804688,0.40313720703125,-0.2624053955078125,1,0.94
2020-05-16 12:55:14.216 -0400,11823.296789875,1.174224853515625,0.1779327392578125,-0.1336517333984375,1,0.94
2020-05-16 12:55:14.284 -0400,11823.361764875,0.93426513671875,-0.0396728515625,-0.02490234375,1,0.94
2020-05-16 12:55:14.346 -0400,11823.426739875,0.774383544921875,-0.13311767578125,-0.0876922607421875,1,0.94
2020-05-16 12:55:14.411 -0400,11823.491714875,0.9701995849609375,-0.189056396484375,-0.0771331787109375,1,0.94
2020-05-16 12:55:14.476 -0400,11823.556690875,0.8197784423828125,-0.1240386962890625,-0.04803466796875,1,0.94
2020-05-16 12:55:14.541 -0400,11823.621665875,0.7653350830078125,0.11053466796875,-0.1513824462890625,1,0.94
2020-05-16 12:55:14.606 -0400,11823.686640875,0.9273223876953125,0.2024993896484375,-0.11474609375,1,0.94
2020-05-16 12:55:14.671 -0400,11823.751615875,0.7886505126953125,0.2040557861328125,-0.1093292236328125,1,0.94
2020-05-16 12:55:14.736 -0400,11823.816591875,0.7647247314453125,0.3460235595703125,-0.1765594482421875,1,0.94
2020-05-16 12:55:14.801 -0400,11823.881566875,0.914337158203125,0.3415679931640625,-0.25732421875,1,0.94
2020-05-16 12:55:14.866 -0400,11823.946541875,0.9598236083984375,0.3285369873046875,-0.27813720703125,1,0.94
2020-05-16 12:55:14.931 -0400,11824.011516875,1.17578125,0.3803863525390625,-0.3327484130859375,1,0.94
2020-05-16 12:55:14.995 -0400,11824.076492875,1.241744995117188,0.436004638671875,-0.3360748291015625,1,0.94
2020-05-16 12:55:15.061 -0400,11824.141467875,1.278457641601562,0.4488372802734375,-0.2568817138671875,1,0.94
2020-05-16 12:55:15.125 -0400,11824.206442875,1.192733764648438,0.304779052734375,-0.0980377197265625,1,0.94
2020-05-16 12:55:15.191 -0400,11824.2714185,1.461334228515625,0.2585906982421875,0.0420074462890625,1,0.94
2020-05-16 12:55:15.255 -0400,11824.3363935,1.37701416015625,0.351806640625,0.02301025390625,1,0.94
2020-05-16 12:55:15.321 -0400,11824.4013695,1.188613891601562,0.343536376953125,0.03240966796875,1,0.94
2020-05-16 12:55:15.385 -0400,11824.4663445,0.8859710693359375,0.3759613037109375,0.02618408203125,1,0.94
2020-05-16 12:55:15.451 -0400,11824.5313195,0.642364501953125,0.355743408203125,-0.0419921875,1,0.94
2020-05-16 12:55:15.515 -0400,11824.5962945,0.5689697265625,0.2882537841796875,-0.0310516357421875,1,0.94
2020-05-16 12:55:15.581 -0400,11824.6612705,0.527374267578125,0.201568603515625,-0.0384674072265625,1,0.94
2020-05-16 12:55:15.645 -0400,11824.7262455,0.7640533447265625,0.2180633544921875,-0.0221710205078125,1,0.94
2020-05-16 12:55:15.710 -0400,11824.7912205,1.262832641601562,0.349578857421875,0.0506744384765625,1,0.94
2020-05-16 12:55:15.775 -0400,11824.8561955,1.563812255859375,0.563812255859375,0.025238037109375,1,0.94
2020-05-16 12:55:15.840 -0400,11824.9211715,1.891220092773438,0.7445526123046875,-0.2501983642578125,1,0.94
2020-05-16 12:55:15.905 -0400,11824.9861465,1.245285034179688,0.462554931640625,-0.091552734375,1,0.94
2020-05-16 12:55:15.970 -0400,11825.0511215,0.9471282958984375,0.1779632568359375,-0.1351470947265625,1,0.94
2020-05-16 12:55:16.035 -0400,11825.1160965,0.858306884765625,0.2261810302734375,-0.139404296875,1,0.94
2020-05-16 12:55:16.100 -0400,11825.1810725,0.71990966796875,0.3665924072265625,-0.1391448974609375,1,0.94
2020-05-16 12:55:16.165 -0400,11825.24604741667,0.450958251953125,0.30255126953125,-0.1639404296875,1,0.94
2020-05-16 12:55:16.230 -0400,11825.31102241667,0.3119049072265625,0.1751861572265625,-0.1540985107421875,1,0.94
2020-05-16 12:55:16.295 -0400,11825.37599741667,0.5166473388671875,0.17279052734375,-0.0590362548828125,1,0.94
2020-05-16 12:55:16.360 -0400,11825.44097241667,0.9419708251953125,0.16650390625,-0.0175933837890625,1,0.94
2020-05-16 12:55:16.425 -0400,11825.50594841667,1.386520385742188,0.4595489501953125,-0.21923828125,1,0.94
2020-05-16 12:55:16.490 -0400,11825.57092341667,1.571441650390625,0.462615966796875,-0.2371368408203125,1,0.94
2020-05-16 12:55:16.555 -0400,11825.63589841667,1.021652221679688,0.498138427734375,-0.2285308837890625,1,0.94
2020-05-16 12:55:16.620 -0400,11825.70087341667,0.986907958984375,0.4567108154296875,-0.0659332275390625,1,0.94
2020-05-16 12:55:16.685 -0400,11825.76584941667,1.320526123046875,0.2739410400390625,0.147247314453125,1,0.94
2020-05-16 12:55:16.750 -0400,11825.83082441667,1.279373168945312,0.285614013671875,0.1966094970703125,1,0.94
2020-05-16 12:55:16.815 -0400,11825.89579941667,1.205352783203125,0.3719940185546875,0.084197998046875,1,0.94
2020-05-16 12:55:16.880 -0400,11825.96077441667,0.918792724609375,0.3322906494140625,0.1613006591796875,1,0.94
2020-05-16 12:55:16.945 -0400,11826.02575041667,0.6528472900390625,0.274688720703125,0.143707275390625,1,0.94
2020-05-16 12:55:17.010 -0400,11826.09072541667,0.5681304931640625,0.28375244140625,0.0909881591796875,1,0.94
2020-05-16 12:55:17.075 -0400,11826.15570041667,0.5576171875,0.35980224609375,-0.0212860107421875,1,0.94
2020-05-16 12:55:17.140 -0400,11826.22067541667,0.8286590576171875,0.344146728515625,-0.0240020751953125,1,0.94
2020-05-16 12:55:17.205 -0400,11826.28565016667,1.114898681640625,0.25054931640625,-0.0548553466796875,1,0.94
2020-05-16 12:55:17.270 -0400,11826.35062516667,1.222991943359375,0.1992645263671875,-0.17657470703125,1,0.94
2020-05-16 12:55:17.335 -0400,11826.41560016667,1.39813232421875,0.3067626953125,-0.2663726806640625,1,0.94
2020-05-16 12:55:17.400 -0400,11826.48057516667,1.177658081054688,0.178802490234375,-0.2921142578125,1,0.94
2020-05-16 12:55:17.465 -0400,11826.54555016667,1.148895263671875,-0.124847412109375,-0.1774749755859375,1,0.94
2020-05-16 12:55:17.530 -0400,11826.61052616667,0.9695587158203125,0.046600341796875,-0.078094482421875,1,0.94
2020-05-16 12:55:17.594 -0400,11826.67550116667,0.510772705078125,0.2397918701171875,-0.20782470703125,1,0.94
2020-05-16 12:55:17.660 -0400,11826.74047616667,0.32769775390625,0.26318359375,-0.1493988037109375,1,0.94
2020-05-16 12:55:17.725 -0400,11826.80545116667,0.4517059326171875,0.28436279296875,-0.11016845703125,1,0.94
2020-05-16 12:55:17.790 -0400,11826.87042716667,0.7293701171875,0.397308349609375,-0.193389892578125,1,0.94
2020-05-16 12:55:17.854 -0400,11826.93540216667,1.070037841796875,0.458953857421875,-0.1807708740234375,1,0.94
2020-05-16 12:55:17.920 -0400,11827.00037716667,1.285171508789062,0.5363922119140625,-0.339019775390625,1,0.94
2020-05-16 12:55:17.984 -0400,11827.06535216667,1.09271240234375,0.5373382568359375,-0.3686065673828125,1,0.94
2020-05-16 12:55:18.050 -0400,11827.13032816667,1.222610473632812,0.4578857421875,-0.2284088134765625,1,0.94
2020-05-16 12:55:18.114 -0400,11827.19530316667,1.473587036132812,0.2222900390625,-0.0811614990234375,1,0.94
2020-05-16 12:55:18.179 -0400,11827.260279125,1.344497680664062,0.29010009765625,-0.04461669921875,1,0.94
2020-05-16 12:55:18.244 -0400,11827.325254125,1.124404907226562,0.507568359375,-0.0620269775390625,1,0.94
2020-05-16 12:55:18.309 -0400,11827.390229125,0.806060791015625,0.36688232421875,0.0630035400390625,1,0.94
2020-05-16 12:55:18.374 -0400,11827.455205125,0.6022186279296875,0.2632293701171875,0.0623321533203125,1,0.94
2020-05-16 12:55:18.439 -0400,11827.520180125,0.5043182373046875,0.221099853515625,0.0596923828125,1,0.94
2020-05-16 12:55:18.504 -0400,11827.585155125,0.6785888671875,0.2819366455078125,-0.021087646484375,1,0.94
2020-05-16 12:55:18.569 -0400,11827.650130125,0.9902801513671875,0.2743682861328125,-0.03973388671875,1,0.94
2020-05-16 12:55:18.634 -0400,11827.715106125,1.54681396484375,0.3111724853515625,-0.0323944091796875,1,0.94
2020-05-16 12:55:18.699 -0400,11827.780081125,1.508529663085938,0.3740692138671875,-0.065765380859375,1,0.94
2020-05-16 12:55:18.764 -0400,11827.845056125,1.083389282226562,0.4425201416015625,-0.21588134765625,1,0.94
2020-05-16 12:55:18.829 -0400,11827.910031125,0.933441162109375,0.31884765625,-0.2393951416015625,1,0.94
2020-05-16 12:55:18.894 -0400,11827.975006125,0.8204345703125,0.19390869140625,-0.0508880615234375,1,0.94
2020-05-16 12:55:18.959 -0400,11828.039982125,0.71759033203125,0.2615966796875,-0.1194610595703125,1,0.94
2020-05-16 12:55:19.024 -0400,11828.104957125,0.643585205078125,0.3214569091796875,-0.051239013671875,1,0.94
2020-05-16 12:55:19.089 -0400,11828.169932125,0.679962158203125,0.3701171875,-0.0894317626953125,1,0.94
2020-05-16 12:55:19.154 -0400,11828.2349075,0.7213134765625,0.40350341796875,-0.165924072265625,1,0.94
2020-05-16 12:55:19.221 -0400,11828.2998835,0.951324462890625,0.35919189453125,-0.1767730712890625,1,0.94
2020-05-16 12:55:19.285 -0400,11828.3648585,1.273544311523438,0.34869384765625,-0.0894775390625,1,0.94
2020-05-16 12:55:19.349 -0400,11828.4298335,1.536605834960938,0.3078765869140625,-0.068817138671875,1,0.94
2020-05-16 12:55:19.414 -0400,11828.4948085,1.495834350585938,0.2404022216796875,-0.0659942626953125,1,0.94
2020-05-16 12:55:19.479 -0400,11828.5597835,1.013641357421875,-0.0213775634765625,-0.2440338134765625,1,0.94
2020-05-16 12:55:19.544 -0400,11828.6247595,1.010391235351562,0.2348785400390625,-0.036590576171875,1,0.94
2020-05-16 12:55:19.609 -0400,11828.6897345,1.000381469726562,0.3465423583984375,-0.0200653076171875,1,0.94
2020-05-16 12:55:19.673 -0400,11828.7547095,0.87371826171875,0.30145263671875,-0.0028839111328125,1,0.94
2020-05-16 12:55:19.739 -0400,11828.8196845,0.7026519775390625,0.1812896728515625,-0.016021728515625,1,0.94
2020-05-16 12:55:19.804 -0400,11828.8846605,0.8081817626953125,0.2249298095703125,0.0489501953125,1,0.94
2020-05-16 12:55:19.869 -0400,11828.9496355,0.896820068359375,0.237091064453125,0.0329437255859375,1,0.94
2020-05-16 12:55:19.934 -0400,11829.0146105,0.7389068603515625,0.2533111572265625,-0.072021484375,1,0.94
2020-05-16 12:55:19.999 -0400,11829.0795855,0.7091217041015625,0.3334808349609375,-0.06329345703125,1,0.94
2020-05-16 12:55:20.064 -0400,11829.1445605,1.27618408203125,0.8534698486328125,-0.0980377197265625,1,0.94
2020-05-16 12:55:20.129 -0400,11829.2095365,1.601577758789062,0.780242919921875,-0.056243896484375,1,0.94
2020-05-16 12:55:20.193 -0400,11829.2745115,1.262603759765625,0.724456787109375,-0.2545013427734375,1,0.94
2020-05-16 12:55:20.259 -0400,11829.3394865,1.058853149414062,-0.297576904296875,0.2062530517578125,1,0.94
2020-05-16 12:55:20.323 -0400,11829.4044615,0.5887451171875,-0.2479705810546875,0.306060791015625,1,0.94
2020-05-16 12:55:20.389 -0400,11829.4694375,0.53546142578125,0.0174102783203125,0.0876922607421875,1,0.94
2020-05-16 12:55:20.453 -0400,11829.5344125,0.94464111328125,0.0435791015625,-0.14007568359375,1,0.94
2020-05-16 12:55:20.519 -0400,11829.5993875,0.809295654296875,-0.009490966796875,-0.0297698974609375,1,0.94
2020-05-16 12:55:20.583 -0400,11829.6643625,0.8088836669921875,0.0213775634765625,-0.138427734375,1,0.94
2020-05-16 12:55:20.648 -0400,11829.7293375,0.6848297119140625,0.3551788330078125,-0.187347412109375,1,0.94
2020-05-16 12:55:20.713 -0400,11829.7943135,0.7438812255859375,0.3510284423828125,-0.1565704345703125,1,0.94
2020-05-16 12:55:20.779 -0400,11829.8592885,0.7915802001953125,0.4217987060546875,-0.09344482421875,1,0.94
2020-05-16 12:55:20.843 -0400,11829.9242635,0.91949462890625,0.51531982421875,0.03167724609375,1,0.94
2020-05-16 12:55:20.908 -0400,11829.9892385,1.40057373046875,0.655029296875,0.1728363037109375,1,0.94
2020-05-16 12:55:20.973 -0400,11830.0542145,1.529876708984375,0.633453369140625,0.355072021484375,1,0.94
2020-05-16 12:55:21.038 -0400,11830.1191895,1.216339111328125,0.3576507568359375,0.344879150390625,1,0.94
2020-05-16 12:55:21.103 -0400,11830.1841645,0.8749542236328125,0.2541961669921875,0.3603668212890625,1,0.94
2020-05-16 12:55:21.168 -0400,11830.24913966667,0.674041748046875,0.225067138671875,0.381988525390625,1,0.94
2020-05-16 12:55:21.245 -0400,11830.31411466667,0.562408447265625,0.284698486328125,0.23504638671875,1,0.94
2020-05-16 12:55:21.298 -0400,11830.37909066667,0.520172119140625,0.3355560302734375,0.171051025390625,1,0.94
2020-05-16 12:55:21.363 -0400,11830.44406566667,0.7412567138671875,0.39837646484375,0.1008453369140625,1,0.94
2020-05-16 12:55:21.428 -0400,11830.50904066667,0.846038818359375,0.4217376708984375,-0.02362060546875,1,0.94
2020-05-16 12:55:21.493 -0400,11830.57401566667,0.887359619140625,0.371673583984375,-0.0794830322265625,1,0.94
2020-05-16 12:55:21.558 -0400,11830.63899066667,1.010467529296875,0.4223785400390625,-0.20623779296875,1,0.94
2020-05-16 12:55:21.623 -0400,11830.70396666667,1.0450439453125,0.468780517578125,-0.302490234375,1,0.94
2020-05-16 12:55:21.688 -0400,11830.76894166667,1.000045776367188,0.3780670166015625,-0.345428466796875,1,0.94
2020-05-16 12:55:21.753 -0400,11830.83391666667,1.063629150390625,0.27197265625,-0.2467498779296875,1,0.94
2020-05-16 12:55:21.818 -0400,11830.89889166667,1.110931396484375,0.303619384765625,-0.176055908203125,1,0.94
2020-05-16 12:55:21.883 -0400,11830.96386766667,1.5565185546875,0.393341064453125,0.071197509765625,1,0.94
2020-05-16 12:55:21.948 -0400,11831.02884266667,1.190994262695312,0.4127655029296875,0.0638580322265625,1,0.94
2020-05-16 12:55:22.013 -0400,11831.09381766667,0.9865875244140625,0.247039794921875,0.094390869140625,1,0.94
2020-05-16 12:55:22.078 -0400,11831.15879266667,0.8253631591796875,0.1225433349609375,0.0646820068359375,1,0.94
2020-05-16 12:55:22.143 -0400,11831.22376766667,0.73175048828125,0.132598876953125,-0.0111083984375,1,0.94
2020-05-16 12:55:22.208 -0400,11831.288743,0.7342376708984375,0.25634765625,-0.1077728271484375,1,0.94
2020-05-16 12:55:22.273 -0400,11831.353718,0.8148956298828125,0.304443359375,-0.2006072998046875,1,0.94
2020-05-16 12:55:22.338 -0400,11831.418693,0.728973388671875,0.2181243896484375,-0.168182373046875,1,0.94
2020-05-16 12:55:22.403 -0400,11831.483668,0.695709228515625,0.273773193359375,-0.249298095703125,1,0.94
2020-05-16 12:55:22.468 -0400,11831.548643,0.7084503173828125,0.2782745361328125,-0.2389373779296875,1,0.94
2020-05-16 12:55:22.533 -0400,11831.613619,0.8484344482421875,0.3802032470703125,-0.2981414794921875,1,0.94
2020-05-16 12:55:22.598 -0400,11831.678594,0.959869384765625,0.353729248046875,-0.292236328125,1,0.94
2020-05-16 12:55:22.663 -0400,11831.743569,0.99224853515625,0.3133697509765625,-0.300872802734375,1,0.94
2020-05-16 12:55:22.728 -0400,11831.808544,1.140365600585938,0.2967376708984375,-0.275543212890625,1,0.94
2020-05-16 12:55:22.792 -0400,11831.87352,1.27001953125,0.30511474609375,-0.2371978759765625,1,0.94
2020-05-16 12:55:22.858 -0400,11831.938495,1.174209594726562,0.4446258544921875,-0.196868896484375,1,0.94
2020-05-16 12:55:22.922 -0400,11832.00347,1.12261962890625,0.4507904052734375,0.006011962890625,1,0.94
2020-05-16 12:55:22.988 -0400,11832.068445,1.3365478515625,0.360626220703125,0.0741729736328125,1,0.94
2020-05-16 12:55:23.053 -0400,11832.13342,1.172592163085938,0.3394927978515625,0.0654449462890625,1,0.94
2020-05-16 12:55:23.117 -0400,11832.198396,0.925750732421875,0.3993988037109375,0.0122222900390625,1,0.94
2020-05-16 12:55:23.182 -0400,11832.26337104167,0.6500701904296875,0.3521881103515625,-0.01416015625,1,0.94
2020-05-16 12:55:23.248 -0400,11832.32834604167,0.5078582763671875,0.3387908935546875,-0.046875,1,0.94
2020-05-16 12:55:23.312 -0400,11832.39332104167,0.4768829345703125,0.4471282958984375,-0.1158447265625,1,0.94
2020-05-16 12:55:23.377 -0400,11832.45829704167,0.5422515869140625,0.4517669677734375,-0.1476898193359375,1,0.94
2020-05-16 12:55:23.442 -0400,11832.52327204167,0.65576171875,0.586212158203125,-0.272552490234375,1,0.94
2020-05-16 12:55:23.507 -0400,11832.58824704167,0.7528533935546875,0.7893829345703125,-0.4429473876953125,1,0.94
2020-05-16 12:55:23.572 -0400,11832.65322204167,0.671539306640625,0.950958251953125,-0.524078369140625,1,0.94
2020-05-16 12:55:23.637 -0400,11832.71819704167,0.4250946044921875,0.6580657958984375,-0.524749755859375,1,0.94
2020-05-16 12:55:23.702 -0400,11832.78317304167,0.918792724609375,0.97772216796875,-0.5190887451171875,1,0.94
2020-05-16 12:55:23.767 -0400,11832.84814804167,1.133773803710938,0.9531402587890625,-0.6072540283203125,1,0.94
2020-05-16 12:55:23.832 -0400,11832.91312304167,0.96063232421875,0.3864593505859375,-0.5331268310546875,1,0.94
2020-05-16 12:55:23.897 -0400,11832.97809804167,0.8317108154296875,0.194915771484375,-0.484893798828125,1,0.94
2020-05-16 12:55:23.962 -0400,11833.04307304167,0.6633758544921875,0.1564483642578125,-0.597412109375,1,0.94
2020-05-16 12:55:24.027 -0400,11833.10804904167,0.6049346923828125,0.1671600341796875,-0.6689605712890625,1,0.94
2020-05-16 12:55:24.092 -0400,11833.17302404167,0.6511993408203125,0.1979217529296875,-0.7297210693359375,1,0.94
2020-05-16 12:55:24.157 -0400,11833.237999,0.57012939453125,0.1342315673828125,-0.6966705322265625,1,0.94
2020-05-16 12:55:24.222 -0400,11833.302974,0.457855224609375,0.024505615234375,-0.63671875,1,0.94
2020-05-16 12:55:24.287 -0400,11833.36795,0.458770751953125,-0.045257568359375,-0.80694580078125,1,0.94
2020-05-16 12:55:24.352 -0400,11833.432925,0.40142822265625,-0.2028350830078125,-0.6430816650390625,1,0.94
2020-05-16 12:55:24.434 -0400,11833.4979,0.3411102294921875,-0.2337646484375,-0.7721099853515625,1,0.94
2020-05-16 12:55:24.505 -0400,11833.582868,0.2481536865234375,-0.186981201171875,-0.79473876953125,1,0.94
2020-05-16 12:55:24.572 -0400,11833.652841,0.2135467529296875,-0.2012176513671875,-0.871246337890625,1,0.94
2020-05-16 12:55:24.642 -0400,11833.722814,0.1782379150390625,-0.2509307861328125,-0.913848876953125,1,0.94
2020-05-16 12:55:24.712 -0400,11833.792788,0.1561279296875,-0.276153564453125,-0.9059600830078125,1,0.94
2020-05-16 12:55:24.782 -0400,11833.862761,0.1174468994140625,-0.2520599365234375,-0.9195404052734375,1,0.94
2020-05-16 12:55:24.852 -0400,11833.932734,0.133087158203125,-0.1255340576171875,-1.054275512695312,1,0.94
2020-05-16 12:55:24.922 -0400,11834.002708,0.0461273193359375,0.009979248046875,-1.225616455078125,1,0.94
2020-05-16 12:55:24.992 -0400,11834.072681,-0.020751953125,0.124114990234375,-1.235748291015625,1,0.94
2020-05-16 12:55:25.062 -0400,11834.142654,-0.070953369140625,0.086517333984375,-1.054855346679688,1,0.94
2020-05-16 12:55:25.132 -0400,11834.212627,-0.009735107421875,0.0503387451171875,-0.9286651611328125,1,0.94
2020-05-16 12:55:25.202 -0400,11834.28260175,-0.01983642578125,0.0295562744140625,-0.950103759765625,1,0.94
2020-05-16 12:55:25.272 -0400,11834.35257475,-0.0858001708984375,-0.062042236328125,-0.90283203125,1,0.94
