loggingTime(txt),loggingSample(N),locationTimestamp_since1970(s),locationLatitude(WGS84),locationLongitude(WGS84),locationAltitude(m),locationSpeed(m/s),locationCourse(°),locationVerticalAccuracy(m),locationHorizontalAccuracy(m),locationFloor(Z),accelerometerTimestamp_sinceReboot(s),accelerometerAccelerationX(G),accelerometerAccelerationY(G),accelerometerAccelerationZ(G),batteryState,batteryLevel,label
2019-10-22 14:41:05.630 -0400,1,1571769665.015492,33.99630913878215,-81.02930373250238,93.48367,1.293729,67.82456202383874,2.28707035712474,5.347321405559063,-9999,432339.592802625,0.0003814697265625,-0.036956787109375,-0.66607666015625,1,0.94,5
2019-10-22 14:41:05.645 -0400,2,1571769665.015492,33.99630913878215,-81.02930373250238,93.48367,1.293729,67.82456202383874,2.28707035712474,5.347321405559063,-9999,432339.632787625,-0.0250244140625,0.003082275390625,-0.62347412109375,1,0.94,5
2019-10-22 14:41:05.670 -0400,3,1571769665.015492,33.99630913878215,-81.02930373250238,93.48367,1.293729,67.82456202383874,2.28707035712474,5.347321405559063,-9999,432339.6727726251,0.016265869140625,-0.111419677734375,-0.6376800537109375,1,0.94,5
2019-10-22 14:41:05.710 -0400,4,1571769665.015492,33.99630913878215,-81.02930373250238,93.48367,1.293729,67.82456202383874,2.28707035712474,5.347321405559063,-9999,432339.712757625,0.0059814453125,-0.1141815185546875,-0.758758544921875,1,0.94,5
2019-10-22 14:41:05.750 -0400,5,1571769665.015492,33.99630913878215,-81.02930373250238,93.48367,1.293729,67.82456202383874,2.28707035712474,5.347321405559063,-9999,432339.752742625,-0.0431671142578125,-0.0329437255859375,-0.9274749755859375,1,0.94,5
2019-10-22 14:41:05.790 -0400,6,1571769665.015492,33.99630913878215,-81.02930373250238,93.48367,1.293729,67.82456202383874,2.28707035712474,5.347321405559063,-9999,432339.792727625,-0.045684814453125,0.0677947998046875,-1.097427368164062,1,0.94,5
2019-10-22 14:41:05.830 -0400,7,1571769665.015492,33.99630913878215,-81.02930373250238,93.48367,1.293729,67.82456202383874,2.28707035712474,5.347321405559063,-9999,432339.832713625,-0.0147552490234375,0.056854248046875,-1.1407470703125,1,0.94,5
2019-10-22 14:41:05.870 -0400,8,1571769665.015492,33.99630913878215,-81.02930373250238,93.48367,1.293729,67.82456202383874,2.28707035712474,5.347321405559063,-9999,432339.872698625,0.288665771484375,0.1572113037109375,-1.077651977539062,1,0.94,5
2019-10-22 14:41:05.910 -0400,9,1571769665.015492,33.99630913878215,-81.02930373250238,93.48367,1.293729,67.82456202383874,2.28707035712474,5.347321405559063,-9999,432339.912683625,0.0191497802734375,0.3010101318359375,-0.8468475341796875,1,0.94,5
2019-10-22 14:41:05.950 -0400,10,1571769665.015492,33.99630913878215,-81.02930373250238,93.48367,1.293729,67.82456202383874,2.28707035712474,5.347321405559063,-9999,432339.952668625,0.1232147216796875,0.319183349609375,-0.8495941162109375,1,0.94,5
2019-10-22 14:41:05.990 -0400,11,1571769665.015492,33.99630913878215,-81.02930373250238,93.48367,1.293729,67.82456202383874,2.28707035712474,5.347321405559063,-9999,432339.992653625,0.2895660400390625,0.268280029296875,-0.712738037109375,1,0.94,5
2019-10-22 14:41:06.030 -0400,12,1571769665.015492,33.99630913878215,-81.02930373250238,93.48367,1.293729,67.82456202383874,2.28707035712474,5.347321405559063,-9999,432340.032638625,0.5261077880859375,0.3352813720703125,-0.644073486328125,1,0.94,5
2019-10-22 14:41:06.070 -0400,13,1571769665.015492,33.99630913878215,-81.02930373250238,93.48367,1.293729,67.82456202383874,2.28707035712474,5.347321405559063,-9999,432340.072623625,0.5223388671875,0.23699951171875,-0.5571136474609375,1,0.94,5
2019-10-22 14:41:06.110 -0400,14,1571769665.015492,33.99630913878215,-81.02930373250238,93.48367,1.293729,67.82456202383874,2.28707035712474,5.347321405559063,-9999,432340.112608625,0.4889984130859375,0.34405517578125,-0.6227874755859375,1,0.94,5
2019-10-22 14:41:06.149 -0400,15,1571769665.015492,33.99630913878215,-81.02930373250238,93.48367,1.293729,67.82456202383874,2.28707035712474,5.347321405559063,-9999,432340.152593625,0.472869873046875,0.33624267578125,-0.600128173828125,1,0.94,5
2019-10-22 14:41:06.190 -0400,16,1571769665.015492,33.99630913878215,-81.02930373250238,93.48367,1.293729,67.82456202383874,2.28707035712474,5.347321405559063,-9999,432340.1925786251,0.5308837890625,0.3862762451171875,-0.6040496826171875,1,0.94,5
2019-10-22 14:41:06.230 -0400,17,1571769665.015492,33.99630913878215,-81.02930373250238,93.48367,1.293729,67.82456202383874,2.28707035712474,5.347321405559063,-9999,432340.232563625,0.7255096435546875,0.5170745849609375,-0.622100830078125,1,0.94,5
2019-10-22 14:41:06.270 -0400,18,1571769666.015491,33.99631335495029,-81.02928551685535,93.4366,1.446333,69.27231358689376,2.290657982055705,5.374878636150728,-9999,432340.272548625,1.125198364257812,0.7000732421875,-0.665985107421875,1,0.94,5
2019-10-22 14:41:06.310 -0400,19,1571769666.015491,33.99631335495029,-81.02928551685535,93.4366,1.446333,69.27231358689376,2.290657982055705,5.374878636150728,-9999,432340.3125336251,1.35638427734375,0.74932861328125,-0.4907989501953125,1,0.94,5
2019-10-22 14:41:06.350 -0400,20,1571769666.015491,33.99631335495029,-81.02928551685535,93.4366,1.446333,69.27231358689376,2.290657982055705,5.374878636150728,-9999,432340.352518625,1.5928955078125,0.83587646484375,-0.3708648681640625,1,0.94,5
2019-10-22 14:41:06.390 -0400,21,1571769666.015491,33.99631335495029,-81.02928551685535,93.4366,1.446333,69.27231358689376,2.290657982055705,5.374878636150728,-9999,432340.392503625,1.097427368164062,0.6263427734375,-0.2061767578125,1,0.94,5
2019-10-22 14:41:06.430 -0400,22,1571769666.015491,33.99631335495029,-81.02928551685535,93.4366,1.446333,69.27231358689376,2.290657982055705,5.374878636150728,-9999,432340.4324886251,1.194717407226562,0.665283203125,-0.198944091796875,1,0.94,5
2019-10-22 14:41:06.470 -0400,23,1571769666.015491,33.99631335495029,-81.02928551685535,93.4366,1.446333,69.27231358689376,2.290657982055705,5.374878636150728,-9999,432340.472473625,1.13970947265625,0.69732666015625,-0.1546478271484375,1,0.94,5
2019-10-22 14:41:06.510 -0400,24,1571769666.015491,33.99631335495029,-81.02928551685535,93.4366,1.446333,69.27231358689376,2.290657982055705,5.374878636150728,-9999,432340.5124592501,0.711761474609375,0.512054443359375,-0.060333251953125,1,0.94,5
2019-10-22 14:41:06.550 -0400,25,1571769666.015491,33.99631335495029,-81.02928551685535,93.4366,1.446333,69.27231358689376,2.290657982055705,5.374878636150728,-9999,432340.55244425,0.395416259765625,0.4153594970703125,-0.175567626953125,1,0.94,5
2019-10-22 14:41:06.590 -0400,26,1571769666.015491,33.99631335495029,-81.02928551685535,93.4366,1.446333,69.27231358689376,2.290657982055705,5.374878636150728,-9999,432340.59242925,0.31549072265625,0.4172515869140625,-0.1501617431640625,1,0.94,5
2019-10-22 14:41:06.646 -0400,27,1571769666.015491,33.99631335495029,-81.02928551685535,93.4366,1.446333,69.27231358689376,2.290657982055705,5.374878636150728,-9999,432340.6324142501,0.36865234375,0.34228515625,-0.164276123046875,1,0.94,5
2019-10-22 14:41:06.670 -0400,28,1571769666.015491,33.99631335495029,-81.02928551685535,93.4366,1.446333,69.27231358689376,2.290657982055705,5.374878636150728,-9999,432340.67239925,0.6227569580078125,0.3506317138671875,-0.214111328125,1,0.94,5
2019-10-22 14:41:06.710 -0400,29,1571769666.015491,33.99631335495029,-81.02928551685535,93.4366,1.446333,69.27231358689376,2.290657982055705,5.374878636150728,-9999,432340.71238425,0.874786376953125,0.3815460205078125,-0.21002197265625,1,0.94,5
2019-10-22 14:41:06.749 -0400,30,1571769666.015491,33.99631335495029,-81.02928551685535,93.4366,1.446333,69.27231358689376,2.290657982055705,5.374878636150728,-9999,432340.7523692501,1.033172607421875,0.3927001953125,-0.2075653076171875,1,0.94,5
2019-10-22 14:41:06.790 -0400,31,1571769666.015491,33.99631335495029,-81.02928551685535,93.4366,1.446333,69.27231358689376,2.290657982055705,5.374878636150728,-9999,432340.79235425,1.192962646484375,0.504302978515625,-0.309600830078125,1,0.94,5
2019-10-22 14:41:06.830 -0400,32,1571769666.015491,33.99631335495029,-81.02928551685535,93.4366,1.446333,69.27231358689376,2.290657982055705,5.374878636150728,-9999,432340.83233925,1.819747924804688,0.7862548828125,-0.3575286865234375,1,0.94,5
2019-10-22 14:41:06.869 -0400,33,1571769666.015491,33.99631335495029,-81.02928551685535,93.4366,1.446333,69.27231358689376,2.290657982055705,5.374878636150728,-9999,432340.87232425,1.093093872070312,0.5059051513671875,-0.2006378173828125,1,0.94,5
2019-10-22 14:41:06.909 -0400,34,1571769666.015491,33.99631335495029,-81.02928551685535,93.4366,1.446333,69.27231358689376,2.290657982055705,5.374878636150728,-9999,432340.91230925,1.402099609375,0.63323974609375,-0.2160186767578125,1,0.94,5
2019-10-22 14:41:06.949 -0400,35,1571769666.015491,33.99631335495029,-81.02928551685535,93.4366,1.446333,69.27231358689376,2.290657982055705,5.374878636150728,-9999,432340.95229425,1.211715698242188,0.51873779296875,-0.130157470703125,1,0.94,5
2019-10-22 14:41:06.995 -0400,36,1571769666.015491,33.99631335495029,-81.02928551685535,93.4366,1.446333,69.27231358689376,2.290657982055705,5.374878636150728,-9999,432340.99227925,0.9493408203125,0.3360137939453125,-0.1167755126953125,1,0.94,5
2019-10-22 14:41:07.031 -0400,37,1571769666.015491,33.99631335495029,-81.02928551685535,93.4366,1.446333,69.27231358689376,2.290657982055705,5.374878636150728,-9999,432341.03226425,0.6262359619140625,0.2957916259765625,-0.1002197265625,1,0.94,5
2019-10-22 14:41:07.070 -0400,38,1571769666.015491,33.99631335495029,-81.02928551685535,93.4366,1.446333,69.27231358689376,2.290657982055705,5.374878636150728,-9999,432341.07224925,0.5001678466796875,0.3780670166015625,-0.0886077880859375,1,0.94,5
2019-10-22 14:41:07.110 -0400,39,1571769666.015491,33.99631335495029,-81.02928551685535,93.4366,1.446333,69.27231358689376,2.290657982055705,5.374878636150728,-9999,432341.11223425,0.5384521484375,0.3922119140625,-0.0614471435546875,1,0.94,5
2019-10-22 14:41:07.258 -0400,40,1571769667.015491,33.99631125388255,-81.02926945466854,93.06424,1.539461,77.31100239358621,2.428618549555994,5.284538671780289,-9999,432341.15221925,0.8216705322265625,0.4237518310546875,-0.1089935302734375,1,0.94,5
2019-10-22 14:41:07.292 -0400,41,1571769667.015491,33.99631125388255,-81.02926945466854,93.06424,1.539461,77.31100239358621,2.428618549555994,5.284538671780289,-9999,432341.19220425,1.176284790039062,0.3856658935546875,-0.0832366943359375,1,0.94,5
2019-10-22 14:41:07.296 -0400,42,1571769667.015491,33.99631125388255,-81.02926945466854,93.06424,1.539461,77.31100239358621,2.428618549555994,5.284538671780289,-9999,432341.23218925,1.359420776367188,0.307342529296875,-0.05889892578125,1,0.94,5
2019-10-22 14:41:07.297 -0400,43,1571769667.015491,33.99631125388255,-81.02926945466854,93.06424,1.539461,77.31100239358621,2.428618549555994,5.284538671780289,-9999,432341.2721752501,1.208511352539062,0.255126953125,-0.0687255859375,1,0.94,5
2019-10-22 14:41:07.309 -0400,44,1571769667.015491,33.99631125388255,-81.02926945466854,93.06424,1.539461,77.31100239358621,2.428618549555994,5.284538671780289,-9999,432341.31216025,1.25311279296875,0.3537445068359375,-0.0001678466796875,1,0.94,5
2019-10-22 14:41:07.349 -0400,45,1571769667.015491,33.99631125388255,-81.02926945466854,93.06424,1.539461,77.31100239358621,2.428618549555994,5.284538671780289,-9999,432341.35214525,0.7984771728515625,0.3590087890625,-0.1305999755859375,1,0.94,5
2019-10-22 14:41:07.389 -0400,46,1571769667.015491,33.99631125388255,-81.02926945466854,93.06424,1.539461,77.31100239358621,2.428618549555994,5.284538671780289,-9999,432341.3921302501,1.233261108398438,0.4954071044921875,-0.20745849609375,1,0.94,5
2019-10-22 14:41:07.429 -0400,47,1571769667.015491,33.99631125388255,-81.02926945466854,93.06424,1.539461,77.31100239358621,2.428618549555994,5.284538671780289,-9999,432341.43211525,1.163330078125,0.3610382080078125,-0.12457275390625,1,0.94,5
2019-10-22 14:41:07.469 -0400,48,1571769667.015491,33.99631125388255,-81.02926945466854,93.06424,1.539461,77.31100239358621,2.428618549555994,5.284538671780289,-9999,432341.47210025,0.814208984375,0.420440673828125,-0.122406005859375,1,0.94,5
2019-10-22 14:41:07.509 -0400,49,1571769667.015491,33.99631125388255,-81.02926945466854,93.06424,1.539461,77.31100239358621,2.428618549555994,5.284538671780289,-9999,432341.5120855,0.5364227294921875,0.280120849609375,-0.25677490234375,1,0.94,5
2019-10-22 14:41:07.549 -0400,50,1571769667.015491,33.99631125388255,-81.02926945466854,93.06424,1.539461,77.31100239358621,2.428618549555994,5.284538671780289,-9999,432341.5520705,0.4670257568359375,0.3571929931640625,-0.2624359130859375,1,0.94,5
2019-10-22 14:41:07.589 -0400,51,1571769667.015491,33.99631125388255,-81.02926945466854,93.06424,1.539461,77.31100239358621,2.428618549555994,5.284538671780289,-9999,432341.5920555,0.5392303466796875,0.284912109375,-0.2380523681640625,1,0.94,5
2019-10-22 14:41:07.629 -0400,52,1571769667.015491,33.99631125388255,-81.02926945466854,93.06424,1.539461,77.31100239358621,2.428618549555994,5.284538671780289,-9999,432341.6320405,0.77899169921875,0.38507080078125,-0.400360107421875,1,0.94,5
2019-10-22 14:41:07.669 -0400,53,1571769667.015491,33.99631125388255,-81.02926945466854,93.06424,1.539461,77.31100239358621,2.428618549555994,5.284538671780289,-9999,432341.6720255,0.971527099609375,0.361907958984375,-0.4615325927734375,1,0.94,5
2019-10-22 14:41:07.713 -0400,54,1571769667.015491,33.99631125388255,-81.02926945466854,93.06424,1.539461,77.31100239358621,2.428618549555994,5.284538671780289,-9999,432341.7120105,1.0345458984375,0.3951873779296875,-0.4860992431640625,1,0.94,5
2019-10-22 14:41:07.749 -0400,55,1571769667.015491,33.99631125388255,-81.02926945466854,93.06424,1.539461,77.31100239358621,2.428618549555994,5.284538671780289,-9999,432341.7519955,1.131805419921875,0.5008087158203125,-0.5257568359375,1,0.94,5
2019-10-22 14:41:07.788 -0400,56,1571769667.015491,33.99631125388255,-81.02926945466854,93.06424,1.539461,77.31100239358621,2.428618549555994,5.284538671780289,-9999,432341.7919805,1.435272216796875,0.650604248046875,-0.5256195068359375,1,0.94,5
2019-10-22 14:41:07.828 -0400,57,1571769667.015491,33.99631125388255,-81.02926945466854,93.06424,1.539461,77.31100239358621,2.428618549555994,5.284538671780289,-9999,432341.8319655,1.10400390625,0.5861053466796875,-0.4521484375,1,0.94,5
2019-10-22 14:41:07.869 -0400,58,1571769667.015491,33.99631125388255,-81.02926945466854,93.06424,1.539461,77.31100239358621,2.428618549555994,5.284538671780289,-9999,432341.8719505,1.507415771484375,0.4736175537109375,-0.2687225341796875,1,0.94,5
2019-10-22 14:41:07.927 -0400,59,1571769667.015491,33.99631125388255,-81.02926945466854,93.06424,1.539461,77.31100239358621,2.428618549555994,5.284538671780289,-9999,432341.9119355,1.389907836914062,0.5268402099609375,-0.158599853515625,1,0.94,5
2019-10-22 14:41:07.949 -0400,60,1571769667.015491,33.99631125388255,-81.02926945466854,93.06424,1.539461,77.31100239358621,2.428618549555994,5.284538671780289,-9999,432341.9519205,1.241363525390625,0.3807220458984375,-0.169342041015625,1,0.94,5
2019-10-22 14:41:07.991 -0400,61,1571769667.015491,33.99631125388255,-81.02926945466854,93.06424,1.539461,77.31100239358621,2.428618549555994,5.284538671780289,-9999,432341.9919055,0.9386749267578125,0.3426666259765625,-0.1701812744140625,1,0.94,5
2019-10-22 14:41:08.542 -0400,62,1571769668.015491,33.99630415556864,-81.02925491354937,92.48222,1.733105,79.60380029419508,2.788790756694325,5.103644104771131,-9999,432342.0318905,0.720947265625,0.371246337890625,-0.1254425048828125,1,0.94,5
2019-10-22 14:41:08.544 -0400,63,1571769668.015491,33.99630415556864,-81.02925491354937,92.48222,1.733105,79.60380029419508,2.788790756694325,5.103644104771131,-9999,432342.0718755,0.674072265625,0.3761138916015625,-0.058197021484375,1,0.94,5
2019-10-22 14:41:08.546 -0400,64,1571769668.015491,33.99630415556864,-81.02925491354937,92.48222,1.733105,79.60380029419508,2.788790756694325,5.103644104771131,-9999,432342.1118605,0.69915771484375,0.3507537841796875,-0.0448150634765625,1,0.94,5
2019-10-22 14:41:08.547 -0400,65,1571769668.015491,33.99630415556864,-81.02925491354937,92.48222,1.733105,79.60380029419508,2.788790756694325,5.103644104771131,-9999,432342.1518455,0.7672119140625,0.283905029296875,-0.0572052001953125,1,0.94,5
2019-10-22 14:41:08.548 -0400,66,1571769668.015491,33.99630415556864,-81.02925491354937,92.48222,1.733105,79.60380029419508,2.788790756694325,5.103644104771131,-9999,432342.1918305,0.886077880859375,0.2733306884765625,-0.07037353515625,1,0.94,5
2019-10-22 14:41:08.550 -0400,67,1571769668.015491,33.99630415556864,-81.02925491354937,92.48222,1.733105,79.60380029419508,2.788790756694325,5.103644104771131,-9999,432342.2318155,1.065826416015625,0.294036865234375,-0.1017913818359375,1,0.94,5
2019-10-22 14:41:08.551 -0400,68,1571769668.015491,33.99630415556864,-81.02925491354937,92.48222,1.733105,79.60380029419508,2.788790756694325,5.103644104771131,-9999,432342.2718005,1.037765502929688,0.2349853515625,-0.065887451171875,1,0.94,5
2019-10-22 14:41:08.552 -0400,69,1571769668.015491,33.99630415556864,-81.02925491354937,92.48222,1.733105,79.60380029419508,2.788790756694325,5.103644104771131,-9999,432342.3117855,1.310317993164062,0.3692779541015625,-0.0916595458984375,1,0.94,5
2019-10-22 14:41:08.553 -0400,70,1571769668.015491,33.99630415556864,-81.02925491354937,92.48222,1.733105,79.60380029419508,2.788790756694325,5.103644104771131,-9999,432342.3517705,0.9868927001953125,0.230224609375,-0.183135986328125,1,0.94,5
2019-10-22 14:41:08.554 -0400,71,1571769668.015491,33.99630415556864,-81.02925491354937,92.48222,1.733105,79.60380029419508,2.788790756694325,5.103644104771131,-9999,432342.3917555001,1.328781127929688,0.4586334228515625,-0.209259033203125,1,0.94,5
2019-10-22 14:41:08.555 -0400,72,1571769668.015491,33.99630415556864,-81.02925491354937,92.48222,1.733105,79.60380029419508,2.788790756694325,5.103644104771131,-9999,432342.4317405,1.362014770507812,0.32867431640625,-0.2138824462890625,1,0.94,5
2019-10-22 14:41:08.556 -0400,73,1571769668.015491,33.99630415556864,-81.02925491354937,92.48222,1.733105,79.60380029419508,2.788790756694325,5.103644104771131,-9999,432342.4717255,1.052536010742188,0.4141082763671875,-0.2472076416015625,1,0.94,5
2019-10-22 14:41:08.557 -0400,74,1571769668.015491,33.99630415556864,-81.02925491354937,92.48222,1.733105,79.60380029419508,2.788790756694325,5.103644104771131,-9999,432342.5117107917,0.834808349609375,0.2596893310546875,-0.251434326171875,1,0.94,5
2019-10-22 14:41:08.558 -0400,75,1571769668.015491,33.99630415556864,-81.02925491354937,92.48222,1.733105,79.60380029419508,2.788790756694325,5.103644104771131,-9999,432342.5516957917,0.7498779296875,0.4255828857421875,-0.1953277587890625,1,0.94,5
2019-10-22 14:41:08.588 -0400,76,1571769668.015491,33.99630415556864,-81.02925491354937,92.48222,1.733105,79.60380029419508,2.788790756694325,5.103644104771131,-9999,432342.5916817917,0.79461669921875,0.5233917236328125,-0.22296142578125,1,0.94,5
2019-10-22 14:41:08.628 -0400,77,1571769668.015491,33.99630415556864,-81.02925491354937,92.48222,1.733105,79.60380029419508,2.788790756694325,5.103644104771131,-9999,432342.6316667917,0.935577392578125,0.6384124755859375,-0.310089111328125,1,0.94,5
2019-10-22 14:41:08.671 -0400,78,1571769668.015491,33.99630415556864,-81.02925491354937,92.48222,1.733105,79.60380029419508,2.788790756694325,5.103644104771131,-9999,432342.6716517917,1.035308837890625,0.61846923828125,-0.3254547119140625,1,0.94,5
2019-10-22 14:41:08.708 -0400,79,1571769668.015491,33.99630415556864,-81.02925491354937,92.48222,1.733105,79.60380029419508,2.788790756694325,5.103644104771131,-9999,432342.7116367917,1.148834228515625,0.6328277587890625,-0.3949127197265625,1,0.94,5
2019-10-22 14:41:08.748 -0400,80,1571769668.015491,33.99630415556864,-81.02925491354937,92.48222,1.733105,79.60380029419508,2.788790756694325,5.103644104771131,-9999,432342.7516217917,1.186447143554688,0.74530029296875,-0.4184417724609375,1,0.94,5
2019-10-22 14:41:08.788 -0400,81,1571769668.015491,33.99630415556864,-81.02925491354937,92.48222,1.733105,79.60380029419508,2.788790756694325,5.103644104771131,-9999,432342.7916067917,1.561172485351562,0.84027099609375,-0.479156494140625,1,0.94,5
2019-10-22 14:41:08.828 -0400,82,1571769668.015491,33.99630415556864,-81.02925491354937,92.48222,1.733105,79.60380029419508,2.788790756694325,5.103644104771131,-9999,432342.8315917917,0.767547607421875,0.5074005126953125,-0.43695068359375,1,0.94,5
2019-10-22 14:41:08.868 -0400,83,1571769668.015491,33.99630415556864,-81.02925491354937,92.48222,1.733105,79.60380029419508,2.788790756694325,5.103644104771131,-9999,432342.8715767917,1.496124267578125,0.6482696533203125,-0.368255615234375,1,0.94,5
2019-10-22 14:41:08.908 -0400,84,1571769668.015491,33.99630415556864,-81.02925491354937,92.48222,1.733105,79.60380029419508,2.788790756694325,5.103644104771131,-9999,432342.9115617917,1.618743896484375,0.3394622802734375,-0.052337646484375,1,0.94,5
2019-10-22 14:41:08.948 -0400,85,1571769668.015491,33.99630415556864,-81.02925491354937,92.48222,1.733105,79.60380029419508,2.788790756694325,5.103644104771131,-9999,432342.9515467917,1.256484985351562,0.195465087890625,-0.0970306396484375,1,0.94,5
2019-10-22 14:41:08.988 -0400,86,1571769668.015491,33.99630415556864,-81.02925491354937,92.48222,1.733105,79.60380029419508,2.788790756694325,5.103644104771131,-9999,432342.9915317917,0.984100341796875,0.1976470947265625,-0.1390533447265625,1,0.94,5
2019-10-22 14:41:09.029 -0400,87,1571769668.015491,33.99630415556864,-81.02925491354937,92.48222,1.733105,79.60380029419508,2.788790756694325,5.103644104771131,-9999,432343.0315167917,0.824493408203125,0.346527099609375,-0.138580322265625,1,0.94,5
2019-10-22 14:41:09.077 -0400,88,1571769668.015491,33.99630415556864,-81.02925491354937,92.48222,1.733105,79.60380029419508,2.788790756694325,5.103644104771131,-9999,432343.0715017917,0.8397369384765625,0.404632568359375,-0.0682525634765625,1,0.94,5
2019-10-22 14:41:09.108 -0400,89,1571769668.015491,33.99630415556864,-81.02925491354937,92.48222,1.733105,79.60380029419508,2.788790756694325,5.103644104771131,-9999,432343.1114867917,0.850189208984375,0.3669891357421875,-0.0002899169921875,1,0.94,5
2019-10-22 14:41:09.148 -0400,90,1571769668.015491,33.99630415556864,-81.02925491354937,92.48222,1.733105,79.60380029419508,2.788790756694325,5.103644104771131,-9999,432343.1514717917,0.9563140869140625,0.3125,-0.006103515625,1,0.94,5
2019-10-22 14:41:09.188 -0400,91,1571769668.015491,33.99630415556864,-81.02925491354937,92.48222,1.733105,79.60380029419508,2.788790756694325,5.103644104771131,-9999,432343.1914567917,1.09564208984375,0.2718353271484375,-0.006561279296875,1,0.94,5
2019-10-22 14:41:09.228 -0400,92,1571769668.015491,33.99630415556864,-81.02925491354937,92.48222,1.733105,79.60380029419508,2.788790756694325,5.103644104771131,-9999,432343.2314417917,1.134445190429688,0.17919921875,0.002838134765625,1,0.94,5
2019-10-22 14:41:09.268 -0400,93,1571769668.015491,33.99630415556864,-81.02925491354937,92.48222,1.733105,79.60380029419508,2.788790756694325,5.103644104771131,-9999,432343.2714267917,1.013671875,0.1216583251953125,-0.01324462890625,1,0.94,5
2019-10-22 14:41:09.308 -0400,94,1571769669.015298,33.99630228532802,-81.02923654532852,94.87536,1.589413,85.28071754709448,2.866198985948356,5.060577082283941,-9999,432343.3114117917,0.9993896484375,0.29327392578125,-0.04278564453125,1,0.94,5
2019-10-22 14:41:09.348 -0400,95,1571769669.015298,33.99630228532802,-81.02923654532852,94.87536,1.589413,85.28071754709448,2.866198985948356,5.060577082283941,-9999,432343.3513967917,0.9391632080078125,0.29364013671875,-0.1455230712890625,1,0.94,5
2019-10-22 14:41:09.388 -0400,96,1571769669.015298,33.99630228532802,-81.02923654532852,94.87536,1.589413,85.28071754709448,2.866198985948356,5.060577082283941,-9999,432343.3913817917,1.300506591796875,0.5202178955078125,-0.2261505126953125,1,0.94,5
2019-10-22 14:41:09.428 -0400,97,1571769669.015298,33.99630228532802,-81.02923654532852,94.87536,1.589413,85.28071754709448,2.866198985948356,5.060577082283941,-9999,432343.4313667917,1.382843017578125,0.467010498046875,-0.259185791015625,1,0.94,5
2019-10-22 14:41:09.468 -0400,98,1571769669.015298,33.99630228532802,-81.02923654532852,94.87536,1.589413,85.28071754709448,2.866198985948356,5.060577082283941,-9999,432343.4713517917,1.100921630859375,0.4209442138671875,-0.2669219970703125,1,0.94,5
2019-10-22 14:41:09.508 -0400,99,1571769669.015298,33.99630228532802,-81.02923654532852,94.87536,1.589413,85.28071754709448,2.866198985948356,5.060577082283941,-9999,432343.511337125,0.9611358642578125,0.2699737548828125,-0.244720458984375,1,0.94,5
2019-10-22 14:41:09.548 -0400,100,1571769669.015298,33.99630228532802,-81.02923654532852,94.87536,1.589413,85.28071754709448,2.866198985948356,5.060577082283941,-9999,432343.551322125,0.9286651611328125,0.42083740234375,-0.272430419921875,1,0.94,5
2019-10-22 14:41:09.588 -0400,101,1571769669.015298,33.99630228532802,-81.02923654532852,94.87536,1.589413,85.28071754709448,2.866198985948356,5.060577082283941,-9999,432343.5913071251,0.89471435546875,0.5843353271484375,-0.340576171875,1,0.94,5
2019-10-22 14:41:09.638 -0400,102,1571769669.015298,33.99630228532802,-81.02923654532852,94.87536,1.589413,85.28071754709448,2.866198985948356,5.060577082283941,-9999,432343.631292125,0.8964385986328125,0.64129638671875,-0.4313812255859375,1,0.94,5
2019-10-22 14:41:09.668 -0400,103,1571769669.015298,33.99630228532802,-81.02923654532852,94.87536,1.589413,85.28071754709448,2.866198985948356,5.060577082283941,-9999,432343.671277125,0.949951171875,0.58197021484375,-0.44140625,1,0.94,5
2019-10-22 14:41:09.708 -0400,104,1571769669.015298,33.99630228532802,-81.02923654532852,94.87536,1.589413,85.28071754709448,2.866198985948356,5.060577082283941,-9999,432343.711262125,1.038970947265625,0.5998992919921875,-0.425689697265625,1,0.94,5
2019-10-22 14:41:09.747 -0400,105,1571769669.015298,33.99630228532802,-81.02923654532852,94.87536,1.589413,85.28071754709448,2.866198985948356,5.060577082283941,-9999,432343.751247125,1.221878051757812,0.7361297607421875,-0.4376220703125,1,0.94,5
2019-10-22 14:41:09.787 -0400,106,1571769669.015298,33.99630228532802,-81.02923654532852,94.87536,1.589413,85.28071754709448,2.866198985948356,5.060577082283941,-9999,432343.791232125,1.519119262695312,0.798431396484375,-0.516815185546875,1,0.94,5
2019-10-22 14:41:09.827 -0400,107,1571769669.015298,33.99630228532802,-81.02923654532852,94.87536,1.589413,85.28071754709448,2.866198985948356,5.060577082283941,-9999,432343.831217125,1.006515502929688,0.4567108154296875,-0.422760009765625,1,0.94,5
2019-10-22 14:41:09.867 -0400,108,1571769669.015298,33.99630228532802,-81.02923654532852,94.87536,1.589413,85.28071754709448,2.866198985948356,5.060577082283941,-9999,432343.871202125,1.547531127929688,0.4712066650390625,-0.307647705078125,1,0.94,5
2019-10-22 14:41:09.907 -0400,109,1571769669.015298,33.99630228532802,-81.02923654532852,94.87536,1.589413,85.28071754709448,2.866198985948356,5.060577082283941,-9999,432343.911187125,1.496261596679688,0.2923736572265625,-0.118133544921875,1,0.94,5
2019-10-22 14:41:09.948 -0400,110,1571769669.015298,33.99630228532802,-81.02923654532852,94.87536,1.589413,85.28071754709448,2.866198985948356,5.060577082283941,-9999,432343.951172125,1.191375732421875,0.2640533447265625,-0.1317291259765625,1,0.94,5
2019-10-22 14:41:09.987 -0400,111,1571769669.015298,33.99630228532802,-81.02923654532852,94.87536,1.589413,85.28071754709448,2.866198985948356,5.060577082283941,-9999,432343.991158125,0.890472412109375,0.26788330078125,-0.1331634521484375,1,0.94,5
2019-10-22 14:41:10.028 -0400,112,1571769669.015298,33.99630228532802,-81.02923654532852,94.87536,1.589413,85.28071754709448,2.866198985948356,5.060577082283941,-9999,432344.031143125,0.780364990234375,0.3819122314453125,-0.1203460693359375,1,0.94,5
2019-10-22 14:41:10.084 -0400,113,1571769669.015298,33.99630228532802,-81.02923654532852,94.87536,1.589413,85.28071754709448,2.866198985948356,5.060577082283941,-9999,432344.071128125,0.7685394287109375,0.3627166748046875,-0.0568695068359375,1,0.94,5
2019-10-22 14:41:10.107 -0400,114,1571769669.015298,33.99630228532802,-81.02923654532852,94.87536,1.589413,85.28071754709448,2.866198985948356,5.060577082283941,-9999,432344.1111131251,0.7791595458984375,0.324462890625,0.002044677734375,1,0.94,5
2019-10-22 14:41:10.147 -0400,115,1571769669.015298,33.99630228532802,-81.02923654532852,94.87536,1.589413,85.28071754709448,2.866198985948356,5.060577082283941,-9999,432344.151098125,0.8546600341796875,0.2548980712890625,0.015289306640625,1,0.94,5
2019-10-22 14:41:10.187 -0400,116,1571769669.015298,33.99630228532802,-81.02923654532852,94.87536,1.589413,85.28071754709448,2.866198985948356,5.060577082283941,-9999,432344.191083125,1.03741455078125,0.236053466796875,-0.002899169921875,1,0.94,5
2019-10-22 14:41:10.227 -0400,117,1571769669.015298,33.99630228532802,-81.02923654532852,94.87536,1.589413,85.28071754709448,2.866198985948356,5.060577082283941,-9999,432344.2310681251,1.014389038085938,0.18292236328125,-0.0094451904296875,1,0.94,5
2019-10-22 14:41:10.267 -0400,118,1571769669.015298,33.99630228532802,-81.02923654532852,94.87536,1.589413,85.28071754709448,2.866198985948356,5.060577082283941,-9999,432344.271053125,1.061843872070312,0.2575531005859375,-0.0611114501953125,1,0.94,5
2019-10-22 14:41:10.307 -0400,119,1571769669.015298,33.99630228532802,-81.02923654532852,94.87536,1.589413,85.28071754709448,2.866198985948356,5.060577082283941,-9999,432344.311038125,1.07696533203125,0.3534698486328125,-0.095123291015625,1,0.94,5
2019-10-22 14:41:10.347 -0400,120,1571769670.015297,33.99630214809529,-81.02921788378973,94.00717,1.746911,86.92267408026578,2.878528067030415,5.053574299454494,-9999,432344.3510231251,1.10711669921875,0.39306640625,-0.226165771484375,1,0.94,5
2019-10-22 14:41:10.387 -0400,121,1571769670.015297,33.99630214809529,-81.02921788378973,94.00717,1.746911,86.92267408026578,2.878528067030415,5.053574299454494,-9999,432344.391008125,1.397476196289062,0.4859619140625,-0.41766357421875,1,0.94,5
2019-10-22 14:41:10.427 -0400,122,1571769670.015297,33.99630214809529,-81.02921788378973,94.00717,1.746911,86.92267408026578,2.878528067030415,5.053574299454494,-9999,432344.430993125,1.303695678710938,0.4220123291015625,-0.3983001708984375,1,0.94,5
2019-10-22 14:41:10.467 -0400,123,1571769670.015297,33.99630214809529,-81.02921788378973,94.00717,1.746911,86.92267408026578,2.878528067030415,5.053574299454494,-9999,432344.470978125,0.9074249267578125,0.2424468994140625,-0.2904205322265625,1,0.94,5
2019-10-22 14:41:10.507 -0400,124,1571769670.015297,33.99630214809529,-81.02921788378973,94.00717,1.746911,86.92267408026578,2.878528067030415,5.053574299454494,-9999,432344.51096375,0.82989501953125,0.2052154541015625,-0.337249755859375,1,0.94,5
2019-10-22 14:41:10.547 -0400,125,1571769670.015297,33.99630214809529,-81.02921788378973,94.00717,1.746911,86.92267408026578,2.878528067030415,5.053574299454494,-9999,432344.5509487501,0.7863006591796875,0.3604583740234375,-0.301025390625,1,0.94,5
2019-10-22 14:41:10.587 -0400,126,1571769670.015297,33.99630214809529,-81.02921788378973,94.00717,1.746911,86.92267408026578,2.878528067030415,5.053574299454494,-9999,432344.59093375,0.8297271728515625,0.6237945556640625,-0.332000732421875,1,0.94,5
2019-10-22 14:41:10.648 -0400,127,1571769670.015297,33.99630214809529,-81.02921788378973,94.00717,1.746911,86.92267408026578,2.878528067030415,5.053574299454494,-9999,432344.63091875,0.9307708740234375,0.742767333984375,-0.4154205322265625,1,0.94,5
2019-10-22 14:41:10.667 -0400,128,1571769670.015297,33.99630214809529,-81.02921788378973,94.00717,1.746911,86.92267408026578,2.878528067030415,5.053574299454494,-9999,432344.6709037501,0.96710205078125,0.587127685546875,-0.36541748046875,1,0.94,5
2019-10-22 14:41:10.707 -0400,129,1571769670.015297,33.99630214809529,-81.02921788378973,94.00717,1.746911,86.92267408026578,2.878528067030415,5.053574299454494,-9999,432344.71088875,1.123306274414062,0.555694580078125,-0.3937835693359375,1,0.94,5
2019-10-22 14:41:10.747 -0400,130,1571769670.015297,33.99630214809529,-81.02921788378973,94.00717,1.746911,86.92267408026578,2.878528067030415,5.053574299454494,-9999,432344.75087375,1.214019775390625,0.6711578369140625,-0.3780059814453125,1,0.94,5
2019-10-22 14:41:10.787 -0400,131,1571769670.015297,33.99630214809529,-81.02921788378973,94.00717,1.746911,86.92267408026578,2.878528067030415,5.053574299454494,-9999,432344.79085875,1.47021484375,0.7415618896484375,-0.4911346435546875,1,0.94,5
2019-10-22 14:41:10.827 -0400,132,1571769670.015297,33.99630214809529,-81.02921788378973,94.00717,1.746911,86.92267408026578,2.878528067030415,5.053574299454494,-9999,432344.83084375,0.9486846923828125,0.4670562744140625,-0.4512481689453125,1,0.94,5
2019-10-22 14:41:10.867 -0400,133,1571769670.015297,33.99630214809529,-81.02921788378973,94.00717,1.746911,86.92267408026578,2.878528067030415,5.053574299454494,-9999,432344.87082875,1.534439086914062,0.53759765625,-0.333282470703125,1,0.94,5
2019-10-22 14:41:10.907 -0400,134,1571769670.015297,33.99630214809529,-81.02921788378973,94.00717,1.746911,86.92267408026578,2.878528067030415,5.053574299454494,-9999,432344.91081375,1.405441284179688,0.3070068359375,-0.1394805908203125,1,0.94,5
2019-10-22 14:41:10.947 -0400,135,1571769670.015297,33.99630214809529,-81.02921788378973,94.00717,1.746911,86.92267408026578,2.878528067030415,5.053574299454494,-9999,432344.95079875,1.12750244140625,0.236419677734375,-0.208038330078125,1,0.94,5
2019-10-22 14:41:10.987 -0400,136,1571769670.015297,33.99630214809529,-81.02921788378973,94.00717,1.746911,86.92267408026578,2.878528067030415,5.053574299454494,-9999,432344.99078375,0.8924560546875,0.2543487548828125,-0.2159423828125,1,0.94,5
2019-10-22 14:41:11.029 -0400,137,1571769670.015297,33.99630214809529,-81.02921788378973,94.00717,1.746911,86.92267408026578,2.878528067030415,5.053574299454494,-9999,432345.03076875,0.7632904052734375,0.327239990234375,-0.154937744140625,1,0.94,5
2019-10-22 14:41:11.067 -0400,138,1571769670.015297,33.99630214809529,-81.02921788378973,94.00717,1.746911,86.92267408026578,2.878528067030415,5.053574299454494,-9999,432345.07075375,0.7217254638671875,0.31939697265625,-0.1003875732421875,1,0.94,5
2019-10-22 14:41:11.106 -0400,139,1571769670.015297,33.99630214809529,-81.02921788378973,94.00717,1.746911,86.92267408026578,2.878528067030415,5.053574299454494,-9999,432345.11073875,0.8105926513671875,0.3325042724609375,-0.0717315673828125,1,0.94,5
2019-10-22 14:41:11.147 -0400,140,1571769670.015297,33.99630214809529,-81.02921788378973,94.00717,1.746911,86.92267408026578,2.878528067030415,5.053574299454494,-9999,432345.15072375,0.8991851806640625,0.267913818359375,-0.050750732421875,1,0.94,5
2019-10-22 14:41:11.187 -0400,141,1571769670.015297,33.99630214809529,-81.02921788378973,94.00717,1.746911,86.92267408026578,2.878528067030415,5.053574299454494,-9999,432345.19070875,0.9924774169921875,0.237884521484375,-0.05780029296875,1,0.94,5
2019-10-22 14:41:11.227 -0400,142,1571769670.015297,33.99630214809529,-81.02921788378973,94.00717,1.746911,86.92267408026578,2.878528067030415,5.053574299454494,-9999,432345.23069375,1.038772583007812,0.2361297607421875,-0.0399627685546875,1,0.94,5
2019-10-22 14:41:11.267 -0400,143,1571769670.015297,33.99630214809529,-81.02921788378973,94.00717,1.746911,86.92267408026578,2.878528067030415,5.053574299454494,-9999,432345.27067875,1.083328247070312,0.3110809326171875,-0.0500640869140625,1,0.94,5
2019-10-22 14:41:11.321 -0400,144,1571769670.015297,33.99630214809529,-81.02921788378973,94.00717,1.746911,86.92267408026578,2.878528067030415,5.053574299454494,-9999,432345.31066375,0.9649658203125,0.3729248046875,-0.1123046875,1,0.94,5
2019-10-22 14:41:11.346 -0400,145,1571769671.015532,33.99630922442491,-81.0292041111701,93.61561,1.61605,78.96099786237919,2.90624695249023,5.037684555818287,-9999,432345.35064875,1.054443359375,0.392120361328125,-0.2140960693359375,1,0.94,5
2019-10-22 14:41:11.387 -0400,146,1571769671.015532,33.99630922442491,-81.0292041111701,93.61561,1.61605,78.96099786237919,2.90624695249023,5.037684555818287,-9999,432345.39063375,1.341812133789062,0.4107208251953125,-0.299041748046875,1,0.94,5
2019-10-22 14:41:11.426 -0400,147,1571769671.015532,33.99630922442491,-81.0292041111701,93.61561,1.61605,78.96099786237919,2.90624695249023,5.037684555818287,-9999,432345.43061875,1.216934204101562,0.4462432861328125,-0.3081817626953125,1,0.94,5
2019-10-22 14:41:11.466 -0400,148,1571769671.015532,33.99630922442491,-81.0292041111701,93.61561,1.61605,78.96099786237919,2.90624695249023,5.037684555818287,-9999,432345.47060375,0.8939361572265625,0.2639617919921875,-0.3220672607421875,1,0.94,5
2019-10-22 14:41:11.506 -0400,149,1571769671.015532,33.99630922442491,-81.0292041111701,93.61561,1.61605,78.96099786237919,2.90624695249023,5.037684555818287,-9999,432345.51058875,0.8206787109375,0.248809814453125,-0.303985595703125,1,0.94,5
2019-10-22 14:41:11.546 -0400,150,1571769671.015532,33.99630922442491,-81.0292041111701,93.61561,1.61605,78.96099786237919,2.90624695249023,5.037684555818287,-9999,432345.55057325,0.801483154296875,0.31475830078125,-0.2738037109375,1,0.94,5
2019-10-22 14:41:11.586 -0400,151,1571769671.015532,33.99630922442491,-81.0292041111701,93.61561,1.61605,78.96099786237919,2.90624695249023,5.037684555818287,-9999,432345.59055825,0.8966064453125,0.4561004638671875,-0.32659912109375,1,0.94,5
2019-10-22 14:41:11.626 -0400,152,1571769671.015532,33.99630922442491,-81.0292041111701,93.61561,1.61605,78.96099786237919,2.90624695249023,5.037684555818287,-9999,432345.63054325,0.998046875,0.58489990234375,-0.412841796875,1,0.94,5
2019-10-22 14:41:11.666 -0400,153,1571769671.015532,33.99630922442491,-81.0292041111701,93.61561,1.61605,78.96099786237919,2.90624695249023,5.037684555818287,-9999,432345.67052825,1.07537841796875,0.633453369140625,-0.4265594482421875,1,0.94,5
2019-10-22 14:41:11.706 -0400,154,1571769671.015532,33.99630922442491,-81.0292041111701,93.61561,1.61605,78.96099786237919,2.90624695249023,5.037684555818287,-9999,432345.71051325,1.190139770507812,0.6791534423828125,-0.4634857177734375,1,0.94,5
2019-10-22 14:41:11.746 -0400,155,1571769671.015532,33.99630922442491,-81.0292041111701,93.61561,1.61605,78.96099786237919,2.90624695249023,5.037684555818287,-9999,432345.75049825,1.294143676757812,0.7410430908203125,-0.42694091796875,1,0.94,5
2019-10-22 14:41:11.786 -0400,156,1571769671.015532,33.99630922442491,-81.0292041111701,93.61561,1.61605,78.96099786237919,2.90624695249023,5.037684555818287,-9999,432345.79048325,1.229736328125,0.68792724609375,-0.4453582763671875,1,0.94,5
2019-10-22 14:41:11.826 -0400,157,1571769671.015532,33.99630922442491,-81.0292041111701,93.61561,1.61605,78.96099786237919,2.90624695249023,5.037684555818287,-9999,432345.83046825,0.8092041015625,0.5255584716796875,-0.3753662109375,1,0.94,5
2019-10-22 14:41:11.866 -0400,158,1571769671.015532,33.99630922442491,-81.0292041111701,93.61561,1.61605,78.96099786237919,2.90624695249023,5.037684555818287,-9999,432345.87045325,1.443603515625,0.6946563720703125,-0.2651519775390625,1,0.94,5
2019-10-22 14:41:11.906 -0400,159,1571769671.015532,33.99630922442491,-81.0292041111701,93.61561,1.61605,78.96099786237919,2.90624695249023,5.037684555818287,-9999,432345.9104382501,1.4478759765625,0.42431640625,-0.1117095947265625,1,0.94,5
2019-10-22 14:41:11.946 -0400,160,1571769671.015532,33.99630922442491,-81.0292041111701,93.61561,1.61605,78.96099786237919,2.90624695249023,5.037684555818287,-9999,432345.95042325,1.203857421875,0.2489013671875,-0.1635589599609375,1,0.94,5
2019-10-22 14:41:11.986 -0400,161,1571769671.015532,33.99630922442491,-81.0292041111701,93.61561,1.61605,78.96099786237919,2.90624695249023,5.037684555818287,-9999,432345.99040825,1.015182495117188,0.20452880859375,-0.13751220703125,1,0.94,5
2019-10-22 14:41:12.026 -0400,162,1571769671.015532,33.99630922442491,-81.0292041111701,93.61561,1.61605,78.96099786237919,2.90624695249023,5.037684555818287,-9999,432346.0303932501,0.8988800048828125,0.3372802734375,-0.0852508544921875,1,0.94,5
2019-10-22 14:41:12.072 -0400,163,1571769671.015532,33.99630922442491,-81.0292041111701,93.61561,1.61605,78.96099786237919,2.90624695249023,5.037684555818287,-9999,432346.07037825,0.914306640625,0.41912841796875,-0.042449951171875,1,0.94,5
2019-10-22 14:41:12.106 -0400,164,1571769671.015532,33.99630922442491,-81.0292041111701,93.61561,1.61605,78.96099786237919,2.90624695249023,5.037684555818287,-9999,432346.11036325,1.009323120117188,0.3723907470703125,-0.0199737548828125,1,0.94,5
2019-10-22 14:41:12.146 -0400,165,1571769671.015532,33.99630922442491,-81.0292041111701,93.61561,1.61605,78.96099786237919,2.90624695249023,5.037684555818287,-9999,432346.15034825,1.102996826171875,0.3063201904296875,-0.034576416015625,1,0.94,5
2019-10-22 14:41:12.201 -0400,166,1571769671.015532,33.99630922442491,-81.0292041111701,93.61561,1.61605,78.96099786237919,2.90624695249023,5.037684555818287,-9999,432346.19033325,1.153274536132812,0.2494049072265625,-0.0354461669921875,1,0.94,5
2019-10-22 14:41:12.226 -0400,167,1571769671.015532,33.99630922442491,-81.0292041111701,93.61561,1.61605,78.96099786237919,2.90624695249023,5.037684555818287,-9999,432346.23031825,1.014007568359375,0.1376800537109375,0.0096435546875,1,0.94,5
2019-10-22 14:41:12.266 -0400,168,1571769671.015532,33.99630922442491,-81.0292041111701,93.61561,1.61605,78.96099786237919,2.90624695249023,5.037684555818287,-9999,432346.27030325,0.99224853515625,0.221588134765625,0.0100250244140625,1,0.94,5
2019-10-22 14:41:12.306 -0400,169,1571769671.015532,33.99630922442491,-81.0292041111701,93.61561,1.61605,78.96099786237919,2.90624695249023,5.037684555818287,-9999,432346.31028825,0.69342041015625,0.283721923828125,-0.0994110107421875,1,0.94,5
2019-10-22 14:41:12.346 -0400,170,1571769671.015532,33.99630922442491,-81.0292041111701,93.61561,1.61605,78.96099786237919,2.90624695249023,5.037684555818287,-9999,432346.35027325,0.8220672607421875,0.4211883544921875,-0.211090087890625,1,0.94,5
2019-10-22 14:41:12.386 -0400,171,1571769672.015532,33.99631446612796,-81.02918909661135,92.77064,1.505016,75.44924612134442,2.940256545053638,5.017910768642471,-9999,432346.39025825,1.186279296875,0.4219818115234375,-0.2246551513671875,1,0.94,5
2019-10-22 14:41:12.426 -0400,172,1571769672.015532,33.99631446612796,-81.02918909661135,92.77064,1.505016,75.44924612134442,2.940256545053638,5.017910768642471,-9999,432346.43024325,1.208663940429688,0.4837493896484375,-0.2976531982421875,1,0.94,5
2019-10-22 14:41:12.466 -0400,173,1571769672.015532,33.99631446612796,-81.02918909661135,92.77064,1.505016,75.44924612134442,2.940256545053638,5.017910768642471,-9999,432346.47022825,0.944488525390625,0.2848052978515625,-0.283203125,1,0.94,5
2019-10-22 14:41:12.506 -0400,174,1571769672.015532,33.99631446612796,-81.02918909661135,92.77064,1.505016,75.44924612134442,2.940256545053638,5.017910768642471,-9999,432346.51021325,0.860382080078125,0.1809539794921875,-0.214141845703125,1,0.94,5
2019-10-22 14:41:12.546 -0400,175,1571769672.015532,33.99631446612796,-81.02918909661135,92.77064,1.505016,75.44924612134442,2.940256545053638,5.017910768642471,-9999,432346.5501985,0.8731536865234375,0.3079376220703125,-0.2574462890625,1,0.94,5
2019-10-22 14:41:12.586 -0400,176,1571769672.015532,33.99631446612796,-81.02918909661135,92.77064,1.505016,75.44924612134442,2.940256545053638,5.017910768642471,-9999,432346.5901825,0.9757232666015625,0.52130126953125,-0.3060150146484375,1,0.94,5
2019-10-22 14:41:12.626 -0400,177,1571769672.015532,33.99631446612796,-81.02918909661135,92.77064,1.505016,75.44924612134442,2.940256545053638,5.017910768642471,-9999,432346.6301675,1.023696899414062,0.6637420654296875,-0.3824005126953125,1,0.94,5
2019-10-22 14:41:12.666 -0400,178,1571769672.015532,33.99631446612796,-81.02918909661135,92.77064,1.505016,75.44924612134442,2.940256545053638,5.017910768642471,-9999,432346.6701525,1.035919189453125,0.706207275390625,-0.4370880126953125,1,0.94,5
2019-10-22 14:41:12.706 -0400,179,1571769672.015532,33.99631446612796,-81.02918909661135,92.77064,1.505016,75.44924612134442,2.940256545053638,5.017910768642471,-9999,432346.7101375,1.148239135742188,0.678253173828125,-0.4433746337890625,1,0.94,5
2019-10-22 14:41:12.746 -0400,180,1571769672.015532,33.99631446612796,-81.02918909661135,92.77064,1.505016,75.44924612134442,2.940256545053638,5.017910768642471,-9999,432346.7501225,1.202896118164062,0.6621246337890625,-0.4289398193359375,1,0.94,5
2019-10-22 14:41:12.786 -0400,181,1571769672.015532,33.99631446612796,-81.02918909661135,92.77064,1.505016,75.44924612134442,2.940256545053638,5.017910768642471,-9999,432346.7901075,1.160110473632812,0.66278076171875,-0.569427490234375,1,0.94,5
2019-10-22 14:41:12.826 -0400,182,1571769672.015532,33.99631446612796,-81.02918909661135,92.77064,1.505016,75.44924612134442,2.940256545053638,5.017910768642471,-9999,432346.8300925,1.092559814453125,0.5346527099609375,-0.4578399658203125,1,0.94,5
2019-10-22 14:41:12.866 -0400,183,1571769672.015532,33.99631446612796,-81.02918909661135,92.77064,1.505016,75.44924612134442,2.940256545053638,5.017910768642471,-9999,432346.8700775,1.5924072265625,0.58154296875,-0.27178955078125,1,0.94,5
2019-10-22 14:41:12.906 -0400,184,1571769672.015532,33.99631446612796,-81.02918909661135,92.77064,1.505016,75.44924612134442,2.940256545053638,5.017910768642471,-9999,432346.9100625,1.471542358398438,0.3338775634765625,-0.1609344482421875,1,0.94,5
2019-10-22 14:41:12.946 -0400,185,1571769672.015532,33.99631446612796,-81.02918909661135,92.77064,1.505016,75.44924612134442,2.940256545053638,5.017910768642471,-9999,432346.9500475,1.12152099609375,0.1775054931640625,-0.21807861328125,1,0.94,5
2019-10-22 14:41:12.986 -0400,186,1571769672.015532,33.99631446612796,-81.02918909661135,92.77064,1.505016,75.44924612134442,2.940256545053638,5.017910768642471,-9999,432346.9900325,0.9589385986328125,0.2542724609375,-0.13525390625,1,0.94,5
2019-10-22 14:41:13.026 -0400,187,1571769672.015532,33.99631446612796,-81.02918909661135,92.77064,1.505016,75.44924612134442,2.940256545053638,5.017910768642471,-9999,432347.0300175,0.9348602294921875,0.396392822265625,-0.098663330078125,1,0.94,5
2019-10-22 14:41:13.066 -0400,188,1571769672.015532,33.99631446612796,-81.02918909661135,92.77064,1.505016,75.44924612134442,2.940256545053638,5.017910768642471,-9999,432347.0700025,0.9485626220703125,0.4046173095703125,-0.0540924072265625,1,0.94,5
2019-10-22 14:41:13.106 -0400,189,1571769672.015532,33.99631446612796,-81.02918909661135,92.77064,1.505016,75.44924612134442,2.940256545053638,5.017910768642471,-9999,432347.1099875,0.920318603515625,0.3273468017578125,-0.0388641357421875,1,0.94,5
2019-10-22 14:41:13.148 -0400,190,1571769672.015532,33.99631446612796,-81.02918909661135,92.77064,1.505016,75.44924612134442,2.940256545053638,5.017910768642471,-9999,432347.1499725,0.9342193603515625,0.2425079345703125,-0.03179931640625,1,0.94,5
2019-10-22 14:41:13.185 -0400,191,1571769672.015532,33.99631446612796,-81.02918909661135,92.77064,1.505016,75.44924612134442,2.940256545053638,5.017910768642471,-9999,432347.1899575,1.000473022460938,0.145477294921875,-0.0083160400390625,1,0.94,5
2019-10-22 14:41:13.225 -0400,192,1571769672.015532,33.99631446612796,-81.02918909661135,92.77064,1.505016,75.44924612134442,2.940256545053638,5.017910768642471,-9999,432347.2299425,0.9296722412109375,0.0709686279296875,0.0286865234375,1,0.94,5
2019-10-22 14:41:13.265 -0400,193,1571769673.015285,33.99632498431701,-81.02918112244488,94.25316,1.372267,70.12263653889777,2.895416204217992,5.043917330522053,-9999,432347.2699275,1.125076293945312,0.2674713134765625,-0.002349853515625,1,0.94,5
2019-10-22 14:41:13.306 -0400,194,1571769673.015285,33.99632498431701,-81.02918112244488,94.25316,1.372267,70.12263653889777,2.895416204217992,5.043917330522053,-9999,432347.3099125,0.90899658203125,0.270050048828125,-0.1126556396484375,1,0.94,5
2019-10-22 14:41:13.345 -0400,195,1571769673.015285,33.99632498431701,-81.02918112244488,94.25316,1.372267,70.12263653889777,2.895416204217992,5.043917330522053,-9999,432347.3498975,1.168731689453125,0.4993133544921875,-0.2083282470703125,1,0.94,5
2019-10-22 14:41:13.385 -0400,196,1571769673.015285,33.99632498431701,-81.02918112244488,94.25316,1.372267,70.12263653889777,2.895416204217992,5.043917330522053,-9999,432347.3898825001,1.296417236328125,0.340789794921875,-0.253631591796875,1,0.94,5
2019-10-22 14:41:13.426 -0400,197,1571769673.015285,33.99632498431701,-81.02918112244488,94.25316,1.372267,70.12263653889777,2.895416204217992,5.043917330522053,-9999,432347.4298675,1.06549072265625,0.486602783203125,-0.2629241943359375,1,0.94,5
2019-10-22 14:41:13.465 -0400,198,1571769673.015285,33.99632498431701,-81.02918112244488,94.25316,1.372267,70.12263653889777,2.895416204217992,5.043917330522053,-9999,432347.4698525,0.8902740478515625,0.2506866455078125,-0.21490478515625,1,0.94,5
2019-10-22 14:41:13.505 -0400,199,1571769673.015285,33.99632498431701,-81.02918112244488,94.25316,1.372267,70.12263653889777,2.895416204217992,5.043917330522053,-9999,432347.5098375001,0.9402618408203125,0.4217529296875,-0.2468719482421875,1,0.94,5
2019-10-22 14:41:13.545 -0400,200,1571769673.015285,33.99632498431701,-81.02918112244488,94.25316,1.372267,70.12263653889777,2.895416204217992,5.043917330522053,-9999,432347.5498206667,0.9967041015625,0.541717529296875,-0.2892608642578125,1,0.94,5
2019-10-22 14:41:13.585 -0400,201,1571769673.015285,33.99632498431701,-81.02918112244488,94.25316,1.372267,70.12263653889777,2.895416204217992,5.043917330522053,-9999,432347.5898056667,1.0103759765625,0.71685791015625,-0.379364013671875,1,0.94,5
2019-10-22 14:41:13.625 -0400,202,1571769673.015285,33.99632498431701,-81.02918112244488,94.25316,1.372267,70.12263653889777,2.895416204217992,5.043917330522053,-9999,432347.6297906667,1.000320434570312,0.65057373046875,-0.386810302734375,1,0.94,5
2019-10-22 14:41:13.665 -0400,203,1571769673.015285,33.99632498431701,-81.02918112244488,94.25316,1.372267,70.12263653889777,2.895416204217992,5.043917330522053,-9999,432347.6697756667,1.073089599609375,0.631195068359375,-0.4729156494140625,1,0.94,5
2019-10-22 14:41:13.705 -0400,204,1571769673.015285,33.99632498431701,-81.02918112244488,94.25316,1.372267,70.12263653889777,2.895416204217992,5.043917330522053,-9999,432347.7097606667,1.16619873046875,0.7311553955078125,-0.459381103515625,1,0.94,5
2019-10-22 14:41:13.745 -0400,205,1571769673.015285,33.99632498431701,-81.02918112244488,94.25316,1.372267,70.12263653889777,2.895416204217992,5.043917330522053,-9999,432347.7497456667,1.607666015625,0.89215087890625,-0.4992523193359375,1,0.94,5
2019-10-22 14:41:13.785 -0400,206,1571769673.015285,33.99632498431701,-81.02918112244488,94.25316,1.372267,70.12263653889777,2.895416204217992,5.043917330522053,-9999,432347.7897306667,0.92376708984375,0.5127105712890625,-0.5083465576171875,1,0.94,5
2019-10-22 14:41:13.825 -0400,207,1571769673.015285,33.99632498431701,-81.02918112244488,94.25316,1.372267,70.12263653889777,2.895416204217992,5.043917330522053,-9999,432347.8297156667,1.363845825195312,0.54241943359375,-0.4029388427734375,1,0.94,5
2019-10-22 14:41:13.865 -0400,208,1571769673.015285,33.99632498431701,-81.02918112244488,94.25316,1.372267,70.12263653889777,2.895416204217992,5.043917330522053,-9999,432347.8697006667,1.474411010742188,0.3841705322265625,-0.2053070068359375,1,0.94,5
2019-10-22 14:41:13.905 -0400,209,1571769673.015285,33.99632498431701,-81.02918112244488,94.25316,1.372267,70.12263653889777,2.895416204217992,5.043917330522053,-9999,432347.9096856667,1.394515991210938,0.290557861328125,-0.2088165283203125,1,0.94,5
2019-10-22 14:41:13.945 -0400,210,1571769673.015285,33.99632498431701,-81.02918112244488,94.25316,1.372267,70.12263653889777,2.895416204217992,5.043917330522053,-9999,432347.9496706667,1.114166259765625,0.2600860595703125,-0.1668548583984375,1,0.94,5
2019-10-22 14:41:13.985 -0400,211,1571769673.015285,33.99632498431701,-81.02918112244488,94.25316,1.372267,70.12263653889777,2.895416204217992,5.043917330522053,-9999,432347.9896556667,0.92315673828125,0.3079833984375,-0.0966796875,1,0.94,5
2019-10-22 14:41:14.026 -0400,212,1571769673.015285,33.99632498431701,-81.02918112244488,94.25316,1.372267,70.12263653889777,2.895416204217992,5.043917330522053,-9999,432348.0296406667,0.88714599609375,0.3567657470703125,-0.07977294921875,1,0.94,5
2019-10-22 14:41:14.071 -0400,213,1571769673.015285,33.99632498431701,-81.02918112244488,94.25316,1.372267,70.12263653889777,2.895416204217992,5.043917330522053,-9999,432348.0696256667,0.8681793212890625,0.3331756591796875,-0.02783203125,1,0.94,5
2019-10-22 14:41:14.105 -0400,214,1571769673.015285,33.99632498431701,-81.02918112244488,94.25316,1.372267,70.12263653889777,2.895416204217992,5.043917330522053,-9999,432348.1096106667,0.8271484375,0.2696075439453125,0.0087432861328125,1,0.94,5
2019-10-22 14:41:14.145 -0400,215,1571769673.015285,33.99632498431701,-81.02918112244488,94.25316,1.372267,70.12263653889777,2.895416204217992,5.043917330522053,-9999,432348.1495956667,0.8949432373046875,0.2349700927734375,0.0069732666015625,1,0.94,5
2019-10-22 14:41:14.189 -0400,216,1571769673.015285,33.99632498431701,-81.02918112244488,94.25316,1.372267,70.12263653889777,2.895416204217992,5.043917330522053,-9999,432348.1895796667,1.012405395507812,0.2083282470703125,0.00982666015625,1,0.94,5
2019-10-22 14:41:14.225 -0400,217,1571769674.015284,33.99634423504449,-81.02916561782952,94.05035,1.658751,66.92724633456599,2.876124071677266,5.054942863881592,-9999,432348.2295646667,0.946746826171875,0.182586669921875,-0.022674560546875,1,0.94,5
2019-10-22 14:41:14.265 -0400,218,1571769674.015284,33.99634423504449,-81.02916561782952,94.05035,1.658751,66.92724633456599,2.876124071677266,5.054942863881592,-9999,432348.2695496667,1.092453002929688,0.272491455078125,-0.0445098876953125,1,0.94,5
2019-10-22 14:41:14.305 -0400,219,1571769674.015284,33.99634423504449,-81.02916561782952,94.05035,1.658751,66.92724633456599,2.876124071677266,5.054942863881592,-9999,432348.3095346667,0.8413238525390625,0.2350311279296875,-0.12994384765625,1,0.94,5
2019-10-22 14:41:14.345 -0400,220,1571769674.015284,33.99634423504449,-81.02916561782952,94.05035,1.658751,66.92724633456599,2.876124071677266,5.054942863881592,-9999,432348.3495196667,1.189056396484375,0.423065185546875,-0.1871337890625,1,0.94,5
2019-10-22 14:41:14.385 -0400,221,1571769674.015284,33.99634423504449,-81.02916561782952,94.05035,1.658751,66.92724633456599,2.876124071677266,5.054942863881592,-9999,432348.3895046667,1.44635009765625,0.369537353515625,-0.2646636962890625,1,0.94,5
2019-10-22 14:41:14.425 -0400,222,1571769674.015284,33.99634423504449,-81.02916561782952,94.05035,1.658751,66.92724633456599,2.876124071677266,5.054942863881592,-9999,432348.4294896667,1.272430419921875,0.4409332275390625,-0.332672119140625,1,0.94,5
2019-10-22 14:41:14.465 -0400,223,1571769674.015284,33.99634423504449,-81.02916561782952,94.05035,1.658751,66.92724633456599,2.876124071677266,5.054942863881592,-9999,432348.4694746667,0.958251953125,0.2035675048828125,-0.2799072265625,1,0.94,5
2019-10-22 14:41:14.505 -0400,224,1571769674.015284,33.99634423504449,-81.02916561782952,94.05035,1.658751,66.92724633456599,2.876124071677266,5.054942863881592,-9999,432348.5094596667,0.9116058349609375,0.33795166015625,-0.3126678466796875,1,0.94,5
2019-10-22 14:41:14.545 -0400,225,1571769674.015284,33.99634423504449,-81.02916561782952,94.05035,1.658751,66.92724633456599,2.876124071677266,5.054942863881592,-9999,432348.54944525,0.8935394287109375,0.4305267333984375,-0.3598785400390625,1,0.94,5
2019-10-22 14:41:14.585 -0400,226,1571769674.015284,33.99634423504449,-81.02916561782952,94.05035,1.658751,66.92724633456599,2.876124071677266,5.054942863881592,-9999,432348.5894302501,0.88177490234375,0.535614013671875,-0.371490478515625,1,0.94,5
2019-10-22 14:41:14.625 -0400,227,1571769674.015284,33.99634423504449,-81.02916561782952,94.05035,1.658751,66.92724633456599,2.876124071677266,5.054942863881592,-9999,432348.62941525,0.8918914794921875,0.6470489501953125,-0.4409027099609375,1,0.94,5
2019-10-22 14:41:14.665 -0400,228,1571769674.015284,33.99634423504449,-81.02916561782952,94.05035,1.658751,66.92724633456599,2.876124071677266,5.054942863881592,-9999,432348.66939925,0.978057861328125,0.6645660400390625,-0.456634521484375,1,0.94,5
2019-10-22 14:41:14.705 -0400,229,1571769674.015284,33.99634423504449,-81.02916561782952,94.05035,1.658751,66.92724633456599,2.876124071677266,5.054942863881592,-9999,432348.70938425,1.148529052734375,0.77642822265625,-0.47637939453125,1,0.94,5
2019-10-22 14:41:14.745 -0400,230,1571769674.015284,33.99634423504449,-81.02916561782952,94.05035,1.658751,66.92724633456599,2.876124071677266,5.054942863881592,-9999,432348.74936925,1.595977783203125,0.9230804443359375,-0.4756927490234375,1,0.94,5
2019-10-22 14:41:14.785 -0400,231,1571769674.015284,33.99634423504449,-81.02916561782952,94.05035,1.658751,66.92724633456599,2.876124071677266,5.054942863881592,-9999,432348.78935425,1.064422607421875,0.5775146484375,-0.4407196044921875,1,0.94,5
2019-10-22 14:41:14.825 -0400,232,1571769674.015284,33.99634423504449,-81.02916561782952,94.05035,1.658751,66.92724633456599,2.876124071677266,5.054942863881592,-9999,432348.82933925,1.324554443359375,0.588104248046875,-0.4279022216796875,1,0.94,5
2019-10-22 14:41:14.865 -0400,233,1571769674.015284,33.99634423504449,-81.02916561782952,94.05035,1.658751,66.92724633456599,2.876124071677266,5.054942863881592,-9999,432348.86932425,1.4842529296875,0.4578704833984375,-0.1732177734375,1,0.94,5
2019-10-22 14:41:14.904 -0400,234,1571769674.015284,33.99634423504449,-81.02916561782952,94.05035,1.658751,66.92724633456599,2.876124071677266,5.054942863881592,-9999,432348.90930925,1.3990478515625,0.392547607421875,-0.12939453125,1,0.94,5
2019-10-22 14:41:14.945 -0400,235,1571769674.015284,33.99634423504449,-81.02916561782952,94.05035,1.658751,66.92724633456599,2.876124071677266,5.054942863881592,-9999,432348.9492942501,1.120773315429688,0.3082275390625,-0.14849853515625,1,0.94,5
2019-10-22 14:41:14.985 -0400,236,1571769674.015284,33.99634423504449,-81.02916561782952,94.05035,1.658751,66.92724633456599,2.876124071677266,5.054942863881592,-9999,432348.98927925,0.9739837646484375,0.365570068359375,-0.1085662841796875,1,0.94,5
2019-10-22 14:41:15.025 -0400,237,1571769674.015284,33.99634423504449,-81.02916561782952,94.05035,1.658751,66.92724633456599,2.876124071677266,5.054942863881592,-9999,432349.02926425,0.927886962890625,0.3690338134765625,-0.0483245849609375,1,0.94,5
2019-10-22 14:41:15.093 -0400,238,1571769674.015284,33.99634423504449,-81.02916561782952,94.05035,1.658751,66.92724633456599,2.876124071677266,5.054942863881592,-9999,432349.0692492501,0.9891357421875,0.3597564697265625,-0.0175933837890625,1,0.94,5
2019-10-22 14:41:15.105 -0400,239,1571769674.015284,33.99634423504449,-81.02916561782952,94.05035,1.658751,66.92724633456599,2.876124071677266,5.054942863881592,-9999,432349.10923425,1.034255981445312,0.284576416015625,-0.00091552734375,1,0.94,5
2019-10-22 14:41:15.144 -0400,240,1571769674.015284,33.99634423504449,-81.02916561782952,94.05035,1.658751,66.92724633456599,2.876124071677266,5.054942863881592,-9999,432349.14921825,1.085906982421875,0.2389984130859375,-0.013092041015625,1,0.94,5
2019-10-22 14:41:15.184 -0400,241,1571769674.015284,33.99634423504449,-81.02916561782952,94.05035,1.658751,66.92724633456599,2.876124071677266,5.054942863881592,-9999,432349.18920325,1.140869140625,0.207611083984375,-0.0142974853515625,1,0.94,5
2019-10-22 14:41:15.224 -0400,242,1571769674.015284,33.99634423504449,-81.02916561782952,94.05035,1.658751,66.92724633456599,2.876124071677266,5.054942863881592,-9999,432349.22918825,0.9792327880859375,0.095489501953125,0.0136260986328125,1,0.94,5
2019-10-22 14:41:15.264 -0400,243,1571769674.015284,33.99634423504449,-81.02916561782952,94.05035,1.658751,66.92724633456599,2.876124071677266,5.054942863881592,-9999,432349.26917325,1.154815673828125,0.2599029541015625,-0.0029296875,1,0.94,5
2019-10-22 14:41:15.304 -0400,244,1571769674.015284,33.99634423504449,-81.02916561782952,94.05035,1.658751,66.92724633456599,2.876124071677266,5.054942863881592,-9999,432349.30915825,0.865570068359375,0.2543792724609375,-0.1424713134765625,1,0.94,5
2019-10-22 14:41:15.345 -0400,245,1571769675.015281,33.99636584391535,-81.02915642661459,94.98273,1.68839,53.89354818808278,2.874638170671502,5.055788011824392,-9999,432349.34914325,1.14971923828125,0.4655609130859375,-0.2446136474609375,1,0.94,5
2019-10-22 14:41:15.385 -0400,246,1571769675.015281,33.99636584391535,-81.02915642661459,94.98273,1.68839,53.89354818808278,2.874638170671502,5.055788011824392,-9999,432349.38912825,1.3189697265625,0.30145263671875,-0.1836090087890625,1,0.94,5
2019-10-22 14:41:15.425 -0400,247,1571769675.015281,33.99636584391535,-81.02915642661459,94.98273,1.68839,53.89354818808278,2.874638170671502,5.055788011824392,-9999,432349.4291132501,1.181900024414062,0.4374237060546875,-0.2170257568359375,1,0.94,5
2019-10-22 14:41:15.464 -0400,248,1571769675.015281,33.99636584391535,-81.02915642661459,94.98273,1.68839,53.89354818808278,2.874638170671502,5.055788011824392,-9999,432349.46909825,0.994384765625,0.27069091796875,-0.2945709228515625,1,0.94,5
2019-10-22 14:41:15.504 -0400,249,1571769675.015281,33.99636584391535,-81.02915642661459,94.98273,1.68839,53.89354818808278,2.874638170671502,5.055788011824392,-9999,432349.50908225,1.0069580078125,0.338836669921875,-0.314910888671875,1,0.94,5
2019-10-22 14:41:15.544 -0400,250,1571769675.015281,33.99636584391535,-81.02915642661459,94.98273,1.68839,53.89354818808278,2.874638170671502,5.055788011824392,-9999,432349.549066625,1.013717651367188,0.4047393798828125,-0.2781982421875,1,0.94,5
2019-10-22 14:41:15.584 -0400,251,1571769675.015281,33.99636584391535,-81.02915642661459,94.98273,1.68839,53.89354818808278,2.874638170671502,5.055788011824392,-9999,432349.5890516251,1.008865356445312,0.5221099853515625,-0.3275146484375,1,0.94,5
2019-10-22 14:41:15.624 -0400,252,1571769675.015281,33.99636584391535,-81.02915642661459,94.98273,1.68839,53.89354818808278,2.874638170671502,5.055788011824392,-9999,432349.629036625,1.09869384765625,0.6421051025390625,-0.385711669921875,1,0.94,5
2019-10-22 14:41:15.664 -0400,253,1571769675.015281,33.99636584391535,-81.02915642661459,94.98273,1.68839,53.89354818808278,2.874638170671502,5.055788011824392,-9999,432349.669021625,1.065231323242188,0.6790313720703125,-0.43621826171875,1,0.94,5
2019-10-22 14:41:15.705 -0400,254,1571769675.015281,33.99636584391535,-81.02915642661459,94.98273,1.68839,53.89354818808278,2.874638170671502,5.055788011824392,-9999,432349.7090066251,1.123794555664062,0.7937469482421875,-0.5181121826171875,1,0.94,5
2019-10-22 14:41:15.744 -0400,255,1571769675.015281,33.99636584391535,-81.02915642661459,94.98273,1.68839,53.89354818808278,2.874638170671502,5.055788011824392,-9999,432349.748991625,1.267608642578125,0.749847412109375,-0.4462127685546875,1,0.94,5
2019-10-22 14:41:15.784 -0400,256,1571769675.015281,33.99636584391535,-81.02915642661459,94.98273,1.68839,53.89354818808278,2.874638170671502,5.055788011824392,-9999,432349.788976625,1.046035766601562,0.6357879638671875,-0.5196685791015625,1,0.94,5
2019-10-22 14:41:15.824 -0400,257,1571769675.015281,33.99636584391535,-81.02915642661459,94.98273,1.68839,53.89354818808278,2.874638170671502,5.055788011824392,-9999,432349.828960625,0.9857177734375,0.546600341796875,-0.3976898193359375,1,0.94,5
2019-10-22 14:41:15.864 -0400,258,1571769675.015281,33.99636584391535,-81.02915642661459,94.98273,1.68839,53.89354818808278,2.874638170671502,5.055788011824392,-9999,432349.868945625,1.4874267578125,0.6639251708984375,-0.2562713623046875,1,0.94,5
2019-10-22 14:41:15.904 -0400,259,1571769675.015281,33.99636584391535,-81.02915642661459,94.98273,1.68839,53.89354818808278,2.874638170671502,5.055788011824392,-9999,432349.908930625,1.506378173828125,0.4318389892578125,-0.1457366943359375,1,0.94,5
2019-10-22 14:41:15.944 -0400,260,1571769675.015281,33.99636584391535,-81.02915642661459,94.98273,1.68839,53.89354818808278,2.874638170671502,5.055788011824392,-9999,432349.948915625,1.287460327148438,0.3204193115234375,-0.153839111328125,1,0.94,5
2019-10-22 14:41:15.984 -0400,261,1571769675.015281,33.99636584391535,-81.02915642661459,94.98273,1.68839,53.89354818808278,2.874638170671502,5.055788011824392,-9999,432349.988900625,1.127685546875,0.2797698974609375,-0.1157989501953125,1,0.94,5
2019-10-22 14:41:16.024 -0400,262,1571769675.015281,33.99636584391535,-81.02915642661459,94.98273,1.68839,53.89354818808278,2.874638170671502,5.055788011824392,-9999,432350.028885625,1.048873901367188,0.364166259765625,-0.0602874755859375,1,0.94,5
2019-10-22 14:41:16.064 -0400,263,1571769675.015281,33.99636584391535,-81.02915642661459,94.98273,1.68839,53.89354818808278,2.874638170671502,5.055788011824392,-9999,432350.0688706251,1.062469482421875,0.3973846435546875,-0.0312347412109375,1,0.94,5
2019-10-22 14:41:16.104 -0400,264,1571769675.015281,33.99636584391535,-81.02915642661459,94.98273,1.68839,53.89354818808278,2.874638170671502,5.055788011824392,-9999,432350.108855625,1.070327758789062,0.3057708740234375,-0.0006103515625,1,0.94,5
2019-10-22 14:41:16.144 -0400,265,1571769675.015281,33.99636584391535,-81.02915642661459,94.98273,1.68839,53.89354818808278,2.874638170671502,5.055788011824392,-9999,432350.148839625,1.01702880859375,0.23931884765625,0.00579833984375,1,0.94,5
2019-10-22 14:41:16.189 -0400,266,1571769675.015281,33.99636584391535,-81.02915642661459,94.98273,1.68839,53.89354818808278,2.874638170671502,5.055788011824392,-9999,432350.188824625,0.995758056640625,0.16705322265625,0.000762939453125,1,0.94,5
2019-10-22 14:41:16.224 -0400,267,1571769675.015281,33.99636584391535,-81.02915642661459,94.98273,1.68839,53.89354818808278,2.874638170671502,5.055788011824392,-9999,432350.228809625,0.9100341796875,0.0933380126953125,0.0237274169921875,1,0.94,5
2019-10-22 14:41:16.264 -0400,268,1571769675.015281,33.99636584391535,-81.02915642661459,94.98273,1.68839,53.89354818808278,2.874638170671502,5.055788011824392,-9999,432350.268794625,0.960784912109375,0.24285888671875,-0.0075531005859375,1,0.94,5
2019-10-22 14:41:16.304 -0400,269,1571769675.015281,33.99636584391535,-81.02915642661459,94.98273,1.68839,53.89354818808278,2.874638170671502,5.055788011824392,-9999,432350.308779625,0.860870361328125,0.2869873046875,-0.0917816162109375,1,0.94,5
2019-10-22 14:41:16.344 -0400,270,1571769675.015281,33.99636584391535,-81.02915642661459,94.98273,1.68839,53.89354818808278,2.874638170671502,5.055788011824392,-9999,432350.348764625,0.9845733642578125,0.415191650390625,-0.183380126953125,1,0.94,5
2019-10-22 14:41:16.384 -0400,271,1571769675.015281,33.99636584391535,-81.02915642661459,94.98273,1.68839,53.89354818808278,2.874638170671502,5.055788011824392,-9999,432350.388749625,1.324081420898438,0.3940582275390625,-0.205352783203125,1,0.94,5
2019-10-22 14:41:16.424 -0400,272,1571769675.015281,33.99636584391535,-81.02915642661459,94.98273,1.68839,53.89354818808278,2.874638170671502,5.055788011824392,-9999,432350.428734625,1.319671630859375,0.465789794921875,-0.2256927490234375,1,0.94,5
2019-10-22 14:41:16.464 -0400,273,1571769675.015281,33.99636584391535,-81.02915642661459,94.98273,1.68839,53.89354818808278,2.874638170671502,5.055788011824392,-9999,432350.468718625,1.056716918945312,0.317718505859375,-0.30255126953125,1,0.94,5
2019-10-22 14:41:16.504 -0400,274,1571769675.015281,33.99636584391535,-81.02915642661459,94.98273,1.68839,53.89354818808278,2.874638170671502,5.055788011824392,-9999,432350.508703625,0.984771728515625,0.2255401611328125,-0.282989501953125,1,0.94,5
2019-10-22 14:41:16.544 -0400,275,1571769676.015281,33.99638501314923,-81.02914094656472,93.00398,1.857393,54.66778272679957,2.887125966880837,5.048667218598512,-9999,432350.5486887917,0.9787139892578125,0.232666015625,-0.248931884765625,1,0.94,5
2019-10-22 14:41:16.584 -0400,276,1571769676.015281,33.99638501314923,-81.02914094656472,93.00398,1.857393,54.66778272679957,2.887125966880837,5.048667218598512,-9999,432350.5886737917,1.031646728515625,0.40289306640625,-0.27728271484375,1,0.94,5
2019-10-22 14:41:16.624 -0400,277,1571769676.015281,33.99638501314923,-81.02914094656472,93.00398,1.857393,54.66778272679957,2.887125966880837,5.048667218598512,-9999,432350.6286587917,1.188812255859375,0.5831756591796875,-0.3645782470703125,1,0.94,5
2019-10-22 14:41:16.664 -0400,278,1571769676.015281,33.99638501314923,-81.02914094656472,93.00398,1.857393,54.66778272679957,2.887125966880837,5.048667218598512,-9999,432350.6686437917,1.111587524414062,0.69317626953125,-0.4514312744140625,1,0.94,5
2019-10-22 14:41:16.704 -0400,279,1571769676.015281,33.99638501314923,-81.02914094656472,93.00398,1.857393,54.66778272679957,2.887125966880837,5.048667218598512,-9999,432350.7086287917,1.103988647460938,0.7291412353515625,-0.49444580078125,1,0.94,5
2019-10-22 14:41:16.744 -0400,280,1571769676.015281,33.99638501314923,-81.02914094656472,93.00398,1.857393,54.66778272679957,2.887125966880837,5.048667218598512,-9999,432350.7486127917,1.216049194335938,0.798614501953125,-0.47686767578125,1,0.94,5
2019-10-22 14:41:16.784 -0400,281,1571769676.015281,33.99638501314923,-81.02914094656472,93.00398,1.857393,54.66778272679957,2.887125966880837,5.048667218598512,-9999,432350.7885977917,1.247634887695312,0.777679443359375,-0.517364501953125,1,0.94,5
2019-10-22 14:41:16.823 -0400,282,1571769676.015281,33.99638501314923,-81.02914094656472,93.00398,1.857393,54.66778272679957,2.887125966880837,5.048667218598512,-9999,432350.8285827917,0.8256988525390625,0.47119140625,-0.4540557861328125,1,0.94,5
2019-10-22 14:41:16.863 -0400,283,1571769676.015281,33.99638501314923,-81.02914094656472,93.00398,1.857393,54.66778272679957,2.887125966880837,5.048667218598512,-9999,432350.8685677917,1.43341064453125,0.59173583984375,-0.270538330078125,1,0.94,5
2019-10-22 14:41:16.903 -0400,284,1571769676.015281,33.99638501314923,-81.02914094656472,93.00398,1.857393,54.66778272679957,2.887125966880837,5.048667218598512,-9999,432350.9085527917,1.422531127929688,0.417816162109375,-0.1063690185546875,1,0.94,5
2019-10-22 14:41:16.943 -0400,285,1571769676.015281,33.99638501314923,-81.02914094656472,93.00398,1.857393,54.66778272679957,2.887125966880837,5.048667218598512,-9999,432350.9485377917,1.177658081054688,0.317718505859375,-0.1905059814453125,1,0.94,5
2019-10-22 14:41:16.983 -0400,286,1571769676.015281,33.99638501314923,-81.02914094656472,93.00398,1.857393,54.66778272679957,2.887125966880837,5.048667218598512,-9999,432350.9885217917,0.9966583251953125,0.2958831787109375,-0.15240478515625,1,0.94,5
2019-10-22 14:41:17.024 -0400,287,1571769676.015281,33.99638501314923,-81.02914094656472,93.00398,1.857393,54.66778272679957,2.887125966880837,5.048667218598512,-9999,432351.0285067917,0.9819488525390625,0.419952392578125,-0.11090087890625,1,0.94,5
2019-10-22 14:41:17.064 -0400,288,1571769676.015281,33.99638501314923,-81.02914094656472,93.00398,1.857393,54.66778272679957,2.887125966880837,5.048667218598512,-9999,432351.0684917917,1.072250366210938,0.4130859375,-0.041168212890625,1,0.94,5
2019-10-22 14:41:17.103 -0400,289,1571769676.015281,33.99638501314923,-81.02914094656472,93.00398,1.857393,54.66778272679957,2.887125966880837,5.048667218598512,-9999,432351.1084767917,1.148101806640625,0.3356475830078125,-0.0089874267578125,1,0.94,5
2019-10-22 14:41:17.143 -0400,290,1571769676.015281,33.99638501314923,-81.02914094656472,93.00398,1.857393,54.66778272679957,2.887125966880837,5.048667218598512,-9999,432351.1484617917,1.200912475585938,0.2767333984375,-0.0038299560546875,1,0.94,5
2019-10-22 14:41:17.190 -0400,291,1571769676.015281,33.99638501314923,-81.02914094656472,93.00398,1.857393,54.66778272679957,2.887125966880837,5.048667218598512,-9999,432351.1884467917,1.204803466796875,0.220062255859375,-0.0075531005859375,1,0.94,5
2019-10-22 14:41:17.223 -0400,292,1571769676.015281,33.99638501314923,-81.02914094656472,93.00398,1.857393,54.66778272679957,2.887125966880837,5.048667218598512,-9999,432351.2284307917,1.005874633789062,0.0768280029296875,0.0276031494140625,1,0.94,5
2019-10-22 14:41:17.263 -0400,293,1571769676.015281,33.99638501314923,-81.02914094656472,93.00398,1.857393,54.66778272679957,2.887125966880837,5.048667218598512,-9999,432351.2684157917,1.031524658203125,0.2105255126953125,-0.0062255859375,1,0.94,5
2019-10-22 14:41:17.303 -0400,294,1571769676.015281,33.99638501314923,-81.02914094656472,93.00398,1.857393,54.66778272679957,2.887125966880837,5.048667218598512,-9999,432351.3084007917,0.802947998046875,0.233673095703125,-0.1153106689453125,1,0.94,5
2019-10-22 14:41:17.343 -0400,295,1571769676.015281,33.99638501314923,-81.02914094656472,93.00398,1.857393,54.66778272679957,2.887125966880837,5.048667218598512,-9999,432351.3483857917,0.98162841796875,0.3656768798828125,-0.2252197265625,1,0.94,5
2019-10-22 14:41:17.383 -0400,296,1571769676.015281,33.99638501314923,-81.02914094656472,93.00398,1.857393,54.66778272679957,2.887125966880837,5.048667218598512,-9999,432351.3883707917,1.155776977539062,0.3703460693359375,-0.313934326171875,1,0.94,5
2019-10-22 14:41:17.432 -0400,297,1571769676.015281,33.99638501314923,-81.02914094656472,93.00398,1.857393,54.66778272679957,2.887125966880837,5.048667218598512,-9999,432351.4283557917,1.078140258789062,0.37322998046875,-0.301422119140625,1,0.94,5
2019-10-22 14:41:17.463 -0400,298,1571769677.015455,33.99639607322975,-81.02912390144147,92.8324,1.782355,59.72826075807664,2.898182214287882,5.04232851821202,-9999,432351.4683397917,0.881317138671875,0.2516632080078125,-0.272979736328125,1,0.94,5
2019-10-22 14:41:17.503 -0400,299,1571769677.015455,33.99639607322975,-81.02912390144147,92.8324,1.782355,59.72826075807664,2.898182214287882,5.04232851821202,-9999,432351.5083247917,0.847137451171875,0.2480316162109375,-0.3223114013671875,1,0.94,5
2019-10-22 14:41:17.543 -0400,300,1571769677.015455,33.99639607322975,-81.02912390144147,92.8324,1.782355,59.72826075807664,2.898182214287882,5.04232851821202,-9999,432351.54831025,0.8810272216796875,0.3505096435546875,-0.3240203857421875,1,0.94,5
2019-10-22 14:41:17.583 -0400,301,1571769677.015455,33.99639607322975,-81.02912390144147,92.8324,1.782355,59.72826075807664,2.898182214287882,5.04232851821202,-9999,432351.58829525,1.0301513671875,0.5269317626953125,-0.3599395751953125,1,0.94,5
2019-10-22 14:41:17.623 -0400,302,1571769677.015455,33.99639607322975,-81.02912390144147,92.8324,1.782355,59.72826075807664,2.898182214287882,5.04232851821202,-9999,432351.62828025,1.118576049804688,0.645904541015625,-0.445770263671875,1,0.94,5
2019-10-22 14:41:17.671 -0400,303,1571769677.015455,33.99639607322975,-81.02912390144147,92.8324,1.782355,59.72826075807664,2.898182214287882,5.04232851821202,-9999,432351.66826525,1.1326904296875,0.712371826171875,-0.5150299072265625,1,0.94,5
2019-10-22 14:41:17.703 -0400,304,1571769677.015455,33.99639607322975,-81.02912390144147,92.8324,1.782355,59.72826075807664,2.898182214287882,5.04232851821202,-9999,432351.70824925,1.188934326171875,0.7785186767578125,-0.532745361328125,1,0.94,5
2019-10-22 14:41:17.743 -0400,305,1571769677.015455,33.99639607322975,-81.02912390144147,92.8324,1.782355,59.72826075807664,2.898182214287882,5.04232851821202,-9999,432351.74823425,1.455368041992188,0.80255126953125,-0.4862518310546875,1,0.94,5
2019-10-22 14:41:17.783 -0400,306,1571769677.015455,33.99639607322975,-81.02912390144147,92.8324,1.782355,59.72826075807664,2.898182214287882,5.04232851821202,-9999,432351.78821925,1.037612915039062,0.627044677734375,-0.5217742919921875,1,0.94,5
2019-10-22 14:41:17.823 -0400,307,1571769677.015455,33.99639607322975,-81.02912390144147,92.8324,1.782355,59.72826075807664,2.898182214287882,5.04232851821202,-9999,432351.82820425,1.184249877929688,0.5970611572265625,-0.4199981689453125,1,0.94,5
2019-10-22 14:41:17.863 -0400,308,1571769677.015455,33.99639607322975,-81.02912390144147,92.8324,1.782355,59.72826075807664,2.898182214287882,5.04232851821202,-9999,432351.86818925,1.503173828125,0.55572509765625,-0.2310791015625,1,0.94,5
2019-10-22 14:41:17.903 -0400,309,1571769677.015455,33.99639607322975,-81.02912390144147,92.8324,1.782355,59.72826075807664,2.898182214287882,5.04232851821202,-9999,432351.90817325,1.479766845703125,0.4232940673828125,-0.16204833984375,1,0.94,5
2019-10-22 14:41:17.943 -0400,310,1571769677.015455,33.99639607322975,-81.02912390144147,92.8324,1.782355,59.72826075807664,2.898182214287882,5.04232851821202,-9999,432351.94815825,1.22698974609375,0.2634124755859375,-0.1519927978515625,1,0.94,5
2019-10-22 14:41:17.983 -0400,311,1571769677.015455,33.99639607322975,-81.02912390144147,92.8324,1.782355,59.72826075807664,2.898182214287882,5.04232851821202,-9999,432351.9881432501,1.034408569335938,0.3005523681640625,-0.1161041259765625,1,0.94,5
2019-10-22 14:41:18.024 -0400,312,1571769677.015455,33.99639607322975,-81.02912390144147,92.8324,1.782355,59.72826075807664,2.898182214287882,5.04232851821202,-9999,432352.02812825,1.03765869140625,0.3697357177734375,-0.07281494140625,1,0.94,5
2019-10-22 14:41:18.063 -0400,313,1571769677.015455,33.99639607322975,-81.02912390144147,92.8324,1.782355,59.72826075807664,2.898182214287882,5.04232851821202,-9999,432352.06811325,1.06512451171875,0.37371826171875,-0.0240631103515625,1,0.94,5
2019-10-22 14:41:18.119 -0400,314,1571769677.015455,33.99639607322975,-81.02912390144147,92.8324,1.782355,59.72826075807664,2.898182214287882,5.04232851821202,-9999,432352.10809825,1.066879272460938,0.29156494140625,-0.0099029541015625,1,0.94,5
2019-10-22 14:41:18.143 -0400,315,1571769677.015455,33.99639607322975,-81.02912390144147,92.8324,1.782355,59.72826075807664,2.898182214287882,5.04232851821202,-9999,432352.14808225,1.041244506835938,0.2370147705078125,-0.01654052734375,1,0.94,5
2019-10-22 14:41:18.182 -0400,316,1571769677.015455,33.99639607322975,-81.02912390144147,92.8324,1.782355,59.72826075807664,2.898182214287882,5.04232851821202,-9999,432352.18806725,1.08026123046875,0.1605377197265625,-0.0101470947265625,1,0.94,5
2019-10-22 14:41:18.223 -0400,317,1571769677.015455,33.99639607322975,-81.02912390144147,92.8324,1.782355,59.72826075807664,2.898182214287882,5.04232851821202,-9999,432352.2280522501,0.904571533203125,0.0320587158203125,0.0458526611328125,1,0.94,5
2019-10-22 14:41:18.263 -0400,318,1571769677.015455,33.99639607322975,-81.02912390144147,92.8324,1.782355,59.72826075807664,2.898182214287882,5.04232851821202,-9999,432352.26803725,1.037338256835938,0.237579345703125,0.0010833740234375,1,0.94,5
2019-10-22 14:41:18.307 -0400,319,1571769678.015455,33.99641353930953,-81.02911137017254,92.52892,1.743072,60.09921450159243,2.91993794084229,5.029761371518387,-9999,432352.30802225,0.7884979248046875,0.2242431640625,-0.07916259765625,1,0.94,5
2019-10-22 14:41:18.343 -0400,320,1571769678.015455,33.99641353930953,-81.02911137017254,92.52892,1.743072,60.09921450159243,2.91993794084229,5.029761371518387,-9999,432352.34800625,0.9534759521484375,0.435028076171875,-0.1676025390625,1,0.94,5
2019-10-22 14:41:18.383 -0400,321,1571769678.015455,33.99641353930953,-81.02911137017254,92.52892,1.743072,60.09921450159243,2.91993794084229,5.029761371518387,-9999,432352.38799125,1.3070068359375,0.3732147216796875,-0.150909423828125,1,0.94,5
2019-10-22 14:41:18.423 -0400,322,1571769678.015455,33.99641353930953,-81.02911137017254,92.52892,1.743072,60.09921450159243,2.91993794084229,5.029761371518387,-9999,432352.42797625,1.30535888671875,0.5661773681640625,-0.1751556396484375,1,0.94,5
2019-10-22 14:41:18.463 -0400,323,1571769678.015455,33.99641353930953,-81.02911137017254,92.52892,1.743072,60.09921450159243,2.91993794084229,5.029761371518387,-9999,432352.46796125,1.141372680664062,0.46240234375,-0.2628631591796875,1,0.94,5
2019-10-22 14:41:18.503 -0400,324,1571769678.015455,33.99641353930953,-81.02911137017254,92.52892,1.743072,60.09921450159243,2.91993794084229,5.029761371518387,-9999,432352.50794625,1.154510498046875,0.5203399658203125,-0.3187408447265625,1,0.94,5
2019-10-22 14:41:18.543 -0400,325,1571769678.015455,33.99641353930953,-81.02911137017254,92.52892,1.743072,60.09921450159243,2.91993794084229,5.029761371518387,-9999,432352.54792975,1.100982666015625,0.539703369140625,-0.3002471923828125,1,0.94,5
2019-10-22 14:41:18.585 -0400,326,1571769678.015455,33.99641353930953,-81.02911137017254,92.52892,1.743072,60.09921450159243,2.91993794084229,5.029761371518387,-9999,432352.58791475,1.154006958007812,0.4980010986328125,-0.355010986328125,1,0.94,5
2019-10-22 14:41:18.623 -0400,327,1571769678.015455,33.99641353930953,-81.02911137017254,92.52892,1.743072,60.09921450159243,2.91993794084229,5.029761371518387,-9999,432352.62789975,1.100341796875,0.4977264404296875,-0.462738037109375,1,0.94,5
2019-10-22 14:41:18.662 -0400,328,1571769678.015455,33.99641353930953,-81.02911137017254,92.52892,1.743072,60.09921450159243,2.91993794084229,5.029761371518387,-9999,432352.66788475,1.080581665039062,0.67034912109375,-0.5048828125,1,0.94,5
2019-10-22 14:41:18.703 -0400,329,1571769678.015455,33.99641353930953,-81.02911137017254,92.52892,1.743072,60.09921450159243,2.91993794084229,5.029761371518387,-9999,432352.70786975,1.077743530273438,0.88818359375,-0.5591278076171875,1,0.94,5
