loggingTime(txt),accelerometerTimestamp_sinceReboot(s),accelerometerAccelerationX(G),accelerometerAccelerationY(G),accelerometerAccelerationZ(G),batteryState,batteryLevel
2020-05-15 16:05:49.221 -0400,3038.278816125,0.1322784423828125,0.1310272216796875,-0.9774017333984375,1,0.98
2020-05-15 16:05:49.311 -0400,3038.39853325,0.337158203125,0.392578125,-1.3209228515625,1,0.98
2020-05-15 16:05:49.430 -0400,3038.51824525,0.261444091796875,0.2529754638671875,-0.9271392822265625,1,0.98
2020-05-15 16:05:49.550 -0400,3038.63796025,0.0727996826171875,0.069061279296875,-0.649932861328125,1,0.98
2020-05-15 16:05:49.670 -0400,3038.75767625,0.3464813232421875,-0.086090087890625,-0.364166259765625,1,0.98
2020-05-15 16:05:49.790 -0400,3038.87739425,0.813690185546875,0.945037841796875,-0.5458526611328125,1,0.98
2020-05-15 16:05:49.910 -0400,3038.99711125,0.892120361328125,1.423324584960938,-0.8827667236328125,1,0.98
2020-05-15 16:05:50.029 -0400,3039.11682525,0.8061065673828125,0.7241973876953125,-0.273773193359375,1,0.98
2020-05-15 16:05:50.156 -0400,3039.23654525,0.6591949462890625,0.5901641845703125,-0.0956268310546875,1,0.98
2020-05-15 16:05:50.269 -0400,3039.356268125,0.798004150390625,0.384552001953125,-0.11627197265625,1,0.98
2020-05-15 16:05:50.341 -0400,3039.426106125,0.91912841796875,0.4110107421875,-0.0746612548828125,1,0.98
2020-05-15 16:05:50.408 -0400,3039.495941125,0.9575958251953125,0.4756622314453125,-0.222747802734375,1,0.98
2020-05-15 16:05:50.478 -0400,3039.565774125,0.9912567138671875,0.4568634033203125,-0.33172607421875,1,0.98
2020-05-15 16:05:50.548 -0400,3039.635610125,1.197372436523438,0.41082763671875,-0.2885589599609375,1,0.98
2020-05-15 16:05:50.618 -0400,3039.705444125,0.7821502685546875,0.3522186279296875,-0.1759033203125,1,0.98
2020-05-15 16:05:50.688 -0400,3039.775280125,0.5572357177734375,0.4375,-0.201416015625,1,0.98
2020-05-15 16:05:50.757 -0400,3039.845117125,0.62176513671875,0.485931396484375,-0.2162628173828125,1,0.98
2020-05-15 16:05:50.827 -0400,3039.914956125,0.7935333251953125,0.482391357421875,-0.2431182861328125,1,0.98
2020-05-15 16:05:50.897 -0400,3039.984787125,1.047454833984375,0.533843994140625,-0.324432373046875,1,0.98
2020-05-15 16:05:50.967 -0400,3040.054621125,1.317337036132812,0.6608428955078125,-0.310028076171875,1,0.98
2020-05-15 16:05:51.037 -0400,3040.124457125,1.00634765625,0.6678466796875,-0.293975830078125,1,0.98
2020-05-15 16:05:51.106 -0400,3040.194294125,1.337646484375,0.5263671875,-0.1968231201171875,1,0.98
2020-05-15 16:05:51.176 -0400,3040.264130125,0.8841094970703125,0.368621826171875,-0.1679229736328125,1,0.98
2020-05-15 16:05:51.246 -0400,3040.333964541667,0.7149505615234375,0.39544677734375,-0.104217529296875,1,0.98
2020-05-15 16:05:51.316 -0400,3040.403796541667,0.726348876953125,0.2833099365234375,-0.0612335205078125,1,0.98
2020-05-15 16:05:51.386 -0400,3040.473632541667,0.7754058837890625,0.2662811279296875,-0.00054931640625,1,0.98
2020-05-15 16:05:51.456 -0400,3040.543467541667,0.8057708740234375,0.342926025390625,0.00579833984375,1,0.98
2020-05-15 16:05:51.526 -0400,3040.613304541667,1.139617919921875,0.4907989501953125,-0.1101531982421875,1,0.98
2020-05-15 16:05:51.595 -0400,3040.683141541667,1.046539306640625,0.532958984375,-0.4168243408203125,1,0.98
2020-05-15 16:05:51.665 -0400,3040.752976541667,1.135757446289062,0.4290924072265625,-0.1361541748046875,1,0.98
2020-05-15 16:05:51.735 -0400,3040.822810541667,0.707550048828125,0.393707275390625,-0.317291259765625,1,0.98
2020-05-15 16:05:51.805 -0400,3040.892645541667,0.71881103515625,0.4593353271484375,-0.261199951171875,1,0.98
2020-05-15 16:05:51.875 -0400,3040.962477541667,0.8147735595703125,0.494873046875,-0.3120574951171875,1,0.98
2020-05-15 16:05:51.945 -0400,3041.032311541667,0.8117523193359375,0.5502777099609375,-0.3554229736328125,1,0.98
2020-05-15 16:05:52.015 -0400,3041.102139541667,1.126480102539062,0.560882568359375,-0.3682708740234375,1,0.98
2020-05-15 16:05:52.084 -0400,3041.171975541667,1.338516235351562,0.5312042236328125,-0.382659912109375,1,0.98
2020-05-15 16:05:52.154 -0400,3041.241812541667,1.14923095703125,0.41864013671875,-0.1401824951171875,1,0.98
2020-05-15 16:05:52.224 -0400,3041.311647541667,1.128097534179688,0.4246368408203125,-0.1773529052734375,1,0.98
2020-05-15 16:05:52.294 -0400,3041.381482625,0.8823089599609375,0.3657684326171875,-0.1356658935546875,1,0.98
2020-05-15 16:05:52.364 -0400,3041.451318625,0.713531494140625,0.3336639404296875,-0.0567474365234375,1,0.98
2020-05-15 16:05:52.434 -0400,3041.521159625,0.6398162841796875,0.2551727294921875,-0.0153656005859375,1,0.98
2020-05-15 16:05:52.503 -0400,3041.590999625,0.7242279052734375,0.2752227783203125,0.009979248046875,1,0.98
2020-05-15 16:05:52.574 -0400,3041.660841625,1.0853271484375,0.46221923828125,-0.128387451171875,1,0.98
2020-05-15 16:05:52.643 -0400,3041.730680625,1.130935668945312,0.5216522216796875,-0.3497314453125,1,0.98
2020-05-15 16:05:52.713 -0400,3041.800521625,1.276687622070312,0.40509033203125,-0.3050537109375,1,0.98
2020-05-15 16:05:52.783 -0400,3041.870366625,0.7711639404296875,0.29693603515625,-0.2212066650390625,1,0.98
2020-05-15 16:05:52.853 -0400,3041.940205625,0.692535400390625,0.4960479736328125,-0.21405029296875,1,0.98
2020-05-15 16:05:52.922 -0400,3042.010039625,0.8083953857421875,0.557403564453125,-0.2877655029296875,1,0.98
2020-05-15 16:05:52.993 -0400,3042.079875625,0.83892822265625,0.5009765625,-0.294677734375,1,0.98
2020-05-15 16:05:53.062 -0400,3042.149703625,1.15264892578125,0.5833587646484375,-0.381866455078125,1,0.98
2020-05-15 16:05:53.132 -0400,3042.219528625,1.389862060546875,0.558563232421875,-0.4017333984375,1,0.98
2020-05-15 16:05:53.202 -0400,3042.289358625,1.001861572265625,0.500274658203125,-0.2706756591796875,1,0.98
2020-05-15 16:05:53.272 -0400,3042.35919075,1.245315551757812,0.389068603515625,-0.1699981689453125,1,0.98
2020-05-15 16:05:53.341 -0400,3042.42902375,0.8910675048828125,0.3297576904296875,-0.1059722900390625,1,0.98
2020-05-15 16:05:53.412 -0400,3042.49886075,0.843780517578125,0.364013671875,-0.0476226806640625,1,0.98
2020-05-15 16:05:53.481 -0400,3042.56869075,0.82501220703125,0.2745208740234375,-0.02490234375,1,0.98
2020-05-15 16:05:53.551 -0400,3042.63852475,0.72528076171875,0.263946533203125,-0.02081298828125,1,0.98
2020-05-15 16:05:53.621 -0400,3042.70835775,0.7128753662109375,0.348052978515625,-0.0970001220703125,1,0.98
2020-05-15 16:05:53.691 -0400,3042.77819775,1.08184814453125,0.434906005859375,-0.16229248046875,1,0.98
2020-05-15 16:05:53.760 -0400,3042.84803875,1.166610717773438,0.4804534912109375,-0.379547119140625,1,0.98
2020-05-15 16:05:53.831 -0400,3042.91787475,1.064910888671875,0.3985443115234375,-0.283782958984375,1,0.98
2020-05-15 16:05:53.900 -0400,3042.98771075,0.747711181640625,0.371490478515625,-0.231475830078125,1,0.98
2020-05-15 16:05:53.970 -0400,3043.05754575,0.8108673095703125,0.517486572265625,-0.174835205078125,1,0.98
2020-05-15 16:05:54.040 -0400,3043.12737675,0.739837646484375,0.6142730712890625,-0.198211669921875,1,0.98
2020-05-15 16:05:54.110 -0400,3043.19721175,0.7759552001953125,0.697967529296875,-0.279510498046875,1,0.98
2020-05-15 16:05:54.179 -0400,3043.26704975,1.473495483398438,0.9158935546875,-0.386016845703125,1,0.98
2020-05-15 16:05:54.249 -0400,3043.336885125,1.264373779296875,0.4987640380859375,-0.253082275390625,1,0.98
2020-05-15 16:05:54.319 -0400,3043.406719125,1.36346435546875,0.4036102294921875,-0.2356109619140625,1,0.98
2020-05-15 16:05:54.389 -0400,3043.476553125,0.984588623046875,0.4305419921875,-0.2171783447265625,1,0.98
2020-05-15 16:05:54.461 -0400,3043.546387125,0.85491943359375,0.3114776611328125,-0.0612945556640625,1,0.98
2020-05-15 16:05:54.529 -0400,3043.616221125,0.74615478515625,0.2364501953125,0.0207672119140625,1,0.98
2020-05-15 16:05:54.599 -0400,3043.686054125,0.6314849853515625,0.2688446044921875,0.0377197265625,1,0.98
2020-05-15 16:05:54.668 -0400,3043.755891125,0.7575836181640625,0.3356781005859375,0.025726318359375,1,0.98
2020-05-15 16:05:54.738 -0400,3043.825722125,1.097137451171875,0.4815826416015625,-0.1026611328125,1,0.98
2020-05-15 16:05:54.808 -0400,3043.895554125,1.124008178710938,0.5403594970703125,-0.3484344482421875,1,0.98
2020-05-15 16:05:54.878 -0400,3043.965389125,1.154434204101562,0.525146484375,-0.3287353515625,1,0.98
2020-05-15 16:05:54.948 -0400,3044.035223125,0.7374114990234375,0.3091583251953125,-0.3444976806640625,1,0.98
2020-05-15 16:05:55.018 -0400,3044.105056125,0.777191162109375,0.534210205078125,-0.335723876953125,1,0.98
2020-05-15 16:05:55.093 -0400,3044.174890125,0.7922210693359375,0.5690460205078125,-0.4534759521484375,1,0.98
2020-05-15 16:05:55.157 -0400,3044.244725125,0.9067230224609375,0.50054931640625,-0.3845672607421875,1,0.98
2020-05-15 16:05:55.227 -0400,3044.314556125,1.23297119140625,0.495635986328125,-0.320281982421875,1,0.98
2020-05-15 16:05:55.297 -0400,3044.38438625,1.215866088867188,0.6150970458984375,-0.4221038818359375,1,0.98
2020-05-15 16:05:55.367 -0400,3044.45421825,1.24072265625,0.46014404296875,-0.183868408203125,1,0.98
2020-05-15 16:05:55.436 -0400,3044.52404625,0.969573974609375,0.354400634765625,-0.14068603515625,1,0.98
2020-05-15 16:05:55.506 -0400,3044.59387525,0.7851715087890625,0.3529205322265625,-0.0795135498046875,1,0.98
2020-05-15 16:05:55.576 -0400,3044.66370425,0.700164794921875,0.3367156982421875,-0.0379486083984375,1,0.98
2020-05-15 16:05:55.646 -0400,3044.73353825,0.7389373779296875,0.2620086669921875,0.0114288330078125,1,0.98
2020-05-15 16:05:55.716 -0400,3044.80337625,0.860809326171875,0.2689666748046875,0.0756988525390625,1,0.98
2020-05-15 16:05:55.786 -0400,3044.87320825,1.073822021484375,0.46240234375,-0.0966949462890625,1,0.98
2020-05-15 16:05:55.855 -0400,3044.94303925,0.8286285400390625,0.58697509765625,-0.5751953125,1,0.98
2020-05-15 16:05:55.926 -0400,3045.01287325,1.265487670898438,0.4091339111328125,-0.5254058837890625,1,0.98
2020-05-15 16:05:55.995 -0400,3045.08270725,0.7826385498046875,0.1031036376953125,-0.403350830078125,1,0.98
2020-05-15 16:05:56.065 -0400,3045.15254125,0.6756439208984375,0.3245391845703125,-0.343597412109375,1,0.98
2020-05-15 16:05:56.135 -0400,3045.22237225,0.71881103515625,0.514862060546875,-0.367889404296875,1,0.98
2020-05-15 16:05:56.205 -0400,3045.29220325,0.73040771484375,0.50323486328125,-0.35504150390625,1,0.98
2020-05-15 16:05:56.274 -0400,3045.3620375,0.9901275634765625,0.55462646484375,-0.38916015625,1,0.98
2020-05-15 16:05:56.344 -0400,3045.4318695,1.541030883789062,0.60467529296875,-0.440673828125,1,0.98
2020-05-15 16:05:56.414 -0400,3045.5017035,1.169998168945312,0.39556884765625,-0.287689208984375,1,0.98
2020-05-15 16:05:56.484 -0400,3045.5715345,1.246994018554688,0.3192291259765625,-0.18438720703125,1,0.98
2020-05-15 16:05:56.554 -0400,3045.6413645,0.848480224609375,0.3790740966796875,-0.191558837890625,1,0.98
2020-05-15 16:05:56.624 -0400,3045.7111935,0.70550537109375,0.3660430908203125,-0.101959228515625,1,0.98
2020-05-15 16:05:56.693 -0400,3045.7810285,0.5715179443359375,0.2494964599609375,-0.04010009765625,1,0.98
2020-05-15 16:05:56.764 -0400,3045.8508645,0.528717041015625,0.24981689453125,-0.03009033203125,1,0.98
2020-05-15 16:05:56.833 -0400,3045.9206985,0.6674041748046875,0.344024658203125,-0.0594329833984375,1,0.98
2020-05-15 16:05:56.903 -0400,3045.9905335,1.427093505859375,0.5188140869140625,-0.1526641845703125,1,0.98
2020-05-15 16:05:56.973 -0400,3046.0603645,1.44439697265625,0.544525146484375,-0.4604034423828125,1,0.98
2020-05-15 16:05:57.043 -0400,3046.1301935,0.957366943359375,0.2615203857421875,-0.2440185546875,1,0.98
2020-05-15 16:05:57.112 -0400,3046.2000245,0.69879150390625,0.3483734130859375,-0.2795562744140625,1,0.98
2020-05-15 16:05:57.182 -0400,3046.2698565,0.667083740234375,0.5936126708984375,-0.25347900390625,1,0.98
2020-05-15 16:05:57.252 -0400,3046.339689125,0.7558746337890625,0.5743255615234375,-0.3646087646484375,1,0.98
2020-05-15 16:05:57.322 -0400,3046.409524125,0.849517822265625,0.5301666259765625,-0.3563690185546875,1,0.98
2020-05-15 16:05:57.392 -0400,3046.479358125,1.367950439453125,0.55035400390625,-0.28143310546875,1,0.98
2020-05-15 16:05:57.462 -0400,3046.549193125,1.216567993164062,0.514190673828125,-0.35174560546875,1,0.98
2020-05-15 16:05:57.531 -0400,3046.619023125,1.130508422851562,0.46612548828125,-0.2057342529296875,1,0.98
2020-05-15 16:05:57.601 -0400,3046.688854125,1.0914306640625,0.34698486328125,-0.1358642578125,1,0.98
2020-05-15 16:05:57.671 -0400,3046.758691125,0.8029022216796875,0.3292236328125,-0.0675811767578125,1,0.98
2020-05-15 16:05:57.741 -0400,3046.828525125,0.6755523681640625,0.3104400634765625,-0.0312957763671875,1,0.98
2020-05-15 16:05:57.811 -0400,3046.898358125,0.6249542236328125,0.287811279296875,-0.0105133056640625,1,0.98
2020-05-15 16:05:57.881 -0400,3046.968193125,0.7477874755859375,0.2832183837890625,-0.012054443359375,1,0.98
2020-05-15 16:05:57.951 -0400,3047.038026125,1.135360717773438,0.383392333984375,-0.0458526611328125,1,0.98
2020-05-15 16:05:58.021 -0400,3047.107858125,1.12646484375,0.5478515625,-0.286590576171875,1,0.98
2020-05-15 16:05:58.090 -0400,3047.177688125,1.343994140625,0.470184326171875,-0.4414520263671875,1,0.98
2020-05-15 16:05:58.160 -0400,3047.247518125,0.9255218505859375,0.2155303955078125,-0.2850799560546875,1,0.98
2020-05-15 16:05:58.230 -0400,3047.317350125,0.6322479248046875,0.3667755126953125,-0.2357940673828125,1,0.98
2020-05-15 16:05:58.300 -0400,3047.387182875,0.6568145751953125,0.564453125,-0.22015380859375,1,0.98
2020-05-15 16:05:58.370 -0400,3047.457015875,0.757080078125,0.5650787353515625,-0.2777099609375,1,0.98
2020-05-15 16:05:58.439 -0400,3047.526849875,0.9654388427734375,0.5822906494140625,-0.3396148681640625,1,0.98
2020-05-15 16:05:58.509 -0400,3047.596679875,1.38922119140625,0.603179931640625,-0.277435302734375,1,0.98
2020-05-15 16:05:58.579 -0400,3047.666509875,1.220245361328125,0.5123291015625,-0.33551025390625,1,0.98
2020-05-15 16:05:58.649 -0400,3047.736344875,1.493331909179688,0.345367431640625,-0.162139892578125,1,0.98
2020-05-15 16:05:58.719 -0400,3047.806174875,1.041336059570312,0.2926483154296875,-0.1441802978515625,1,0.98
2020-05-15 16:05:58.789 -0400,3047.876008875,0.77685546875,0.360992431640625,-0.101531982421875,1,0.98
2020-05-15 16:05:58.858 -0400,3047.945840875,0.6379547119140625,0.271087646484375,-0.01116943359375,1,0.98
2020-05-15 16:05:58.928 -0400,3048.015673875,0.4735870361328125,0.17657470703125,0.024993896484375,1,0.98
2020-05-15 16:05:58.998 -0400,3048.085507875,0.643310546875,0.297607421875,0.0027008056640625,1,0.98
2020-05-15 16:05:59.068 -0400,3048.155344875,1.245773315429688,0.47430419921875,-0.0379486083984375,1,0.98
2020-05-15 16:05:59.138 -0400,3048.225180875,1.409149169921875,0.7225341796875,-0.521148681640625,1,0.98
2020-05-15 16:05:59.208 -0400,3048.295011875,1.2908935546875,0.4586181640625,-0.175506591796875,1,0.98
2020-05-15 16:05:59.277 -0400,3048.364842625,0.799957275390625,0.20220947265625,-0.3185577392578125,1,0.98
2020-05-15 16:05:59.348 -0400,3048.434673625,0.6893157958984375,0.48577880859375,-0.252288818359375,1,0.98
2020-05-15 16:05:59.417 -0400,3048.504504625,0.6714324951171875,0.6442108154296875,-0.3290557861328125,1,0.98
2020-05-15 16:05:59.487 -0400,3048.574334625,0.763336181640625,0.5530853271484375,-0.314849853515625,1,0.98
2020-05-15 16:05:59.557 -0400,3048.644164625,1.4019775390625,0.6582183837890625,-0.3230743408203125,1,0.98
2020-05-15 16:05:59.627 -0400,3048.713997625,1.274688720703125,0.4942169189453125,-0.3346710205078125,1,0.98
2020-05-15 16:05:59.696 -0400,3048.783830625,1.122573852539062,0.4074859619140625,-0.1851959228515625,1,0.98
2020-05-15 16:05:59.766 -0400,3048.853666625,1.13177490234375,0.3575592041015625,-0.118377685546875,1,0.98
2020-05-15 16:05:59.836 -0400,3048.923506625,0.7963714599609375,0.290191650390625,-0.039520263671875,1,0.98
2020-05-15 16:05:59.906 -0400,3048.993348625,0.6722564697265625,0.331268310546875,0.0322265625,1,0.98
2020-05-15 16:05:59.976 -0400,3049.063185625,0.682525634765625,0.289215087890625,0.0596160888671875,1,0.98
2020-05-15 16:06:00.046 -0400,3049.133022625,0.764251708984375,0.2784576416015625,0.09112548828125,1,0.98
2020-05-15 16:06:00.116 -0400,3049.202861625,1.129852294921875,0.4160614013671875,-0.004669189453125,1,0.98
2020-05-15 16:06:00.185 -0400,3049.272699625,0.944366455078125,0.537750244140625,-0.41253662109375,1,0.98
2020-05-15 16:06:00.255 -0400,3049.342535916667,1.383163452148438,0.4108734130859375,-0.3585205078125,1,0.98
2020-05-15 16:06:00.325 -0400,3049.412372916667,0.9557342529296875,0.3600006103515625,-0.5048370361328125,1,0.98
2020-05-15 16:06:00.395 -0400,3049.482209916667,0.6938018798828125,0.557464599609375,-0.334442138671875,1,0.98
2020-05-15 16:06:00.465 -0400,3049.552048916667,0.720703125,0.44342041015625,-0.284576416015625,1,0.98
2020-05-15 16:06:00.535 -0400,3049.621887916667,0.6868743896484375,0.4632415771484375,-0.2810211181640625,1,0.98
2020-05-15 16:06:00.605 -0400,3049.691724916667,1.051254272460938,0.630279541015625,-0.267974853515625,1,0.98
2020-05-15 16:06:00.674 -0400,3049.761559916667,1.386337280273438,0.6412200927734375,-0.3587799072265625,1,0.98
2020-05-15 16:06:00.744 -0400,3049.831394916667,1.105926513671875,0.430938720703125,-0.2498626708984375,1,0.98
2020-05-15 16:06:00.814 -0400,3049.901228916667,1.133377075195312,0.3753204345703125,-0.179473876953125,1,0.98
2020-05-15 16:06:00.884 -0400,3049.971065916667,0.7903900146484375,0.3557281494140625,-0.1805877685546875,1,0.98
2020-05-15 16:06:00.954 -0400,3050.040903916667,0.6584930419921875,0.3564300537109375,-0.1072845458984375,1,0.98
2020-05-15 16:06:01.024 -0400,3050.110740916667,0.72802734375,0.2619171142578125,-0.0652618408203125,1,0.98
2020-05-15 16:06:01.093 -0400,3050.180573916667,0.8107147216796875,0.25604248046875,-0.0491485595703125,1,0.98
2020-05-15 16:06:01.163 -0400,3050.250407916667,0.9546661376953125,0.373291015625,-0.0946197509765625,1,0.98
2020-05-15 16:06:01.233 -0400,3050.320240916667,1.014801025390625,0.4885406494140625,-0.2938079833984375,1,0.98
2020-05-15 16:06:01.303 -0400,3050.390074625,1.2412109375,0.506439208984375,-0.552642822265625,1,0.98
2020-05-15 16:06:01.373 -0400,3050.459907625,0.888641357421875,0.22625732421875,-0.28302001953125,1,0.98
2020-05-15 16:06:01.442 -0400,3050.529745625,0.6255645751953125,0.3613739013671875,-0.2437744140625,1,0.98
2020-05-15 16:06:01.512 -0400,3050.599587625,0.6415557861328125,0.6168212890625,-0.2452239990234375,1,0.98
2020-05-15 16:06:01.582 -0400,3050.669423625,0.7030181884765625,0.6655426025390625,-0.3003082275390625,1,0.98
2020-05-15 16:06:01.652 -0400,3050.739259625,1.091873168945312,0.72503662109375,-0.36346435546875,1,0.98
2020-05-15 16:06:01.722 -0400,3050.809092625,1.376144409179688,0.587310791015625,-0.275390625,1,0.98
2020-05-15 16:06:01.792 -0400,3050.878927625,1.09716796875,0.6148529052734375,-0.3334503173828125,1,0.98
2020-05-15 16:06:01.862 -0400,3050.948761625,1.197052001953125,0.5034027099609375,-0.224334716796875,1,0.98
2020-05-15 16:06:01.932 -0400,3051.018593625,0.917938232421875,0.3300628662109375,-0.236572265625,1,0.98
2020-05-15 16:06:02.001 -0400,3051.088424625,0.771636962890625,0.32373046875,-0.15625,1,0.98
2020-05-15 16:06:02.071 -0400,3051.158253625,0.7509307861328125,0.2519989013671875,-0.098480224609375,1,0.98
2020-05-15 16:06:02.141 -0400,3051.228081625,0.6473236083984375,0.2428741455078125,-0.0481719970703125,1,0.98
2020-05-15 16:06:02.211 -0400,3051.297913625,0.7423248291015625,0.320526123046875,-0.0423431396484375,1,0.98
2020-05-15 16:06:02.280 -0400,3051.367745625,1.17181396484375,0.5130615234375,-0.177825927734375,1,0.98
2020-05-15 16:06:02.350 -0400,3051.437582625,1.064727783203125,0.566253662109375,-0.4857177734375,1,0.98
2020-05-15 16:06:02.420 -0400,3051.507423625,1.237213134765625,0.373077392578125,-0.224517822265625,1,0.98
2020-05-15 16:06:02.490 -0400,3051.577261625,0.75390625,0.3209381103515625,-0.347137451171875,1,0.98
2020-05-15 16:06:02.560 -0400,3051.647096625,0.6954345703125,0.5188751220703125,-0.257659912109375,1,0.98
2020-05-15 16:06:02.630 -0400,3051.716927625,0.7406463623046875,0.6237030029296875,-0.3423614501953125,1,0.98
2020-05-15 16:06:02.700 -0400,3051.786759625,0.8401336669921875,0.5702056884765625,-0.3659820556640625,1,0.98
2020-05-15 16:06:02.769 -0400,3051.856588625,1.195281982421875,0.5767669677734375,-0.338714599609375,1,0.98
2020-05-15 16:06:02.839 -0400,3051.926421625,1.229904174804688,0.51397705078125,-0.4189605712890625,1,0.98
2020-05-15 16:06:02.909 -0400,3051.996248625,1.173873901367188,0.4414825439453125,-0.2198333740234375,1,0.98
2020-05-15 16:06:02.979 -0400,3052.066079625,1.143035888671875,0.300537109375,-0.15850830078125,1,0.98
2020-05-15 16:06:03.049 -0400,3052.135907625,0.8203582763671875,0.341156005859375,-0.150238037109375,1,0.98
2020-05-15 16:06:03.119 -0400,3052.205739625,0.708526611328125,0.331207275390625,-0.0483856201171875,1,0.98
2020-05-15 16:06:03.188 -0400,3052.275573625,0.6402740478515625,0.229827880859375,-0.0185699462890625,1,0.98
2020-05-15 16:06:03.258 -0400,3052.345410041667,0.7100372314453125,0.256439208984375,0.0200958251953125,1,0.98
2020-05-15 16:06:03.328 -0400,3052.415246041667,1.016281127929688,0.412445068359375,-0.047821044921875,1,0.98
2020-05-15 16:06:03.398 -0400,3052.485080041667,1.10699462890625,0.559844970703125,-0.2784881591796875,1,0.98
2020-05-15 16:06:03.468 -0400,3052.554913041667,1.355087280273438,0.5452728271484375,-0.3947906494140625,1,0.98
2020-05-15 16:06:03.538 -0400,3052.624744041667,0.7674407958984375,0.1498870849609375,-0.3067474365234375,1,0.98
2020-05-15 16:06:03.607 -0400,3052.694576041667,0.6421356201171875,0.32757568359375,-0.292266845703125,1,0.98
2020-05-15 16:06:03.677 -0400,3052.764409041667,0.7166900634765625,0.6063690185546875,-0.4351959228515625,1,0.98
2020-05-15 16:06:03.747 -0400,3052.834244041667,0.85223388671875,0.5504302978515625,-0.4485626220703125,1,0.98
2020-05-15 16:06:03.817 -0400,3052.904072041667,1.342910766601562,0.5114898681640625,-0.359283447265625,1,0.98
2020-05-15 16:06:03.887 -0400,3052.973900041667,1.266998291015625,0.4534912109375,-0.4304351806640625,1,0.98
2020-05-15 16:06:03.957 -0400,3053.043733041667,1.178955078125,0.4853973388671875,-0.2479400634765625,1,0.98
2020-05-15 16:06:04.026 -0400,3053.113566041667,1.081222534179688,0.2991790771484375,-0.0993194580078125,1,0.98
2020-05-15 16:06:04.096 -0400,3053.183400041667,0.7158203125,0.29498291015625,-0.110137939453125,1,0.98
2020-05-15 16:06:04.166 -0400,3053.253237041667,0.6687774658203125,0.3397216796875,-0.0120391845703125,1,0.98
2020-05-15 16:06:04.236 -0400,3053.323073041667,0.7150726318359375,0.2612457275390625,0.0256805419921875,1,0.98
2020-05-15 16:06:04.306 -0400,3053.3929085,0.7598419189453125,0.2805938720703125,0.053070068359375,1,0.98
2020-05-15 16:06:04.376 -0400,3053.4627465,1.153640747070312,0.4789581298828125,-0.1004486083984375,1,0.98
2020-05-15 16:06:04.453 -0400,3053.5325835,1.133071899414062,0.6173553466796875,-0.451812744140625,1,0.98
2020-05-15 16:06:04.516 -0400,3053.6024175,1.266433715820312,0.4411163330078125,-0.449432373046875,1,0.98
2020-05-15 16:06:04.585 -0400,3053.6722485,0.718414306640625,0.11065673828125,-0.330474853515625,1,0.98
2020-05-15 16:06:04.655 -0400,3053.7420825,0.6751861572265625,0.434600830078125,-0.3184967041015625,1,0.98
2020-05-15 16:06:04.725 -0400,3053.8119145,0.7409210205078125,0.59130859375,-0.412139892578125,1,0.98
2020-05-15 16:06:04.795 -0400,3053.8817455,0.814910888671875,0.5073394775390625,-0.3694305419921875,1,0.98
2020-05-15 16:06:04.865 -0400,3053.9515775,1.314529418945312,0.572601318359375,-0.3367919921875,1,0.98
2020-05-15 16:06:04.934 -0400,3054.0214075,1.193328857421875,0.5222015380859375,-0.4118804931640625,1,0.98
2020-05-15 16:06:05.004 -0400,3054.0912365,1.221023559570312,0.4137725830078125,-0.224395751953125,1,0.98
2020-05-15 16:06:05.074 -0400,3054.1610675,1.082199096679688,0.3052825927734375,-0.1578521728515625,1,0.98
2020-05-15 16:06:05.144 -0400,3054.2308945,0.7651824951171875,0.3176727294921875,-0.1247406005859375,1,0.98
2020-05-15 16:06:05.214 -0400,3054.3007215,0.686614990234375,0.3058013916015625,-0.0132293701171875,1,0.98
2020-05-15 16:06:05.283 -0400,3054.3705505,0.665496826171875,0.2280731201171875,0.0261383056640625,1,0.98
2020-05-15 16:06:05.353 -0400,3054.4403815,0.7804107666015625,0.2836151123046875,0.0430755615234375,1,0.98
2020-05-15 16:06:05.423 -0400,3054.5102145,1.193710327148438,0.4736175537109375,-0.0684356689453125,1,0.98
2020-05-15 16:06:05.493 -0400,3054.5800435,1.218719482421875,0.642425537109375,-0.5481109619140625,1,0.98
2020-05-15 16:06:05.563 -0400,3054.6498795,1.174102783203125,0.3529052734375,-0.272125244140625,1,0.98
2020-05-15 16:06:05.633 -0400,3054.7197155,0.765380859375,0.062774658203125,-0.33111572265625,1,0.98
2020-05-15 16:06:05.702 -0400,3054.7895525,0.7715301513671875,0.4748382568359375,-0.2718505859375,1,0.98
2020-05-15 16:06:05.772 -0400,3054.8593895,0.7152252197265625,0.5505218505859375,-0.3164215087890625,1,0.98
2020-05-15 16:06:05.842 -0400,3054.9292235,0.7712554931640625,0.5697174072265625,-0.300537109375,1,0.98
2020-05-15 16:06:05.912 -0400,3054.9990555,1.336135864257812,0.660614013671875,-0.333709716796875,1,0.98
2020-05-15 16:06:05.982 -0400,3055.0688865,1.191497802734375,0.476776123046875,-0.3584747314453125,1,0.98
2020-05-15 16:06:06.052 -0400,3055.1387195,1.380447387695312,0.4203033447265625,-0.2171630859375,1,0.98
2020-05-15 16:06:06.122 -0400,3055.2085505,1.11395263671875,0.3239593505859375,-0.1663665771484375,1,0.98
2020-05-15 16:06:06.191 -0400,3055.2783825,0.858154296875,0.34246826171875,-0.13067626953125,1,0.98
2020-05-15 16:06:06.261 -0400,3055.348217125,0.7027587890625,0.3033905029296875,-0.0414276123046875,1,0.98
2020-05-15 16:06:06.331 -0400,3055.418054125,0.5628509521484375,0.211029052734375,-0.0076751708984375,1,0.98
2020-05-15 16:06:06.401 -0400,3055.487887125,0.726287841796875,0.2618560791015625,0.020751953125,1,0.98
2020-05-15 16:06:06.471 -0400,3055.557721125,0.97637939453125,0.4107818603515625,-0.046295166015625,1,0.98
2020-05-15 16:06:06.541 -0400,3055.627554125,1.239730834960938,0.568389892578125,-0.1521759033203125,1,0.98
2020-05-15 16:06:06.610 -0400,3055.697388125,1.291824340820312,0.569427490234375,-0.383697509765625,1,0.98
2020-05-15 16:06:06.680 -0400,3055.767223125,0.9746551513671875,0.2670745849609375,-0.2068328857421875,1,0.98
2020-05-15 16:06:06.750 -0400,3055.837059125,0.81005859375,0.37701416015625,-0.269805908203125,1,0.98
2020-05-15 16:06:06.820 -0400,3055.906895125,0.72418212890625,0.621795654296875,-0.327789306640625,1,0.98
2020-05-15 16:06:06.890 -0400,3055.976726125,0.7574310302734375,0.556671142578125,-0.2990570068359375,1,0.98
2020-05-15 16:06:06.959 -0400,3056.046560125,0.835418701171875,0.55816650390625,-0.305206298828125,1,0.98
2020-05-15 16:06:07.029 -0400,3056.116394125,1.290176391601562,0.59490966796875,-0.2804107666015625,1,0.98
2020-05-15 16:06:07.099 -0400,3056.186229125,1.02911376953125,0.5553131103515625,-0.32305908203125,1,0.98
2020-05-15 16:06:07.169 -0400,3056.256068125,1.083084106445312,0.541839599609375,-0.24749755859375,1,0.98
2020-05-15 16:06:07.239 -0400,3056.325902125,1.197906494140625,0.306640625,-0.187103271484375,1,0.98
2020-05-15 16:06:07.309 -0400,3056.395732166667,0.991729736328125,0.315399169921875,-0.1668701171875,1,0.98
2020-05-15 16:06:07.379 -0400,3056.465564166667,0.8939208984375,0.347869873046875,-0.10675048828125,1,0.98
2020-05-15 16:06:07.449 -0400,3056.535397166667,0.6776123046875,0.267822265625,-0.055419921875,1,0.98
2020-05-15 16:06:07.518 -0400,3056.605234166667,0.6733551025390625,0.29486083984375,-0.0480804443359375,1,0.98
2020-05-15 16:06:07.588 -0400,3056.675070166667,0.9184417724609375,0.3882293701171875,-0.0778350830078125,1,0.98
2020-05-15 16:06:07.658 -0400,3056.744906166667,1.241287231445312,0.4671478271484375,-0.086090087890625,1,0.98
2020-05-15 16:06:07.728 -0400,3056.814740166667,0.9240570068359375,0.4899139404296875,-0.4749603271484375,1,0.98
2020-05-15 16:06:07.798 -0400,3056.884571166667,1.021820068359375,0.3308868408203125,-0.2163543701171875,1,0.98
2020-05-15 16:06:07.868 -0400,3056.954401166667,0.7646942138671875,0.3909912109375,-0.2865447998046875,1,0.98
2020-05-15 16:06:07.937 -0400,3057.024236166667,0.7594451904296875,0.5833587646484375,-0.317138671875,1,0.98
2020-05-15 16:06:08.007 -0400,3057.094073166667,0.7880401611328125,0.5657806396484375,-0.3488311767578125,1,0.98
2020-05-15 16:06:08.077 -0400,3057.163909166667,0.7772369384765625,0.5384063720703125,-0.31219482421875,1,0.98
2020-05-15 16:06:08.147 -0400,3057.233747166667,1.209564208984375,0.603424072265625,-0.3055572509765625,1,0.98
2020-05-15 16:06:08.217 -0400,3057.303583166667,1.111587524414062,0.550445556640625,-0.34942626953125,1,0.98
2020-05-15 16:06:08.287 -0400,3057.373421375,1.182632446289062,0.4996337890625,-0.2122955322265625,1,0.98
2020-05-15 16:06:08.356 -0400,3057.443254375,1.10614013671875,0.3245697021484375,-0.1851959228515625,1,0.98
2020-05-15 16:06:08.426 -0400,3057.513086375,0.924041748046875,0.3362884521484375,-0.1453704833984375,1,0.98
2020-05-15 16:06:08.496 -0400,3057.582918375,0.824005126953125,0.3397064208984375,-0.10467529296875,1,0.98
2020-05-15 16:06:08.566 -0400,3057.652752375,0.6331939697265625,0.2330474853515625,-0.057342529296875,1,0.98
2020-05-15 16:06:08.636 -0400,3057.722592375,0.6185302734375,0.27862548828125,-0.0395660400390625,1,0.98
2020-05-15 16:06:08.706 -0400,3057.792431375,0.8586273193359375,0.3812713623046875,-0.0946044921875,1,0.98
2020-05-15 16:06:08.776 -0400,3057.862272375,1.393417358398438,0.49542236328125,-0.1059722900390625,1,0.98
2020-05-15 16:06:08.845 -0400,3057.932113375,0.861602783203125,0.5763397216796875,-0.489410400390625,1,0.98
2020-05-15 16:06:08.915 -0400,3058.001956375,1.2366943359375,0.371673583984375,-0.2441864013671875,1,0.98
2020-05-15 16:06:08.985 -0400,3058.071798375,0.8486480712890625,0.363311767578125,-0.2963409423828125,1,0.98
2020-05-15 16:06:09.055 -0400,3058.141645375,0.695098876953125,0.5997161865234375,-0.2825164794921875,1,0.98
2020-05-15 16:06:09.125 -0400,3058.211487375,0.7635955810546875,0.561004638671875,-0.3199005126953125,1,0.98
2020-05-15 16:06:09.195 -0400,3058.281328375,0.687164306640625,0.558837890625,-0.26953125,1,0.98
2020-05-15 16:06:09.265 -0400,3058.351170375,1.231063842773438,0.7279815673828125,-0.33746337890625,1,0.98
2020-05-15 16:06:09.334 -0400,3058.421010041667,1.275039672851562,0.5927581787109375,-0.3855743408203125,1,0.98
2020-05-15 16:06:09.404 -0400,3058.490850041667,1.067352294921875,0.415283203125,-0.23492431640625,1,0.98
2020-05-15 16:06:09.474 -0400,3058.560690041667,1.28497314453125,0.363311767578125,-0.18768310546875,1,0.98
2020-05-15 16:06:09.544 -0400,3058.630528041667,0.98480224609375,0.3296966552734375,-0.1307220458984375,1,0.98
2020-05-15 16:06:09.614 -0400,3058.700366041667,0.827301025390625,0.3520965576171875,-0.0530242919921875,1,0.98
2020-05-15 16:06:09.684 -0400,3058.770208041667,0.63153076171875,0.266326904296875,-0.014495849609375,1,0.98
2020-05-15 16:06:09.753 -0400,3058.840050041667,0.648406982421875,0.2792510986328125,-0.0336456298828125,1,0.98
2020-05-15 16:06:09.823 -0400,3058.909893041667,0.8752288818359375,0.3744659423828125,-0.0920867919921875,1,0.98
2020-05-15 16:06:09.893 -0400,3058.979732041667,1.175247192382812,0.4423370361328125,-0.13104248046875,1,0.98
2020-05-15 16:06:09.963 -0400,3059.049575041667,1.09588623046875,0.5811614990234375,-0.477630615234375,1,0.98
2020-05-15 16:06:10.033 -0400,3059.119416041667,1.027725219726562,0.4321441650390625,-0.32635498046875,1,0.98
2020-05-15 16:06:10.103 -0400,3059.189260041667,0.8093719482421875,0.3852081298828125,-0.242889404296875,1,0.98
2020-05-15 16:06:10.173 -0400,3059.259101041667,0.7252044677734375,0.656707763671875,-0.3320770263671875,1,0.98
2020-05-15 16:06:10.242 -0400,3059.328941041667,0.70623779296875,0.7029571533203125,-0.2974700927734375,1,0.98
2020-05-15 16:06:10.312 -0400,3059.398779791667,1.022430419921875,0.780059814453125,-0.2882537841796875,1,0.98
2020-05-15 16:06:10.382 -0400,3059.468619791667,1.265716552734375,0.6628570556640625,-0.2552947998046875,1,0.98
2020-05-15 16:06:10.452 -0400,3059.538458791667,0.98284912109375,0.538665771484375,-0.247650146484375,1,0.98
2020-05-15 16:06:10.522 -0400,3059.608292791667,1.108413696289062,0.540130615234375,-0.1613922119140625,1,0.98
2020-05-15 16:06:10.592 -0400,3059.678133791667,1.114471435546875,0.3663330078125,-0.137847900390625,1,0.98
2020-05-15 16:06:10.662 -0400,3059.747971791667,0.8897247314453125,0.305023193359375,-0.0587921142578125,1,0.98
2020-05-15 16:06:10.732 -0400,3059.817809791667,0.7611083984375,0.28607177734375,0.0039215087890625,1,0.98
2020-05-15 16:06:10.801 -0400,3059.887648791667,0.7677764892578125,0.2792816162109375,-0.01312255859375,1,0.98
2020-05-15 16:06:10.871 -0400,3059.957486791667,0.850067138671875,0.269073486328125,-0.01971435546875,1,0.98
2020-05-15 16:06:10.941 -0400,3060.027323791667,0.9561614990234375,0.443084716796875,-0.198486328125,1,0.98
2020-05-15 16:06:11.011 -0400,3060.097163791667,0.833160400390625,0.573760986328125,-0.5393218994140625,1,0.98
2020-05-15 16:06:11.081 -0400,3060.167003791667,1.162750244140625,0.5621337890625,-0.3694305419921875,1,0.98
2020-05-15 16:06:11.150 -0400,3060.236848791667,0.978424072265625,0.357269287109375,-0.332061767578125,1,0.98
2020-05-15 16:06:11.220 -0400,3060.306694791667,0.8267822265625,0.585845947265625,-0.2910308837890625,1,0.98
2020-05-15 16:06:11.290 -0400,3060.376537166667,0.74993896484375,0.667572021484375,-0.265228271484375,1,0.98
2020-05-15 16:06:11.360 -0400,3060.446380166667,0.823028564453125,0.674530029296875,-0.252105712890625,1,0.98
2020-05-15 16:06:11.430 -0400,3060.516224166667,1.2828369140625,0.7586212158203125,-0.2867431640625,1,0.98
2020-05-15 16:06:11.500 -0400,3060.586064166667,1.232345581054688,0.569580078125,-0.3341522216796875,1,0.98
2020-05-15 16:06:11.570 -0400,3060.655899166667,1.31201171875,0.388824462890625,-0.1746063232421875,1,0.98
2020-05-15 16:06:11.639 -0400,3060.725733166667,0.984039306640625,0.3623809814453125,-0.172760009765625,1,0.98
2020-05-15 16:06:11.709 -0400,3060.795572166667,0.848419189453125,0.375030517578125,-0.1195220947265625,1,0.98
2020-05-15 16:06:11.779 -0400,3060.865413166667,0.8119049072265625,0.258026123046875,0.000762939453125,1,0.98
2020-05-15 16:06:11.849 -0400,3060.935254166667,0.6525115966796875,0.235137939453125,0.0204620361328125,1,0.98
2020-05-15 16:06:11.919 -0400,3061.005090166667,0.7558746337890625,0.3398895263671875,-0.0074920654296875,1,0.98
2020-05-15 16:06:11.989 -0400,3061.074926166667,1.158050537109375,0.480377197265625,-0.16729736328125,1,0.98
2020-05-15 16:06:12.058 -0400,3061.144764166667,1.129562377929688,0.4889068603515625,-0.428497314453125,1,0.98
2020-05-15 16:06:12.128 -0400,3061.214604166667,1.102447509765625,0.410919189453125,-0.3963470458984375,1,0.98
2020-05-15 16:06:12.198 -0400,3061.284443166667,0.7028656005859375,0.3187103271484375,-0.2741546630859375,1,0.98
2020-05-15 16:06:12.268 -0400,3061.354280166667,0.7493133544921875,0.5597686767578125,-0.2496337890625,1,0.98
2020-05-15 16:06:12.346 -0400,3061.4241185,0.827789306640625,0.6980133056640625,-0.29693603515625,1,0.98
2020-05-15 16:06:12.408 -0400,3061.4939565,0.8620758056640625,0.716094970703125,-0.360687255859375,1,0.98
2020-05-15 16:06:12.477 -0400,3061.5637945,1.250930786132812,0.6295928955078125,-0.2161407470703125,1,0.98
2020-05-15 16:06:12.547 -0400,3061.6336275,1.083053588867188,0.5399932861328125,-0.2962493896484375,1,0.98
2020-05-15 16:06:12.617 -0400,3061.7034595,1.326553344726562,0.58013916015625,-0.2320709228515625,1,0.98
2020-05-15 16:06:12.687 -0400,3061.7732955,1.169097900390625,0.317626953125,-0.152587890625,1,0.98
2020-05-15 16:06:12.757 -0400,3061.8431345,0.865142822265625,0.3490753173828125,-0.1458282470703125,1,0.98
2020-05-15 16:06:12.827 -0400,3061.9129725,0.781158447265625,0.307098388671875,-0.04296875,1,0.98
2020-05-15 16:06:12.897 -0400,3061.9828065,0.6865386962890625,0.22674560546875,0.000885009765625,1,0.98
2020-05-15 16:06:12.966 -0400,3062.0526395,0.6720428466796875,0.253204345703125,0.050537109375,1,0.98
2020-05-15 16:06:13.036 -0400,3062.1224725,1.081893920898438,0.420166015625,-0.0079345703125,1,0.98
2020-05-15 16:06:13.106 -0400,3062.1923065,1.101226806640625,0.59149169921875,-0.23052978515625,1,0.98
2020-05-15 16:06:13.176 -0400,3062.2621415,1.336578369140625,0.4834442138671875,-0.290283203125,1,0.98
2020-05-15 16:06:13.246 -0400,3062.3319785,0.871124267578125,0.245391845703125,-0.2736358642578125,1,0.98
2020-05-15 16:06:13.316 -0400,3062.401814666667,0.71124267578125,0.4480743408203125,-0.268310546875,1,0.98
2020-05-15 16:06:13.385 -0400,3062.471651666667,0.7864227294921875,0.6669464111328125,-0.375396728515625,1,0.98
2020-05-15 16:06:13.455 -0400,3062.541486666667,0.766204833984375,0.6388397216796875,-0.4029388427734375,1,0.98
2020-05-15 16:06:13.525 -0400,3062.611316666667,1.157455444335938,0.7259521484375,-0.505126953125,1,0.98
2020-05-15 16:06:13.595 -0400,3062.681147666667,1.55291748046875,0.503021240234375,-0.424560546875,1,0.98
2020-05-15 16:06:13.665 -0400,3062.750979666667,1.205673217773438,0.4205474853515625,-0.283233642578125,1,0.98
2020-05-15 16:06:13.735 -0400,3062.820808666667,1.362640380859375,0.4388580322265625,-0.176361083984375,1,0.98
2020-05-15 16:06:13.804 -0400,3062.890638666667,0.99664306640625,0.315887451171875,-0.116485595703125,1,0.98
2020-05-15 16:06:13.874 -0400,3062.960469666667,0.8130645751953125,0.3464508056640625,-0.0165557861328125,1,0.98
2020-05-15 16:06:13.944 -0400,3063.030297666667,0.7092437744140625,0.2685699462890625,0.0129241943359375,1,0.98
2020-05-15 16:06:14.014 -0400,3063.100126666667,0.676055908203125,0.227508544921875,0.0501708984375,1,0.98
2020-05-15 16:06:14.084 -0400,3063.169959666667,0.7117462158203125,0.3227081298828125,-0.018829345703125,1,0.98
2020-05-15 16:06:14.154 -0400,3063.239789666667,1.097885131835938,0.410400390625,-0.0994720458984375,1,0.98
2020-05-15 16:06:14.223 -0400,3063.309617666667,1.05035400390625,0.496856689453125,-0.494964599609375,1,0.98
2020-05-15 16:06:14.296 -0400,3063.379447875,1.185195922851562,0.47320556640625,-0.52752685546875,1,0.98
2020-05-15 16:06:14.363 -0400,3063.449278875,0.9000244140625,0.3678741455078125,-0.446929931640625,1,0.98
2020-05-15 16:06:14.433 -0400,3063.519112875,0.857757568359375,0.6479034423828125,-0.418670654296875,1,0.98
2020-05-15 16:06:14.503 -0400,3063.588947875,0.826141357421875,0.650054931640625,-0.4439849853515625,1,0.98
2020-05-15 16:06:14.573 -0400,3063.658777875,0.77935791015625,0.658660888671875,-0.4129180908203125,1,0.98
2020-05-15 16:06:14.642 -0400,3063.728608875,1.386932373046875,0.69561767578125,-0.346038818359375,1,0.98
2020-05-15 16:06:14.713 -0400,3063.798439875,1.090988159179688,0.44573974609375,-0.354278564453125,1,0.98
2020-05-15 16:06:14.782 -0400,3063.868272875,1.345672607421875,0.4835052490234375,-0.196563720703125,1,0.98
2020-05-15 16:06:14.852 -0400,3063.938104875,1.190902709960938,0.3433837890625,-0.170867919921875,1,0.98
2020-05-15 16:06:14.922 -0400,3064.007932875,0.826751708984375,0.319244384765625,-0.11102294921875,1,0.98
2020-05-15 16:06:14.992 -0400,3064.077763875,0.6984405517578125,0.28570556640625,-0.028656005859375,1,0.98
2020-05-15 16:06:15.062 -0400,3064.147590875,0.564697265625,0.207611083984375,-0.0031585693359375,1,0.98
2020-05-15 16:06:15.132 -0400,3064.217419875,0.7145538330078125,0.2622222900390625,-0.00042724609375,1,0.98
2020-05-15 16:06:15.201 -0400,3064.287251875,1.0692138671875,0.42413330078125,-0.0563201904296875,1,0.98
2020-05-15 16:06:15.271 -0400,3064.357084875,1.270950317382812,0.500518798828125,-0.277191162109375,1,0.98
2020-05-15 16:06:15.341 -0400,3064.426919875,1.293212890625,0.6011962890625,-0.4202423095703125,1,0.98
2020-05-15 16:06:15.411 -0400,3064.496757875,0.9524383544921875,0.2932891845703125,-0.2152099609375,1,0.98
2020-05-15 16:06:15.480 -0400,3064.566598875,0.8112030029296875,0.4948883056640625,-0.2204437255859375,1,0.98
2020-05-15 16:06:15.550 -0400,3064.636434875,0.7890167236328125,0.6546630859375,-0.28045654296875,1,0.98
2020-05-15 16:06:15.620 -0400,3064.706268875,0.716278076171875,0.6159820556640625,-0.2776947021484375,1,0.98
2020-05-15 16:06:15.690 -0400,3064.776103875,0.92913818359375,0.68035888671875,-0.388824462890625,1,0.98
2020-05-15 16:06:15.760 -0400,3064.845934875,1.520477294921875,0.615814208984375,-0.306427001953125,1,0.98
2020-05-15 16:06:15.830 -0400,3064.915768875,1.026535034179688,0.394012451171875,-0.260711669921875,1,0.98
2020-05-15 16:06:15.900 -0400,3064.985601875,1.317550659179688,0.4490509033203125,-0.11529541015625,1,0.98
2020-05-15 16:06:15.969 -0400,3065.055436875,1.089797973632812,0.33489990234375,-0.1419525146484375,1,0.98
2020-05-15 16:06:16.039 -0400,3065.125273875,0.84234619140625,0.3812408447265625,-0.0455474853515625,1,0.98
2020-05-15 16:06:16.109 -0400,3065.195111875,0.75421142578125,0.27252197265625,-0.0051422119140625,1,0.98
2020-05-15 16:06:16.179 -0400,3065.264944875,0.6624298095703125,0.232391357421875,-0.006591796875,1,0.98
2020-05-15 16:06:16.249 -0400,3065.334778875,0.8704986572265625,0.3490142822265625,-0.0226593017578125,1,0.98
2020-05-15 16:06:16.319 -0400,3065.40461775,1.277572631835938,0.4334259033203125,-0.109771728515625,1,0.98
2020-05-15 16:06:16.388 -0400,3065.47445475,1.060440063476562,0.598602294921875,-0.502838134765625,1,0.98
2020-05-15 16:06:16.458 -0400,3065.54429275,1.013229370117188,0.402618408203125,-0.277130126953125,1,0.98
2020-05-15 16:06:16.528 -0400,3065.61413175,0.8758544921875,0.57598876953125,-0.2554473876953125,1,0.98
2020-05-15 16:06:16.598 -0400,3065.68396775,0.797454833984375,0.56134033203125,-0.3343048095703125,1,0.98
2020-05-15 16:06:16.668 -0400,3065.75379975,0.938629150390625,0.595794677734375,-0.29949951171875,1,0.98
2020-05-15 16:06:16.738 -0400,3065.82363275,1.028717041015625,0.4647216796875,-0.285797119140625,1,0.98
2020-05-15 16:06:16.807 -0400,3065.89346175,1.4296875,0.4889678955078125,-0.3237762451171875,1,0.98
2020-05-15 16:06:16.878 -0400,3065.96329475,1.1981201171875,0.4573822021484375,-0.28656005859375,1,0.98
2020-05-15 16:06:16.947 -0400,3066.03313075,1.031280517578125,0.4656219482421875,-0.1947021484375,1,0.98
2020-05-15 16:06:17.017 -0400,3066.10296675,0.9428253173828125,0.337921142578125,-0.1074371337890625,1,0.98
2020-05-15 16:06:17.087 -0400,3066.17280475,0.6987457275390625,0.2918548583984375,-0.05865478515625,1,0.98
2020-05-15 16:06:17.157 -0400,3066.24264275,0.5380706787109375,0.315643310546875,-0.0170745849609375,1,0.98
2020-05-15 16:06:17.227 -0400,3066.31247875,0.7718658447265625,0.34259033203125,-0.0336151123046875,1,0.98
2020-05-15 16:06:17.296 -0400,3066.382314125,1.036941528320312,0.283355712890625,-0.00311279296875,1,0.98
2020-05-15 16:06:17.366 -0400,3066.452149125,1.06903076171875,0.3628387451171875,-0.090606689453125,1,0.98
2020-05-15 16:06:17.436 -0400,3066.521990125,1.312652587890625,0.37420654296875,-0.1925506591796875,1,0.98
2020-05-15 16:06:17.506 -0400,3066.591832125,1.084243774414062,0.4891357421875,-0.530029296875,1,0.98
2020-05-15 16:06:17.576 -0400,3066.661674125,0.8874664306640625,0.3216552734375,-0.42156982421875,1,0.98
2020-05-15 16:06:17.645 -0400,3066.731515125,0.900360107421875,0.274383544921875,-0.3416595458984375,1,0.98
2020-05-15 16:06:17.715 -0400,3066.801353125,0.5896148681640625,0.36126708984375,-0.2860870361328125,1,0.98
2020-05-15 16:06:17.785 -0400,3066.871189125,0.4658966064453125,0.3485107421875,-0.1681976318359375,1,0.98
2020-05-15 16:06:17.855 -0400,3066.941024125,0.6526947021484375,0.44781494140625,-0.1667938232421875,1,0.98
2020-05-15 16:06:17.925 -0400,3067.010861125,0.8697052001953125,0.487396240234375,-0.2665863037109375,1,0.98
2020-05-15 16:06:17.995 -0400,3067.080698125,1.56329345703125,0.5841217041015625,-0.327423095703125,1,0.98
2020-05-15 16:06:18.065 -0400,3067.150530125,1.46710205078125,0.5251922607421875,-0.3253173828125,1,0.98
2020-05-15 16:06:18.134 -0400,3067.220362125,0.907196044921875,0.507080078125,-0.2675018310546875,1,0.98
2020-05-15 16:06:18.204 -0400,3067.290196125,1.085983276367188,0.282623291015625,-0.0293121337890625,1,0.98
2020-05-15 16:06:18.274 -0400,3067.360030125,0.808929443359375,0.3147125244140625,0.0232391357421875,1,0.98
2020-05-15 16:06:18.344 -0400,3067.429867166667,0.733154296875,0.3653564453125,0.0959320068359375,1,0.98
2020-05-15 16:06:18.414 -0400,3067.499706166667,0.7845458984375,0.3028717041015625,0.1384429931640625,1,0.98
2020-05-15 16:06:18.484 -0400,3067.569549166667,0.9043426513671875,0.2823638916015625,0.0895843505859375,1,0.98
2020-05-15 16:06:18.553 -0400,3067.639384166667,1.136245727539062,0.3658599853515625,0.01263427734375,1,0.98
2020-05-15 16:06:18.623 -0400,3067.709222166667,1.381591796875,0.4686737060546875,-0.140350341796875,1,0.98
2020-05-15 16:06:18.693 -0400,3067.779059166667,1.203369140625,0.46875,-0.3044281005859375,1,0.98
2020-05-15 16:06:18.763 -0400,3067.848896166667,0.8773193359375,0.3075408935546875,-0.2919921875,1,0.98
2020-05-15 16:06:18.833 -0400,3067.918734166667,0.9250030517578125,0.2572021484375,-0.110595703125,1,0.98
2020-05-15 16:06:18.903 -0400,3067.988572166667,0.6790618896484375,0.474884033203125,-0.14404296875,1,0.98
2020-05-15 16:06:18.973 -0400,3068.058413166667,0.5666351318359375,0.4787139892578125,-0.10809326171875,1,0.98
2020-05-15 16:06:19.043 -0400,3068.128252166667,0.6703338623046875,0.3997039794921875,-0.1273651123046875,1,0.98
2020-05-15 16:06:19.112 -0400,3068.198095166667,0.835601806640625,0.4570770263671875,-0.189971923828125,1,0.98
2020-05-15 16:06:19.182 -0400,3068.267943166667,1.1185302734375,0.4876251220703125,-0.26544189453125,1,0.98
2020-05-15 16:06:19.252 -0400,3068.337787166667,1.4283447265625,0.486083984375,-0.3002471923828125,1,0.98
2020-05-15 16:06:19.322 -0400,3068.407625125,0.8459320068359375,0.368133544921875,-0.1879730224609375,1,0.98
2020-05-15 16:06:19.392 -0400,3068.477466125,1.089981079101562,0.364593505859375,-0.102630615234375,1,0.98
2020-05-15 16:06:19.461 -0400,3068.547305125,0.8833770751953125,0.2941131591796875,-0.03131103515625,1,0.98
2020-05-15 16:06:19.531 -0400,3068.617141125,0.7813568115234375,0.3526458740234375,-0.0325775146484375,1,0.98
2020-05-15 16:06:19.601 -0400,3068.686978125,0.78253173828125,0.333251953125,-0.01361083984375,1,0.98
2020-05-15 16:06:19.671 -0400,3068.756818125,0.7482757568359375,0.2933349609375,-0.0595703125,1,0.98
2020-05-15 16:06:19.741 -0400,3068.826658125,0.898956298828125,0.322296142578125,-0.0626983642578125,1,0.98
2020-05-15 16:06:19.811 -0400,3068.896501125,1.19354248046875,0.4266815185546875,-0.0897979736328125,1,0.98
2020-05-15 16:06:19.881 -0400,3068.966346125,1.4462890625,0.5331268310546875,-0.1323089599609375,1,0.98
2020-05-15 16:06:19.951 -0400,3069.036190125,0.8727569580078125,0.47540283203125,-0.2753448486328125,1,0.98
2020-05-15 16:06:20.020 -0400,3069.106035125,0.8508148193359375,0.292022705078125,-0.1399688720703125,1,0.98
2020-05-15 16:06:20.090 -0400,3069.175876125,0.7400665283203125,0.3525238037109375,-0.188079833984375,1,0.98
2020-05-15 16:06:20.160 -0400,3069.245719125,0.5992279052734375,0.3846282958984375,-0.21368408203125,1,0.98
2020-05-15 16:06:20.230 -0400,3069.315563125,0.63494873046875,0.3354339599609375,-0.18365478515625,1,0.98
2020-05-15 16:06:20.300 -0400,3069.385409125,0.7974395751953125,0.345001220703125,-0.230133056640625,1,0.98
2020-05-15 16:06:20.369 -0400,3069.455251125,0.8616943359375,0.3031005859375,-0.3265228271484375,1,0.98
2020-05-15 16:06:20.439 -0400,3069.525095125,1.035003662109375,0.5108642578125,-0.2463836669921875,1,0.98
2020-05-15 16:06:20.509 -0400,3069.594939125,1.423538208007812,0.4947052001953125,-0.1862945556640625,1,0.98
2020-05-15 16:06:20.579 -0400,3069.664780125,0.9695892333984375,0.60015869140625,-0.274627685546875,1,0.98
2020-05-15 16:06:20.649 -0400,3069.734623125,0.9103851318359375,0.44024658203125,-0.1350250244140625,1,0.98
2020-05-15 16:06:20.719 -0400,3069.804464125,0.9416656494140625,0.2890472412109375,-0.0823822021484375,1,0.98
2020-05-15 16:06:20.788 -0400,3069.874305125,0.81817626953125,0.3756561279296875,-0.0682373046875,1,0.98
2020-05-15 16:06:20.859 -0400,3069.944148125,0.806671142578125,0.418365478515625,-0.0697784423828125,1,0.98
2020-05-15 16:06:20.929 -0400,3070.013994125,0.8058929443359375,0.34613037109375,-0.0387115478515625,1,0.98
2020-05-15 16:06:20.998 -0400,3070.083838125,0.815155029296875,0.33074951171875,-0.0584716796875,1,0.98
2020-05-15 16:06:21.068 -0400,3070.153674125,0.93231201171875,0.3526611328125,-0.1113739013671875,1,0.98
2020-05-15 16:06:21.138 -0400,3070.223515125,1.110260009765625,0.3804473876953125,-0.1674957275390625,1,0.98
2020-05-15 16:06:21.207 -0400,3070.293359125,1.292373657226562,0.390655517578125,-0.1701812744140625,1,0.98
2020-05-15 16:06:21.278 -0400,3070.363202125,1.027923583984375,0.4672088623046875,-0.323516845703125,1,0.98
2020-05-15 16:06:21.347 -0400,3070.433043,0.845184326171875,0.2884368896484375,-0.2520599365234375,1,0.98
2020-05-15 16:06:21.417 -0400,3070.502885,0.881866455078125,0.282318115234375,-0.20751953125,1,0.98
2020-05-15 16:06:21.487 -0400,3070.572727,0.6618499755859375,0.2889251708984375,-0.233642578125,1,0.98
2020-05-15 16:06:21.557 -0400,3070.642569,0.604522705078125,0.3447265625,-0.2090301513671875,1,0.98
2020-05-15 16:06:21.627 -0400,3070.712414,0.658843994140625,0.2675933837890625,-0.18328857421875,1,0.98
2020-05-15 16:06:21.697 -0400,3070.782257,0.6971435546875,0.350067138671875,-0.213165283203125,1,0.98
2020-05-15 16:06:21.766 -0400,3070.852095,0.912200927734375,0.4233551025390625,-0.238067626953125,1,0.98
2020-05-15 16:06:21.836 -0400,3070.921937,1.56103515625,0.53887939453125,-0.2268829345703125,1,0.98
2020-05-15 16:06:21.907 -0400,3070.991777,1.383880615234375,0.688812255859375,-0.411346435546875,1,0.98
2020-05-15 16:06:21.976 -0400,3071.061615,0.82025146484375,0.2607574462890625,-0.159515380859375,1,0.98
2020-05-15 16:06:22.046 -0400,3071.131455,0.9907073974609375,0.3114166259765625,-0.1194000244140625,1,0.98
2020-05-15 16:06:22.116 -0400,3071.201294,0.763458251953125,0.39898681640625,-0.1586151123046875,1,0.98
2020-05-15 16:06:22.185 -0400,3071.271133,0.68780517578125,0.3470611572265625,-0.057891845703125,1,0.98
2020-05-15 16:06:22.255 -0400,3071.340972,0.7814178466796875,0.305206298828125,-0.0239410400390625,1,0.98
2020-05-15 16:06:22.325 -0400,3071.410811625,0.8531646728515625,0.3482208251953125,-0.049407958984375,1,0.98
2020-05-15 16:06:22.395 -0400,3071.480650625,1.0062255859375,0.3734893798828125,-0.0823822021484375,1,0.98
2020-05-15 16:06:22.465 -0400,3071.550491625,1.324630737304688,0.4716339111328125,-0.16876220703125,1,0.98
2020-05-15 16:06:22.535 -0400,3071.620333625,0.86737060546875,0.4626312255859375,-0.36871337890625,1,0.98
2020-05-15 16:06:22.604 -0400,3071.690170625,1.075469970703125,0.35736083984375,-0.2167205810546875,1,0.98
2020-05-15 16:06:22.674 -0400,3071.760004625,0.6079864501953125,0.33782958984375,-0.240753173828125,1,0.98
2020-05-15 16:06:22.744 -0400,3071.829840625,0.4995269775390625,0.451263427734375,-0.201690673828125,1,0.98
2020-05-15 16:06:22.814 -0400,3071.899674625,0.83575439453125,0.4958648681640625,-0.259307861328125,1,0.98
2020-05-15 16:06:22.884 -0400,3071.969510625,0.761627197265625,0.4757843017578125,-0.2873077392578125,1,0.98
2020-05-15 16:06:22.954 -0400,3072.039350625,1.2127685546875,0.6630401611328125,-0.45904541015625,1,0.98
2020-05-15 16:06:23.023 -0400,3072.109191625,1.198883056640625,0.5039215087890625,-0.296417236328125,1,0.98
2020-05-15 16:06:23.093 -0400,3072.179032625,0.956787109375,0.4736480712890625,-0.296783447265625,1,0.98
2020-05-15 16:06:23.163 -0400,3072.248871625,1.13177490234375,0.437469482421875,-0.238067626953125,1,0.98
2020-05-15 16:06:23.233 -0400,3072.318711625,0.9891357421875,0.3477020263671875,-0.17413330078125,1,0.98
2020-05-15 16:06:23.303 -0400,3072.388549125,0.774261474609375,0.3488616943359375,-0.1171875,1,0.98
2020-05-15 16:06:23.373 -0400,3072.458384125,0.7706756591796875,0.353668212890625,-0.0645751953125,1,0.98
2020-05-15 16:06:23.443 -0400,3072.528221125,0.7730255126953125,0.2484283447265625,-0.027191162109375,1,0.98
2020-05-15 16:06:23.512 -0400,3072.598058125,0.948974609375,0.3140411376953125,-0.0353851318359375,1,0.98
2020-05-15 16:06:23.582 -0400,3072.667893125,1.109527587890625,0.4735107421875,-0.159637451171875,1,0.98
2020-05-15 16:06:23.652 -0400,3072.737732125,0.9055023193359375,0.53790283203125,-0.4260711669921875,1,0.98
2020-05-15 16:06:23.722 -0400,3072.807572125,1.13067626953125,0.3546600341796875,-0.3415069580078125,1,0.98
2020-05-15 16:06:23.792 -0400,3072.877409125,0.816650390625,0.13787841796875,-0.2349395751953125,1,0.98
2020-05-15 16:06:23.862 -0400,3072.947251125,0.6226043701171875,0.449554443359375,-0.2276153564453125,1,0.98
2020-05-15 16:06:23.932 -0400,3073.017096125,0.6829376220703125,0.657440185546875,-0.3072662353515625,1,0.98
2020-05-15 16:06:24.001 -0400,3073.086940125,0.815460205078125,0.5897369384765625,-0.348724365234375,1,0.98
2020-05-15 16:06:24.071 -0400,3073.156786125,1.16937255859375,0.63690185546875,-0.4036865234375,1,0.98
2020-05-15 16:06:24.141 -0400,3073.226627125,1.186325073242188,0.5547943115234375,-0.3751678466796875,1,0.98
2020-05-15 16:06:24.211 -0400,3073.296466125,1.136734008789062,0.60430908203125,-0.292816162109375,1,0.98
2020-05-15 16:06:24.281 -0400,3073.366309125,1.09014892578125,0.4802703857421875,-0.28533935546875,1,0.98
2020-05-15 16:06:24.351 -0400,3073.436149041667,0.81878662109375,0.3754119873046875,-0.20062255859375,1,0.98
2020-05-15 16:06:24.420 -0400,3073.505995041667,0.7787628173828125,0.2974395751953125,-0.1302337646484375,1,0.98
2020-05-15 16:06:24.490 -0400,3073.575837041667,0.908538818359375,0.2285003662109375,-0.072540283203125,1,0.98
2020-05-15 16:06:24.560 -0400,3073.645678041667,0.838409423828125,0.268951416015625,0.0068359375,1,0.98
2020-05-15 16:06:24.630 -0400,3073.715520041667,0.778228759765625,0.4045257568359375,-0.0572967529296875,1,0.98
2020-05-15 16:06:24.700 -0400,3073.785360041667,0.8237762451171875,0.509490966796875,-0.2534637451171875,1,0.98
2020-05-15 16:06:24.770 -0400,3073.855200041667,1.294830322265625,0.4392547607421875,-0.351226806640625,1,0.98
2020-05-15 16:06:24.839 -0400,3073.925043041667,0.9251861572265625,0.1757354736328125,-0.25189208984375,1,0.98
2020-05-15 16:06:24.910 -0400,3073.994882041667,0.6199188232421875,0.33526611328125,-0.2999725341796875,1,0.98
2020-05-15 16:06:24.979 -0400,3074.064717041667,0.737762451171875,0.5577850341796875,-0.3492889404296875,1,0.98
2020-05-15 16:06:25.049 -0400,3074.134552041667,0.78741455078125,0.536590576171875,-0.386688232421875,1,0.98
2020-05-15 16:06:25.119 -0400,3074.204390041667,1.108657836914062,0.707672119140625,-0.479766845703125,1,0.98
2020-05-15 16:06:25.189 -0400,3074.274227041667,1.384307861328125,0.718536376953125,-0.420654296875,1,0.98
2020-05-15 16:06:25.259 -0400,3074.344057041667,1.035995483398438,0.4849700927734375,-0.27288818359375,1,0.98
2020-05-15 16:06:25.328 -0400,3074.413885625,1.11187744140625,0.5792999267578125,-0.2324676513671875,1,0.98
2020-05-15 16:06:25.398 -0400,3074.483720625,0.9396209716796875,0.3648834228515625,-0.170989990234375,1,0.98
2020-05-15 16:06:25.468 -0400,3074.553559625,0.81884765625,0.3433990478515625,-0.114898681640625,1,0.98
2020-05-15 16:06:25.538 -0400,3074.623398625,0.795379638671875,0.2911376953125,-0.077606201171875,1,0.98
2020-05-15 16:06:25.608 -0400,3074.693236625,0.7722015380859375,0.2192230224609375,-0.0392913818359375,1,0.98
2020-05-15 16:06:25.677 -0400,3074.763073625,0.802764892578125,0.30474853515625,-0.0580291748046875,1,0.98
2020-05-15 16:06:25.747 -0400,3074.832915625,0.914520263671875,0.4364013671875,-0.19085693359375,1,0.98
2020-05-15 16:06:25.817 -0400,3074.902754625,1.242080688476562,0.3941192626953125,-0.1525115966796875,1,0.98
2020-05-15 16:06:25.887 -0400,3074.972596625,1.202072143554688,0.6317138671875,-0.5363006591796875,1,0.98
2020-05-15 16:06:25.957 -0400,3075.042433625,0.711883544921875,0.3950042724609375,-0.2904052734375,1,0.98
2020-05-15 16:06:26.027 -0400,3075.112274625,0.709381103515625,0.3582000732421875,-0.335174560546875,1,0.98
2020-05-15 16:06:26.097 -0400,3075.182116625,0.7064361572265625,0.4971160888671875,-0.42730712890625,1,0.98
2020-05-15 16:06:26.166 -0400,3075.251957625,0.9221954345703125,0.5383148193359375,-0.445465087890625,1,0.98
2020-05-15 16:06:26.238 -0400,3075.321799625,1.487289428710938,0.5473785400390625,-0.3779296875,1,0.98
2020-05-15 16:06:26.306 -0400,3075.391641625,1.228988647460938,0.4969482421875,-0.339385986328125,1,0.98
2020-05-15 16:06:26.376 -0400,3075.461482625,1.196914672851562,0.5006561279296875,-0.1991119384765625,1,0.98
2020-05-15 16:06:26.446 -0400,3075.531323625,1.033462524414062,0.409332275390625,-0.17718505859375,1,0.98
2020-05-15 16:06:26.516 -0400,3075.601162625,0.749847412109375,0.29083251953125,-0.0423431396484375,1,0.98
2020-05-15 16:06:26.585 -0400,3075.670999625,0.6416015625,0.2686614990234375,-0.012847900390625,1,0.98
2020-05-15 16:06:26.655 -0400,3075.740840625,0.6222991943359375,0.2328643798828125,0.0124664306640625,1,0.98
2020-05-15 16:06:26.725 -0400,3075.810680625,0.7690887451171875,0.2942352294921875,0.0255889892578125,1,0.98
2020-05-15 16:06:26.795 -0400,3075.880518625,0.934051513671875,0.467071533203125,-0.1994171142578125,1,0.98
2020-05-15 16:06:26.865 -0400,3075.950358625,1.281234741210938,0.5419769287109375,-0.3709564208984375,1,0.98
2020-05-15 16:06:26.935 -0400,3076.020203625,1.339553833007812,0.4236602783203125,-0.4618682861328125,1,0.98
2020-05-15 16:06:27.005 -0400,3076.090047625,0.8258056640625,0.26092529296875,-0.3104400634765625,1,0.98
2020-05-15 16:06:27.074 -0400,3076.159889625,0.6261749267578125,0.380218505859375,-0.292877197265625,1,0.98
2020-05-15 16:06:27.144 -0400,3076.229732625,0.6302032470703125,0.5261688232421875,-0.32891845703125,1,0.98
2020-05-15 16:06:27.214 -0400,3076.299578625,0.7486114501953125,0.484649658203125,-0.296722412109375,1,0.98
2020-05-15 16:06:27.284 -0400,3076.369427625,1.21160888671875,0.63885498046875,-0.37567138671875,1,0.98
2020-05-15 16:06:27.354 -0400,3076.43927875,1.463455200195312,0.5638580322265625,-0.3897705078125,1,0.98
2020-05-15 16:06:27.424 -0400,3076.50912675,1.173202514648438,0.42681884765625,-0.2467803955078125,1,0.98
2020-05-15 16:06:27.494 -0400,3076.57897475,1.021759033203125,0.4477996826171875,-0.186767578125,1,0.98
2020-05-15 16:06:27.563 -0400,3076.64882175,0.6950836181640625,0.335479736328125,-0.1454925537109375,1,0.98
2020-05-15 16:06:27.633 -0400,3076.71867075,0.6481170654296875,0.33502197265625,-0.0860748291015625,1,0.98
2020-05-15 16:06:27.703 -0400,3076.78851475,0.719696044921875,0.2516937255859375,-0.0462799072265625,1,0.98
2020-05-15 16:06:27.773 -0400,3076.85835175,0.8822784423828125,0.2491607666015625,-0.007415771484375,1,0.98
2020-05-15 16:06:27.843 -0400,3076.92819175,1.010543823242188,0.4057159423828125,-0.0847015380859375,1,0.98
2020-05-15 16:06:27.913 -0400,3076.99803275,1.103912353515625,0.516387939453125,-0.2797698974609375,1,0.98
2020-05-15 16:06:27.983 -0400,3077.06787175,1.061386108398438,0.4191436767578125,-0.4043121337890625,1,0.98
2020-05-15 16:06:28.052 -0400,3077.13770975,1.0360107421875,0.260711669921875,-0.148681640625,1,0.98
2020-05-15 16:06:28.122 -0400,3077.20754975,0.6256256103515625,0.359649658203125,-0.3121337890625,1,0.98
2020-05-15 16:06:28.192 -0400,3077.27738775,0.6157073974609375,0.5178985595703125,-0.242431640625,1,0.98
2020-05-15 16:06:28.262 -0400,3077.34722475,0.838409423828125,0.5138397216796875,-0.3006439208984375,1,0.98
2020-05-15 16:06:28.338 -0400,3077.417063416667,1.009384155273438,0.5917205810546875,-0.37158203125,1,0.98
2020-05-15 16:06:28.402 -0400,3077.486899416667,1.350067138671875,0.6255340576171875,-0.3504486083984375,1,0.98
2020-05-15 16:06:28.471 -0400,3077.556739416667,1.00567626953125,0.5040435791015625,-0.3379669189453125,1,0.98
2020-05-15 16:06:28.541 -0400,3077.626576416667,1.049835205078125,0.5567626953125,-0.2802276611328125,1,0.98
2020-05-15 16:06:28.611 -0400,3077.696415416667,1.014785766601562,0.315155029296875,-0.148529052734375,1,0.98
2020-05-15 16:06:28.681 -0400,3077.766256416667,0.8050994873046875,0.3341217041015625,-0.121490478515625,1,0.98
2020-05-15 16:06:28.751 -0400,3077.836092416667,0.7860107421875,0.341400146484375,-0.0927581787109375,1,0.98
2020-05-15 16:06:28.820 -0400,3077.905930416667,0.766143798828125,0.26104736328125,-0.031463623046875,1,0.98
2020-05-15 16:06:28.890 -0400,3077.975766416667,0.772735595703125,0.276641845703125,-0.0110626220703125,1,0.98
2020-05-15 16:06:28.960 -0400,3078.045605416667,0.96466064453125,0.3602752685546875,-0.0242156982421875,1,0.98
2020-05-15 16:06:29.030 -0400,3078.115447416667,0.9055328369140625,0.4610595703125,-0.169403076171875,1,0.98
2020-05-15 16:06:29.100 -0400,3078.185290416667,1.317169189453125,0.55340576171875,-0.42498779296875,1,0.98
2020-05-15 16:06:29.170 -0400,3078.255130416667,0.9446563720703125,0.28729248046875,-0.31475830078125,1,0.98
2020-05-15 16:06:29.239 -0400,3078.324970416667,0.6752166748046875,0.2720489501953125,-0.3605499267578125,1,0.98
2020-05-15 16:06:29.309 -0400,3078.3948045,0.6083984375,0.4429168701171875,-0.366668701171875,1,0.98
2020-05-15 16:06:29.379 -0400,3078.4646505,0.5558319091796875,0.5184783935546875,-0.4414825439453125,1,0.98
2020-05-15 16:06:29.449 -0400,3078.5344975,0.8495330810546875,0.5301361083984375,-0.42596435546875,1,0.98
2020-05-15 16:06:29.519 -0400,3078.6043435,1.413101196289062,0.618377685546875,-0.3873291015625,1,0.98
2020-05-15 16:06:29.589 -0400,3078.6741885,1.467376708984375,0.6252593994140625,-0.322265625,1,0.98
2020-05-15 16:06:29.659 -0400,3078.7440275,1.525436401367188,0.439788818359375,-0.192626953125,1,0.98
2020-05-15 16:06:29.728 -0400,3078.8138665,0.9113616943359375,0.346282958984375,-0.1693878173828125,1,0.98
2020-05-15 16:06:29.798 -0400,3078.8837075,0.63250732421875,0.3419189453125,-0.0723876953125,1,0.98
2020-05-15 16:06:29.868 -0400,3078.9535495,0.5013580322265625,0.2220458984375,-0.0115203857421875,1,0.98
2020-05-15 16:06:29.938 -0400,3079.0233925,0.5131988525390625,0.1869964599609375,-0.000885009765625,1,0.98
2020-05-15 16:06:30.008 -0400,3079.0932345,0.49169921875,0.2614898681640625,-0.0169677734375,1,0.98
2020-05-15 16:06:30.078 -0400,3079.1630735,1.159088134765625,0.489898681640625,-0.0521392822265625,1,0.98
2020-05-15 16:06:30.147 -0400,3079.2329165,1.758193969726562,0.78802490234375,-0.67572021484375,1,0.98
2020-05-15 16:06:30.217 -0400,3079.3027585,1.242584228515625,0.6277008056640625,-0.4597625732421875,1,0.98
2020-05-15 16:06:30.287 -0400,3079.3725955,0.7403717041015625,0.378082275390625,-0.3957672119140625,1,0.98
2020-05-15 16:06:30.357 -0400,3079.442430291667,0.4725189208984375,0.455047607421875,-0.4013671875,1,0.98
2020-05-15 16:06:30.427 -0400,3079.512270291667,0.3823089599609375,0.70648193359375,-0.296630859375,1,0.98
2020-05-15 16:06:30.497 -0400,3079.582107291667,0.7859954833984375,0.8697509765625,-0.2971649169921875,1,0.98
2020-05-15 16:06:30.566 -0400,3079.651946291667,2.140335083007812,1.29046630859375,-0.4391326904296875,1,0.98
2020-05-15 16:06:30.636 -0400,3079.721784291667,1.910995483398438,0.48272705078125,-0.307464599609375,1,0.98
2020-05-15 16:06:30.706 -0400,3079.791626291667,1.532958984375,0.774566650390625,-0.2360382080078125,1,0.98
2020-05-15 16:06:30.776 -0400,3079.861465291667,0.9573822021484375,0.356842041015625,-0.2110443115234375,1,0.98
2020-05-15 16:06:30.846 -0400,3079.931305291667,0.6820220947265625,0.18109130859375,-0.0548553466796875,1,0.98
2020-05-15 16:06:30.916 -0400,3080.001145291667,0.530242919921875,0.1134185791015625,-0.0540008544921875,1,0.98
2020-05-15 16:06:30.986 -0400,3080.070986291667,0.4908905029296875,0.08221435546875,0.0005035400390625,1,0.98
2020-05-15 16:06:31.055 -0400,3080.140829291667,0.493072509765625,0.15728759765625,0.00079345703125,1,0.98
2020-05-15 16:06:31.125 -0400,3080.210669291667,1.297866821289062,0.89007568359375,0.023345947265625,1,0.98
2020-05-15 16:06:31.195 -0400,3080.280512291667,1.743820190429688,0.9575042724609375,-0.962738037109375,1,0.98
2020-05-15 16:06:31.265 -0400,3080.350359291667,1.267440795898438,0.8091583251953125,-0.3978271484375,1,0.98
2020-05-15 16:06:31.335 -0400,3080.420204041667,0.73486328125,0.304107666015625,-0.482666015625,1,0.98
2020-05-15 16:06:31.405 -0400,3080.490045041667,0.50592041015625,0.611907958984375,-0.430267333984375,1,0.98
2020-05-15 16:06:31.474 -0400,3080.559890041667,0.6541290283203125,1.060089111328125,-0.39471435546875,1,0.98
2020-05-15 16:06:31.545 -0400,3080.629732041667,1.034957885742188,0.802398681640625,-0.2078399658203125,1,0.98
2020-05-15 16:06:31.614 -0400,3080.699575041667,1.929061889648438,0.6626129150390625,-0.353424072265625,1,0.98
2020-05-15 16:06:31.684 -0400,3080.769418041667,1.82452392578125,0.6395263671875,-0.2698822021484375,1,0.98
2020-05-15 16:06:31.754 -0400,3080.839263041667,1.302841186523438,0.4783477783203125,-0.19476318359375,1,0.98
2020-05-15 16:06:31.824 -0400,3080.909107041667,0.84918212890625,0.314178466796875,-0.127105712890625,1,0.98
2020-05-15 16:06:31.894 -0400,3080.978954041667,0.572601318359375,0.205780029296875,-0.010498046875,1,0.98
2020-05-15 16:06:31.963 -0400,3081.048794041667,0.575225830078125,0.14874267578125,-0.0209503173828125,1,0.98
2020-05-15 16:06:32.033 -0400,3081.118637041667,0.5785064697265625,0.080078125,0.0601806640625,1,0.98
2020-05-15 16:06:32.103 -0400,3081.188481041667,0.6300811767578125,0.3290557861328125,0.1550140380859375,1,0.98
2020-05-15 16:06:32.173 -0400,3081.258326041667,0.9375,1.220062255859375,-0.392852783203125,1,0.98
2020-05-15 16:06:32.243 -0400,3081.328167041667,1.50189208984375,0.92578125,-0.5851898193359375,1,0.98
2020-05-15 16:06:32.313 -0400,3081.398011375,1.232772827148438,0.9316253662109375,-0.5169830322265625,1,0.98
2020-05-15 16:06:32.382 -0400,3081.467857375,0.7017364501953125,0.44403076171875,-0.340301513671875,1,0.98
2020-05-15 16:06:32.453 -0400,3081.537698375,0.833892822265625,0.902862548828125,-0.49395751953125,1,0.98
2020-05-15 16:06:32.522 -0400,3081.607537375,0.9514007568359375,1.192855834960938,-0.5435028076171875,1,0.98
2020-05-15 16:06:32.592 -0400,3081.677377375,1.78643798828125,1.042098999023438,-0.6209564208984375,1,0.98
2020-05-15 16:06:32.662 -0400,3081.747222375,1.83673095703125,0.4574432373046875,-0.1535797119140625,1,0.98
2020-05-15 16:06:32.732 -0400,3081.817061375,1.66436767578125,0.5670166015625,-0.1964263916015625,1,0.98
2020-05-15 16:06:32.801 -0400,3081.886902375,1.001388549804688,0.4646453857421875,-0.211334228515625,1,0.98
2020-05-15 16:06:32.871 -0400,3081.956740375,0.88555908203125,0.300323486328125,-0.00213623046875,1,0.98
2020-05-15 16:06:32.941 -0400,3082.026580375,0.8978271484375,0.081390380859375,0.0907440185546875,1,0.98
2020-05-15 16:06:33.011 -0400,3082.096418375,0.5738983154296875,0.1214599609375,0.1097412109375,1,0.98
2020-05-15 16:06:33.081 -0400,3082.166259375,0.6171875,0.5207366943359375,-0.022064208984375,1,0.98
2020-05-15 16:06:33.151 -0400,3082.236097375,0.5244293212890625,1.15240478515625,-0.2117156982421875,1,0.98
2020-05-15 16:06:33.221 -0400,3082.305936375,1.047225952148438,1.061233520507812,-0.3549346923828125,1,0.98
2020-05-15 16:06:33.291 -0400,3082.375773375,0.844879150390625,0.6741943359375,-0.2711944580078125,1,0.98
2020-05-15 16:06:33.360 -0400,3082.445612041667,0.7689666748046875,0.4954071044921875,-0.157440185546875,1,0.98
2020-05-15 16:06:33.430 -0400,3082.515452041667,1.091888427734375,0.6501312255859375,-0.400726318359375,1,0.98
2020-05-15 16:06:33.500 -0400,3082.585293041667,1.125961303710938,0.7437896728515625,-0.3752593994140625,1,0.98
2020-05-15 16:06:33.570 -0400,3082.655132041667,1.535736083984375,0.9688873291015625,-0.431610107421875,1,0.98
2020-05-15 16:06:33.640 -0400,3082.724969041667,1.26751708984375,0.701385498046875,-0.4089508056640625,1,0.98
2020-05-15 16:06:33.709 -0400,3082.794811041667,1.16986083984375,0.3563995361328125,-0.146759033203125,1,0.98
2020-05-15 16:06:33.780 -0400,3082.864657041667,0.8115997314453125,0.406036376953125,-0.1972503662109375,1,0.98
2020-05-15 16:06:33.849 -0400,3082.934502041667,0.652496337890625,0.3834991455078125,-0.079315185546875,1,0.98
2020-05-15 16:06:33.919 -0400,3083.004344041667,0.8400726318359375,0.3108062744140625,-0.0494232177734375,1,0.98
2020-05-15 16:06:33.989 -0400,3083.074189041667,1.019332885742188,0.2259368896484375,0.0699920654296875,1,0.98
2020-05-15 16:06:34.059 -0400,3083.144036041667,0.98699951171875,0.3177642822265625,0.00439453125,1,0.98
2020-05-15 16:06:34.129 -0400,3083.213882041667,0.8874969482421875,0.4319000244140625,-0.0593719482421875,1,0.98
2020-05-15 16:06:34.214 -0400,3083.283721041667,1.334365844726562,0.51824951171875,-0.4083709716796875,1,0.98
2020-05-15 16:06:34.268 -0400,3083.353559041667,0.91949462890625,0.283203125,-0.366851806640625,1,0.98
2020-05-15 16:06:34.338 -0400,3083.42340175,0.6614532470703125,0.43658447265625,-0.398284912109375,1,0.98
2020-05-15 16:06:34.408 -0400,3083.49324375,0.7138519287109375,0.628387451171875,-0.361328125,1,0.98
2020-05-15 16:06:34.478 -0400,3083.56308175,0.9411163330078125,0.7292327880859375,-0.374267578125,1,0.98
2020-05-15 16:06:34.548 -0400,3083.63292375,1.447113037109375,0.8703765869140625,-0.36566162109375,1,0.98
2020-05-15 16:06:34.617 -0400,3083.70276775,1.111007690429688,0.654754638671875,-0.4408111572265625,1,0.98
2020-05-15 16:06:34.687 -0400,3083.77261375,1.075271606445312,0.59332275390625,-0.2476654052734375,1,0.98
2020-05-15 16:06:34.757 -0400,3083.84245875,1.070785522460938,0.299163818359375,-0.15576171875,1,0.98
2020-05-15 16:06:34.827 -0400,3083.91229975,0.930999755859375,0.3649139404296875,-0.1958465576171875,1,0.98
2020-05-15 16:06:34.897 -0400,3083.98214175,0.7823333740234375,0.3511810302734375,-0.0951690673828125,1,0.98
2020-05-15 16:06:34.967 -0400,3084.05198075,0.8793487548828125,0.271270751953125,-0.0619049072265625,1,0.98
2020-05-15 16:06:35.036 -0400,3084.12182075,0.9593353271484375,0.2084503173828125,-0.022064208984375,1,0.98
2020-05-15 16:06:35.128 -0400,3084.19166475,1.124221801757812,0.357940673828125,-0.067169189453125,1,0.98
2020-05-15 16:06:35.176 -0400,3084.26150975,0.954071044921875,0.5577545166015625,-0.4262237548828125,1,0.98
2020-05-15 16:06:35.246 -0400,3084.33135375,1.236434936523438,0.412322998046875,-0.3184967041015625,1,0.98
2020-05-15 16:06:35.316 -0400,3084.4011985,0.9750823974609375,0.20684814453125,-0.2744140625,1,0.98
2020-05-15 16:06:35.386 -0400,3084.4710415,0.814849853515625,0.5787200927734375,-0.1729736328125,1,0.98
2020-05-15 16:06:35.456 -0400,3084.5408815,0.85894775390625,0.739471435546875,-0.18341064453125,1,0.98
2020-05-15 16:06:35.525 -0400,3084.6107245,0.91680908203125,0.7532196044921875,-0.21990966796875,1,0.98
2020-05-15 16:06:35.595 -0400,3084.6805615,1.058212280273438,0.9401092529296875,-0.3271026611328125,1,0.98
2020-05-15 16:06:35.665 -0400,3084.7503965,1.085800170898438,0.761444091796875,-0.44964599609375,1,0.98
2020-05-15 16:06:35.735 -0400,3084.8202365,1.447708129882812,0.503143310546875,-0.249603271484375,1,0.98
2020-05-15 16:06:35.805 -0400,3084.8900755,1.196990966796875,0.212554931640625,-0.2173919677734375,1,0.98
2020-05-15 16:06:35.875 -0400,3084.9599125,0.815216064453125,0.396331787109375,-0.2118377685546875,1,0.98
2020-05-15 16:06:35.944 -0400,3085.0297495,0.7839813232421875,0.36114501953125,-0.0490875244140625,1,0.98
2020-05-15 16:06:36.014 -0400,3085.0995855,0.930328369140625,0.252166748046875,-0.0358428955078125,1,0.98
2020-05-15 16:06:36.084 -0400,3085.1694215,0.8720550537109375,0.2281646728515625,-0.065582275390625,1,0.98
2020-05-15 16:06:36.154 -0400,3085.2392615,0.9934844970703125,0.3509063720703125,-0.1968841552734375,1,0.98
2020-05-15 16:06:36.224 -0400,3085.3090965,1.08355712890625,0.41351318359375,-0.2535552978515625,1,0.98
2020-05-15 16:06:36.294 -0400,3085.3789295,1.302032470703125,0.515625,-0.400238037109375,1,0.98
2020-05-15 16:06:36.364 -0400,3085.448762625,0.917266845703125,0.4211883544921875,-0.2954864501953125,1,0.98
2020-05-15 16:06:36.433 -0400,3085.518598625,0.84417724609375,0.5787353515625,-0.16644287109375,1,0.98
2020-05-15 16:06:36.503 -0400,3085.588441625,0.8768157958984375,0.801544189453125,-0.218170166015625,1,0.98
2020-05-15 16:06:36.573 -0400,3085.658280625,0.9125213623046875,0.9049072265625,-0.263946533203125,1,0.98
2020-05-15 16:06:36.643 -0400,3085.728118625,1.284835815429688,1.0142822265625,-0.3448028564453125,1,0.98
2020-05-15 16:06:36.713 -0400,3085.797957625,1.262222290039062,0.6998748779296875,-0.39898681640625,1,0.98
2020-05-15 16:06:36.782 -0400,3085.867797625,1.3958740234375,0.472320556640625,-0.189178466796875,1,0.98
2020-05-15 16:06:36.852 -0400,3085.937640625,1.08416748046875,0.4164276123046875,-0.217193603515625,1,0.98
2020-05-15 16:06:36.922 -0400,3086.007481625,0.89495849609375,0.410858154296875,-0.140045166015625,1,0.98
2020-05-15 16:06:36.992 -0400,3086.077324625,0.8873443603515625,0.308502197265625,-0.0742034912109375,1,0.98
2020-05-15 16:06:37.062 -0400,3086.147169625,0.9161376953125,0.174407958984375,-0.0786285400390625,1,0.98
2020-05-15 16:06:37.132 -0400,3086.217011625,0.6623382568359375,0.154754638671875,-0.0542755126953125,1,0.98
2020-05-15 16:06:37.201 -0400,3086.286851625,0.8784027099609375,0.3459320068359375,-0.1463623046875,1,0.98
2020-05-15 16:06:37.271 -0400,3086.356693625,0.9972991943359375,0.5128021240234375,-0.3035736083984375,1,0.98
2020-05-15 16:06:37.341 -0400,3086.4265365,1.396652221679688,0.67340087890625,-0.39410400390625,1,0.98
2020-05-15 16:06:37.411 -0400,3086.4963795,1.062301635742188,0.56982421875,-0.3241729736328125,1,0.98
2020-05-15 16:06:37.481 -0400,3086.5662245,0.864715576171875,0.5784149169921875,-0.2414398193359375,1,0.98
2020-05-15 16:06:37.551 -0400,3086.6360625,0.8875885009765625,0.7644805908203125,-0.389862060546875,1,0.98
2020-05-15 16:06:37.621 -0400,3086.7059005,0.8187255859375,0.963104248046875,-0.4414825439453125,1,0.98
2020-05-15 16:06:37.691 -0400,3086.7757385,1.594009399414062,1.0699462890625,-0.4647369384765625,1,0.98
2020-05-15 16:06:37.760 -0400,3086.8455805,1.650665283203125,0.4427032470703125,-0.342071533203125,1,0.98
2020-05-15 16:06:37.830 -0400,3086.9154255,1.518798828125,0.351470947265625,-0.1592864990234375,1,0.98
2020-05-15 16:06:37.900 -0400,3086.9852725,0.9433135986328125,0.453338623046875,-0.171417236328125,1,0.98
2020-05-15 16:06:37.970 -0400,3087.0551175,0.8004150390625,0.350830078125,0.010467529296875,1,0.98
2020-05-15 16:06:38.040 -0400,3087.1249625,0.82830810546875,0.2241363525390625,0.0696258544921875,1,0.98
2020-05-15 16:06:38.109 -0400,3087.1948065,0.79827880859375,0.172332763671875,0.0972442626953125,1,0.98
2020-05-15 16:06:38.179 -0400,3087.2646525,0.7073211669921875,0.2906494140625,-0.05340576171875,1,0.98
2020-05-15 16:06:38.249 -0400,3087.3344975,0.968658447265625,0.3961639404296875,-0.1477203369140625,1,0.98
2020-05-15 16:06:38.319 -0400,3087.40434075,1.39581298828125,0.51019287109375,-0.62384033203125,1,0.98
2020-05-15 16:06:38.389 -0400,3087.47418575,1.085006713867188,0.3116607666015625,-0.4521331787109375,1,0.98
2020-05-15 16:06:38.459 -0400,3087.54402675,0.9005889892578125,0.483856201171875,-0.3673858642578125,1,0.98
2020-05-15 16:06:38.529 -0400,3087.61386275,0.8944854736328125,0.838134765625,-0.3594970703125,1,0.98
2020-05-15 16:06:38.598 -0400,3087.68370075,0.877105712890625,0.8633880615234375,-0.4702606201171875,1,0.98
2020-05-15 16:06:38.668 -0400,3087.75353375,1.016021728515625,0.863128662109375,-0.41119384765625,1,0.98
2020-05-15 16:06:38.738 -0400,3087.82336575,1.209869384765625,0.6950836181640625,-0.3175048828125,1,0.98
2020-05-15 16:06:38.808 -0400,3087.89320175,1.363723754882812,0.6212005615234375,-0.1784210205078125,1,0.98
2020-05-15 16:06:38.878 -0400,3087.96303975,1.242660522460938,0.4687042236328125,-0.105987548828125,1,0.98
2020-05-15 16:06:38.948 -0400,3088.03287475,0.9153594970703125,0.3700408935546875,-0.05877685546875,1,0.98
2020-05-15 16:06:39.017 -0400,3088.10271075,0.9462890625,0.3741302490234375,-0.0322723388671875,1,0.98
2020-05-15 16:06:39.087 -0400,3088.17254775,1.072952270507812,0.2524261474609375,0.014495849609375,1,0.98
2020-05-15 16:06:39.157 -0400,3088.24238475,0.8812713623046875,0.21234130859375,0.0015869140625,1,0.98
2020-05-15 16:06:39.227 -0400,3088.31222275,0.849151611328125,0.29779052734375,-0.0640106201171875,1,0.98
2020-05-15 16:06:39.297 -0400,3088.38205975,0.7753143310546875,0.4519805908203125,-0.3066558837890625,1,0.98
2020-05-15 16:06:39.367 -0400,3088.45189675,1.232421875,0.419281005859375,-0.4995269775390625,1,0.98
2020-05-15 16:06:39.436 -0400,3088.52173775,0.7984161376953125,0.1913909912109375,-0.4181060791015625,1,0.98
2020-05-15 16:06:39.506 -0400,3088.59157375,0.7806549072265625,0.412017822265625,-0.382720947265625,1,0.98
2020-05-15 16:06:39.576 -0400,3088.66140975,0.9631500244140625,0.667572021484375,-0.4544219970703125,1,0.98
2020-05-15 16:06:39.646 -0400,3088.73124775,0.986572265625,0.6652374267578125,-0.467803955078125,1,0.98
2020-05-15 16:06:39.716 -0400,3088.80108975,1.300277709960938,0.8301544189453125,-0.4058074951171875,1,0.98
2020-05-15 16:06:39.786 -0400,3088.87092875,1.196517944335938,0.5471954345703125,-0.4365234375,1,0.98
2020-05-15 16:06:39.856 -0400,3088.94076775,1.303436279296875,0.4270172119140625,-0.23828125,1,0.98
2020-05-15 16:06:39.926 -0400,3089.01060575,1.12054443359375,0.3580169677734375,-0.297088623046875,1,0.98
2020-05-15 16:06:39.995 -0400,3089.08044375,0.7589111328125,0.3400726318359375,-0.204193115234375,1,0.98
2020-05-15 16:06:40.065 -0400,3089.15027575,0.58306884765625,0.2655181884765625,-0.1261444091796875,1,0.98
2020-05-15 16:06:40.135 -0400,3089.22010475,0.6998291015625,0.16705322265625,-0.077545166015625,1,0.98
2020-05-15 16:06:40.205 -0400,3089.28993475,0.8772430419921875,0.265350341796875,-0.0948333740234375,1,0.98
2020-05-15 16:06:40.275 -0400,3089.35977475,1.161819458007812,0.3898162841796875,-0.214202880859375,1,0.98
2020-05-15 16:06:40.344 -0400,3089.429612666667,1.361221313476562,0.433135986328125,-0.223724365234375,1,0.98
2020-05-15 16:06:40.414 -0400,3089.499446666667,1.326248168945312,0.5257110595703125,-0.3715057373046875,1,0.98
2020-05-15 16:06:40.484 -0400,3089.569277666667,0.8393707275390625,0.4144439697265625,-0.22528076171875,1,0.98
2020-05-15 16:06:40.554 -0400,3089.639111666667,0.7161407470703125,0.5570220947265625,-0.1782989501953125,1,0.98
2020-05-15 16:06:40.624 -0400,3089.708946666667,0.9043731689453125,0.700592041015625,-0.168609619140625,1,0.98
2020-05-15 16:06:40.694 -0400,3089.778780666667,1.003921508789062,0.8079071044921875,-0.183319091796875,1,0.98
2020-05-15 16:06:40.763 -0400,3089.848616666667,1.419403076171875,0.8477020263671875,-0.3136138916015625,1,0.98
2020-05-15 16:06:40.833 -0400,3089.918451666667,1.169448852539062,0.720611572265625,-0.4690704345703125,1,0.98
2020-05-15 16:06:40.903 -0400,3089.988289666667,1.372665405273438,0.5062408447265625,-0.2305908203125,1,0.98
2020-05-15 16:06:40.973 -0400,3090.058126666667,1.01568603515625,0.2387542724609375,-0.2386627197265625,1,0.98
2020-05-15 16:06:41.043 -0400,3090.127964666667,0.9057159423828125,0.316925048828125,-0.190704345703125,1,0.98
2020-05-15 16:06:41.113 -0400,3090.197795666667,0.9087066650390625,0.252777099609375,-0.0812835693359375,1,0.98
2020-05-15 16:06:41.182 -0400,3090.267630666667,0.863739013671875,0.2015380859375,-0.06298828125,1,0.98
2020-05-15 16:06:41.252 -0400,3090.337469666667,0.732147216796875,0.31060791015625,-0.071624755859375,1,0.98
2020-05-15 16:06:41.322 -0400,3090.4073045,1.000396728515625,0.3866119384765625,-0.0174560546875,1,0.98
2020-05-15 16:06:41.392 -0400,3090.4771385,1.335769653320312,0.5676727294921875,-0.488128662109375,1,0.98
2020-05-15 16:06:41.462 -0400,3090.5469725,0.9488372802734375,0.3845672607421875,-0.21563720703125,1,0.98
2020-05-15 16:06:41.532 -0400,3090.6168045,0.7182159423828125,0.285552978515625,-0.2046356201171875,1,0.98
2020-05-15 16:06:41.601 -0400,3090.6866395,0.814422607421875,0.54827880859375,-0.2314910888671875,1,0.98
2020-05-15 16:06:41.671 -0400,3090.7564765,0.8487548828125,0.6133880615234375,-0.2811279296875,1,0.98
2020-05-15 16:06:41.741 -0400,3090.8263145,1.090011596679688,0.6494293212890625,-0.3090362548828125,1,0.98
2020-05-15 16:06:41.811 -0400,3090.8961555,1.19805908203125,0.7441864013671875,-0.3802032470703125,1,0.98
2020-05-15 16:06:41.881 -0400,3090.9659945,1.22088623046875,0.6114654541015625,-0.303619384765625,1,0.98
2020-05-15 16:06:41.951 -0400,3091.0358325,1.129989624023438,0.4080963134765625,-0.244415283203125,1,0.98
2020-05-15 16:06:42.021 -0400,3091.1056735,0.793212890625,0.3477020263671875,-0.20587158203125,1,0.98
2020-05-15 16:06:42.090 -0400,3091.1755105,0.755218505859375,0.321197509765625,-0.1290740966796875,1,0.98
2020-05-15 16:06:42.160 -0400,3091.2453475,0.9052581787109375,0.2378997802734375,-0.07568359375,1,0.98
2020-05-15 16:06:42.235 -0400,3091.3151835,0.9729766845703125,0.233551025390625,-0.00927734375,1,0.98
2020-05-15 16:06:42.300 -0400,3091.3850175,1.123031616210938,0.4493408203125,-0.12420654296875,1,0.98
2020-05-15 16:06:42.370 -0400,3091.454855125,0.887115478515625,0.477203369140625,-0.2763519287109375,1,0.98
2020-05-15 16:06:42.439 -0400,3091.524691125,1.22967529296875,0.3898773193359375,-0.31622314453125,1,0.98
2020-05-15 16:06:42.509 -0400,3091.594529125,0.7694549560546875,0.1981964111328125,-0.1936492919921875,1,0.98
2020-05-15 16:06:42.579 -0400,3091.664369125,0.6193695068359375,0.408050537109375,-0.2342376708984375,1,0.98
2020-05-15 16:06:42.649 -0400,3091.734211125,0.7319488525390625,0.568115234375,-0.2446441650390625,1,0.98
2020-05-15 16:06:42.719 -0400,3091.804051125,0.944061279296875,0.5703887939453125,-0.356201171875,1,0.98
2020-05-15 16:06:42.789 -0400,3091.873889125,1.29351806640625,0.6159515380859375,-0.355010986328125,1,0.98
2020-05-15 16:06:42.859 -0400,3091.943724125,1.317352294921875,0.6012725830078125,-0.4206695556640625,1,0.98
2020-05-15 16:06:42.928 -0400,3092.013559125,1.040176391601562,0.4322357177734375,-0.3545379638671875,1,0.98
2020-05-15 16:06:42.998 -0400,3092.083393125,1.151702880859375,0.2958526611328125,-0.22271728515625,1,0.98
2020-05-15 16:06:43.068 -0400,3092.153228125,0.781341552734375,0.3297576904296875,-0.2780914306640625,1,0.98
2020-05-15 16:06:43.138 -0400,3092.223063125,0.6268768310546875,0.300323486328125,-0.1252899169921875,1,0.98
2020-05-15 16:06:43.208 -0400,3092.292898125,0.68011474609375,0.234466552734375,-0.0774383544921875,1,0.98
2020-05-15 16:06:43.278 -0400,3092.362730125,0.8799591064453125,0.2962188720703125,-0.0345458984375,1,0.98
2020-05-15 16:06:43.347 -0400,3092.4325635,1.271926879882812,0.42376708984375,-0.0551910400390625,1,0.98
2020-05-15 16:06:43.417 -0400,3092.5023985,1.120025634765625,0.568023681640625,-0.3861846923828125,1,0.98
2020-05-15 16:06:43.487 -0400,3092.5722365,1.248611450195312,0.384765625,-0.2600860595703125,1,0.98
2020-05-15 16:06:43.557 -0400,3092.6420705,0.65301513671875,0.175262451171875,-0.2555389404296875,1,0.98
2020-05-15 16:06:43.627 -0400,3092.7119045,0.516510009765625,0.371002197265625,-0.16943359375,1,0.98
2020-05-15 16:06:43.697 -0400,3092.7817425,0.68804931640625,0.5459747314453125,-0.2291717529296875,1,0.98
2020-05-15 16:06:43.766 -0400,3092.8515815,0.936279296875,0.6074676513671875,-0.3753662109375,1,0.98
2020-05-15 16:06:43.836 -0400,3092.9214205,1.543655395507812,0.75732421875,-0.49169921875,1,0.98
2020-05-15 16:06:43.906 -0400,3092.9912605,0.9648895263671875,0.453033447265625,-0.39678955078125,1,0.98
2020-05-15 16:06:43.976 -0400,3093.0610965,1.160858154296875,0.4550323486328125,-0.2471160888671875,1,0.98
2020-05-15 16:06:44.046 -0400,3093.1309305,0.9016876220703125,0.34600830078125,-0.251708984375,1,0.98
2020-05-15 16:06:44.116 -0400,3093.2007645,0.6811065673828125,0.325592041015625,-0.1720733642578125,1,0.98
2020-05-15 16:06:44.185 -0400,3093.2705995,0.750091552734375,0.3433074951171875,-0.0935516357421875,1,0.98
2020-05-15 16:06:44.255 -0400,3093.3404365,1.05938720703125,0.2543182373046875,-0.08575439453125,1,0.98
2020-05-15 16:06:44.325 -0400,3093.410267875,1.086700439453125,0.2954254150390625,-0.0706024169921875,1,0.98
2020-05-15 16:06:44.402 -0400,3093.480099875,1.212753295898438,0.430999755859375,-0.111419677734375,1,0.98
2020-05-15 16:06:44.465 -0400,3093.549930875,1.021682739257812,0.4702606201171875,-0.3924407958984375,1,0.98
2020-05-15 16:06:44.534 -0400,3093.619761875,0.9064178466796875,0.4276580810546875,-0.26318359375,1,0.98
2020-05-15 16:06:44.604 -0400,3093.689591875,0.53936767578125,0.271331787109375,-0.2364349365234375,1,0.98
2020-05-15 16:06:44.674 -0400,3093.759419875,0.63079833984375,0.478546142578125,-0.1745452880859375,1,0.98
2020-05-15 16:06:44.744 -0400,3093.829247875,1.001373291015625,0.6112823486328125,-0.316314697265625,1,0.98
2020-05-15 16:06:44.814 -0400,3093.899073875,1.07781982421875,0.6790924072265625,-0.395416259765625,1,0.98
2020-05-15 16:06:44.884 -0400,3093.968897875,1.453094482421875,0.6613311767578125,-0.4391326904296875,1,0.98
2020-05-15 16:06:44.954 -0400,3094.038727875,1.172500610351562,0.5518341064453125,-0.475341796875,1,0.98
2020-05-15 16:06:45.023 -0400,3094.108555875,1.235748291015625,0.39508056640625,-0.2737579345703125,1,0.98
2020-05-15 16:06:45.093 -0400,3094.178383875,0.9347686767578125,0.324432373046875,-0.279205322265625,1,0.98
2020-05-15 16:06:45.163 -0400,3094.248215875,0.7267303466796875,0.335601806640625,-0.1729888916015625,1,0.98
2020-05-15 16:06:45.233 -0400,3094.318050875,0.7409210205078125,0.23309326171875,-0.1019134521484375,1,0.98
2020-05-15 16:06:45.321 -0400,3094.387886875,0.8898468017578125,0.202423095703125,-0.0332489013671875,1,0.98
2020-05-15 16:06:45.373 -0400,3094.457723291667,0.8857421875,0.3232421875,-0.102294921875,1,0.98
2020-05-15 16:06:45.443 -0400,3094.527558291667,1.037384033203125,0.39178466796875,-0.0792694091796875,1,0.98
2020-05-15 16:06:45.512 -0400,3094.597389291667,1.359329223632812,0.452117919921875,-0.4464111328125,1,0.98
2020-05-15 16:06:45.582 -0400,3094.667219291667,0.73870849609375,0.2501220703125,-0.30908203125,1,0.98
2020-05-15 16:06:45.652 -0400,3094.737050291667,0.5531005859375,0.3034515380859375,-0.2662811279296875,1,0.98
2020-05-15 16:06:45.722 -0400,3094.806883291667,0.74249267578125,0.5640869140625,-0.2386016845703125,1,0.98
2020-05-15 16:06:45.792 -0400,3094.876717291667,0.9484710693359375,0.7309112548828125,-0.37298583984375,1,0.98
2020-05-15 16:06:45.862 -0400,3094.946551291667,1.301651000976562,0.890960693359375,-0.513336181640625,1,0.98
2020-05-15 16:06:45.931 -0400,3095.016387291667,1.212234497070312,0.49853515625,-0.4303131103515625,1,0.98
2020-05-15 16:06:46.001 -0400,3095.086229291667,1.345596313476562,0.4073638916015625,-0.2633209228515625,1,0.98
2020-05-15 16:06:46.071 -0400,3095.156064291667,1.074722290039062,0.363616943359375,-0.267852783203125,1,0.98
2020-05-15 16:06:46.141 -0400,3095.225897291667,0.769134521484375,0.363922119140625,-0.2247467041015625,1,0.98
2020-05-15 16:06:46.211 -0400,3095.295732291667,0.7238922119140625,0.3021392822265625,-0.0522918701171875,1,0.98
2020-05-15 16:06:46.281 -0400,3095.365565291667,0.6902923583984375,0.196258544921875,-0.036468505859375,1,0.98
2020-05-15 16:06:46.350 -0400,3095.435394791667,0.8258209228515625,0.25457763671875,-0.0485382080078125,1,0.98
2020-05-15 16:06:46.420 -0400,3095.505224791667,1.043304443359375,0.329803466796875,-0.147216796875,1,0.98
2020-05-15 16:06:46.490 -0400,3095.575055791667,1.250717163085938,0.402435302734375,-0.205047607421875,1,0.98
2020-05-15 16:06:46.560 -0400,3095.644891791667,1.452011108398438,0.5074462890625,-0.4526214599609375,1,0.98
2020-05-15 16:06:46.630 -0400,3095.714724791667,0.77545166015625,0.2130889892578125,-0.2574615478515625,1,0.98
2020-05-15 16:06:46.699 -0400,3095.784560791667,0.72216796875,0.4462127685546875,-0.167724609375,1,0.98
2020-05-15 16:06:46.769 -0400,3095.854396791667,0.751373291015625,0.7070465087890625,-0.225677490234375,1,0.98
2020-05-15 16:06:46.839 -0400,3095.924229791667,0.8504180908203125,0.7571868896484375,-0.3376007080078125,1,0.98
2020-05-15 16:06:46.909 -0400,3095.994067791667,1.316864013671875,0.846710205078125,-0.3586883544921875,1,0.98
2020-05-15 16:06:46.979 -0400,3096.063901791667,1.385971069335938,0.4992828369140625,-0.3267669677734375,1,0.98
2020-05-15 16:06:47.049 -0400,3096.133733791667,1.495834350585938,0.4470977783203125,-0.2586212158203125,1,0.98
2020-05-15 16:06:47.118 -0400,3096.203570791667,1.076995849609375,0.352203369140625,-0.2197418212890625,1,0.98
2020-05-15 16:06:47.188 -0400,3096.273404791667,0.767242431640625,0.310638427734375,-0.1201171875,1,0.98
2020-05-15 16:06:47.258 -0400,3096.343241791667,0.702606201171875,0.2270355224609375,0.02532958984375,1,0.98
2020-05-15 16:06:47.328 -0400,3096.413078375,0.774932861328125,0.1963348388671875,0.0346221923828125,1,0.98
2020-05-15 16:06:47.398 -0400,3096.482915375,0.8735809326171875,0.2905731201171875,0.0326690673828125,1,0.98
2020-05-15 16:06:47.468 -0400,3096.552746375,1.139892578125,0.4521942138671875,-0.0462188720703125,1,0.98
2020-05-15 16:06:47.537 -0400,3096.622577375,1.25634765625,0.621551513671875,-0.5428924560546875,1,0.98
2020-05-15 16:06:47.607 -0400,3096.692410375,1.212875366210938,0.3464508056640625,-0.1532135009765625,1,0.98
2020-05-15 16:06:47.677 -0400,3096.762244375,0.759124755859375,0.2135162353515625,-0.3629913330078125,1,0.98
2020-05-15 16:06:47.747 -0400,3096.832077375,0.75323486328125,0.5471649169921875,-0.2120513916015625,1,0.98
2020-05-15 16:06:47.817 -0400,3096.901912375,0.8242034912109375,0.6653900146484375,-0.367919921875,1,0.98
2020-05-15 16:06:47.887 -0400,3096.971746375,0.92626953125,0.6088104248046875,-0.3788299560546875,1,0.98
2020-05-15 16:06:47.956 -0400,3097.041578375,1.517562866210938,0.8791351318359375,-0.48675537109375,1,0.98
2020-05-15 16:06:48.026 -0400,3097.111412375,1.232086181640625,0.5795440673828125,-0.4240570068359375,1,0.98
2020-05-15 16:06:48.096 -0400,3097.181243375,1.304550170898438,0.458770751953125,-0.1433258056640625,1,0.98
2020-05-15 16:06:48.166 -0400,3097.251076375,1.055206298828125,0.2114715576171875,-0.0763397216796875,1,0.98
2020-05-15 16:06:48.236 -0400,3097.320908375,0.749969482421875,0.3206024169921875,-0.0772705078125,1,0.98
2020-05-15 16:06:48.306 -0400,3097.390740375,0.8768157958984375,0.36016845703125,0.0318450927734375,1,0.98
2020-05-15 16:06:48.376 -0400,3097.46057475,0.8373565673828125,0.2329254150390625,0.0622406005859375,1,0.98
2020-05-15 16:06:48.445 -0400,3097.53040875,0.88995361328125,0.285247802734375,0.015106201171875,1,0.98
2020-05-15 16:06:48.515 -0400,3097.60024275,1.1898193359375,0.4272918701171875,-0.1301422119140625,1,0.98
2020-05-15 16:06:48.585 -0400,3097.67007875,1.04449462890625,0.4949951171875,-0.3764190673828125,1,0.98
2020-05-15 16:06:48.655 -0400,3097.73991275,1.29388427734375,0.4572296142578125,-0.457122802734375,1,0.98
2020-05-15 16:06:48.725 -0400,3097.80974675,0.7240447998046875,0.1561279296875,-0.3260498046875,1,0.98
2020-05-15 16:06:48.794 -0400,3097.87958175,0.690765380859375,0.4304962158203125,-0.28167724609375,1,0.98
2020-05-15 16:06:48.864 -0400,3097.94941675,0.755035400390625,0.5832977294921875,-0.378265380859375,1,0.98
2020-05-15 16:06:48.934 -0400,3098.01925175,0.858367919921875,0.5160675048828125,-0.3450164794921875,1,0.98
2020-05-15 16:06:49.004 -0400,3098.08908575,1.506668090820312,0.702117919921875,-0.4049835205078125,1,0.98
2020-05-15 16:06:49.074 -0400,3098.15891775,1.19598388671875,0.53497314453125,-0.39007568359375,1,0.98
2020-05-15 16:06:49.144 -0400,3098.22875075,1.225616455078125,0.309112548828125,-0.1361236572265625,1,0.98
2020-05-15 16:06:49.213 -0400,3098.29858775,1.017349243164062,0.3060302734375,-0.166748046875,1,0.98
2020-05-15 16:06:49.283 -0400,3098.36841975,0.6287994384765625,0.286041259765625,-0.089752197265625,1,0.98
2020-05-15 16:06:49.353 -0400,3098.438254625,0.633392333984375,0.3007354736328125,0.0196533203125,1,0.98
2020-05-15 16:06:49.423 -0400,3098.508089625,0.7574310302734375,0.2395477294921875,0.03082275390625,1,0.98
2020-05-15 16:06:49.493 -0400,3098.577922625,0.8928680419921875,0.305328369140625,0.016204833984375,1,0.98
2020-05-15 16:06:49.563 -0400,3098.647756625,1.291763305664062,0.4965972900390625,-0.11676025390625,1,0.98
2020-05-15 16:06:49.632 -0400,3098.717592625,1.301666259765625,0.63604736328125,-0.6512603759765625,1,0.98
2020-05-15 16:06:49.702 -0400,3098.787429625,1.057174682617188,0.1808013916015625,-0.2619171142578125,1,0.98
2020-05-15 16:06:49.772 -0400,3098.857266625,0.64337158203125,0.3111114501953125,-0.46881103515625,1,0.98
2020-05-15 16:06:49.842 -0400,3098.927103625,0.542388916015625,0.6628570556640625,-0.416351318359375,1,0.98
2020-05-15 16:06:49.912 -0400,3098.996936625,0.5782928466796875,0.7431488037109375,-0.3121337890625,1,0.98
2020-05-15 16:06:49.982 -0400,3099.066767625,0.63720703125,0.70648193359375,-0.2704620361328125,1,0.98
2020-05-15 16:06:50.051 -0400,3099.136600625,0.960601806640625,0.708038330078125,-0.17236328125,1,0.98
2020-05-15 16:06:50.121 -0400,3099.206435625,0.9242401123046875,0.699493408203125,-0.212554931640625,1,0.98
2020-05-15 16:06:50.191 -0400,3099.276267625,1.380508422851562,0.82611083984375,-0.169952392578125,1,0.98
2020-05-15 16:06:50.268 -0400,3099.346097625,1.056320190429688,0.3810882568359375,-0.027618408203125,1,0.98
2020-05-15 16:06:50.331 -0400,3099.415930625,0.7269744873046875,0.870819091796875,-0.03533935546875,1,0.98
2020-05-15 16:06:50.401 -0400,3099.485766625,0.666412353515625,0.5966644287109375,-0.0229949951171875,1,0.98
2020-05-15 16:06:50.471 -0400,3099.555601625,0.6555938720703125,0.5922393798828125,-0.0859375,1,0.98
2020-05-15 16:06:50.541 -0400,3099.625435625,0.704986572265625,0.3211212158203125,-0.144744873046875,1,0.98
2020-05-15 16:06:50.610 -0400,3099.695268625,0.795501708984375,0.6938018798828125,-0.29327392578125,1,0.98
2020-05-15 16:06:50.680 -0400,3099.765105625,0.6753692626953125,1.447662353515625,-0.8698883056640625,1,0.98
2020-05-15 16:06:50.750 -0400,3099.834942625,0.5899200439453125,0.6063232421875,-0.84063720703125,1,0.98
2020-05-15 16:06:50.820 -0400,3099.904779625,0.348541259765625,0.3529205322265625,-0.8555145263671875,1,0.98
2020-05-15 16:06:50.890 -0400,3099.974618625,0.3082733154296875,0.1019439697265625,-0.7662353515625,1,0.98
2020-05-15 16:06:50.959 -0400,3100.044456625,0.4101409912109375,0.05926513671875,-0.7039031982421875,1,0.98
2020-05-15 16:06:51.029 -0400,3100.114293625,0.2979736328125,0.124542236328125,-0.8271484375,1,0.98
2020-05-15 16:06:51.099 -0400,3100.184130625,0.21319580078125,0.126861572265625,-1.025924682617188,1,0.98
2020-05-15 16:06:51.218 -0400,3100.303852625,-0.1497650146484375,0.4855194091796875,-1.158416748046875,1,0.98
2020-05-15 16:06:51.338 -0400,3100.4235755,0.1586151123046875,0.1203460693359375,-0.6916656494140625,1,0.98
2020-05-15 16:06:51.458 -0400,3100.5432965,0.09429931640625,-0.1752471923828125,-0.6874237060546875,1,0.98
2020-05-15 16:06:51.578 -0400,3100.6630225,0.0917510986328125,-0.130615234375,-1.142105102539062,1,0.98
2020-05-15 16:06:51.698 -0400,3100.7827545,0.0606231689453125,0.273590087890625,-1.216110229492188,1,0.98
2020-05-15 16:06:51.817 -0400,3100.9024835,0.016021728515625,0.0591278076171875,-0.8361663818359375,1,0.98
2020-05-15 16:06:51.937 -0400,3101.0222035,-0.066650390625,-0.0294952392578125,-0.7006683349609375,1,0.98
2020-05-15 16:06:52.057 -0400,3101.1419225,-0.1057281494140625,-0.025115966796875,-0.98992919921875,1,0.98
2020-05-15 16:06:52.177 -0400,3101.2616425,-0.2212677001953125,0.112274169921875,-1.229736328125,1,0.98
2020-05-15 16:06:52.296 -0400,3101.3813635,-0.1510009765625,0.3182220458984375,-1.058197021484375,1,0.98
2020-05-15 16:06:52.416 -0400,3101.501084,-0.0558319091796875,0.0511322021484375,-0.73199462890625,1,0.98
2020-05-15 16:06:52.536 -0400,3101.620807,-0.0019378662109375,-0.05853271484375,-0.8602447509765625,1,0.98
2020-05-15 16:06:52.658 -0400,3101.740532,-0.0361480712890625,0.0507659912109375,-1.130752563476562,1,0.98
2020-05-15 16:06:52.775 -0400,3101.860263,0.031494140625,0.19171142578125,-1.315994262695312,1,0.98
2020-05-15 16:06:52.895 -0400,3101.979981,0.0897369384765625,-0.1730499267578125,-0.7945709228515625,1,0.98
2020-05-15 16:06:53.015 -0400,3102.099694,0.0598907470703125,0.135650634765625,-0.8636474609375,1,0.98
2020-05-15 16:06:53.135 -0400,3102.219405,-0.03643798828125,-0.02886962890625,-0.8200225830078125,1,0.98
2020-05-15 16:06:53.254 -0400,3102.339114,-0.0925140380859375,0.1812744140625,-1.11956787109375,1,0.98
2020-05-15 16:06:53.374 -0400,3102.4588305,-0.101409912109375,0.30322265625,-1.033111572265625,1,0.98
