loggingTime(txt),accelerometerTimestamp_sinceReboot(s),accelerometerAccelerationX(G),accelerometerAccelerationY(G),accelerometerAccelerationZ(G),batteryState,batteryLevel
2020-05-16 12:55:32.441 -0400,11841.50985025,0.0395660400390625,-0.0830841064453125,-0.8548736572265625,1,0.94
2020-05-16 12:55:32.499 -0400,11841.57980325,-0.0232086181640625,-0.163726806640625,-0.7412109375,1,0.94
2020-05-16 12:55:32.618 -0400,11841.69955725,-0.0022735595703125,-0.20904541015625,-0.9416656494140625,1,0.94
2020-05-16 12:55:32.738 -0400,11841.81931325,-0.1638336181640625,-0.218231201171875,-1.003662109375,1,0.94
2020-05-16 12:55:32.858 -0400,11841.93907125,0.173126220703125,0.2135467529296875,-1.035903930664062,1,0.94
2020-05-16 12:55:32.978 -0400,11842.05881725,0.1302337646484375,0.1573333740234375,-0.9358978271484375,1,0.94
2020-05-16 12:55:33.098 -0400,11842.17856125,0.049163818359375,0.1120147705078125,-0.867340087890625,1,0.94
2020-05-16 12:55:33.217 -0400,11842.29830479167,0.2044219970703125,0.0095062255859375,-0.873382568359375,1,0.94
2020-05-16 12:55:33.337 -0400,11842.41804779167,0.796478271484375,0.1384124755859375,-0.643829345703125,1,0.94
2020-05-16 12:55:33.457 -0400,11842.53779879167,1.362289428710938,0.3919219970703125,-0.7236175537109375,1,0.94
2020-05-16 12:55:33.577 -0400,11842.65754779167,1.166580200195312,0.223846435546875,-0.3902740478515625,1,0.94
2020-05-16 12:55:33.696 -0400,11842.77730279167,0.52191162109375,0.4073638916015625,-0.3618927001953125,1,0.94
2020-05-16 12:55:33.806 -0400,11842.88707079167,0.6412506103515625,0.2820587158203125,-0.610870361328125,1,0.94
2020-05-16 12:55:33.885 -0400,11842.95691879167,0.907745361328125,0.2902984619140625,-0.728851318359375,1,0.94
2020-05-16 12:55:33.946 -0400,11843.02676979167,1.499740600585938,0.4933929443359375,-0.634796142578125,1,0.94
2020-05-16 12:55:34.016 -0400,11843.09661979167,1.49737548828125,0.3302001953125,-0.5963134765625,1,0.94
2020-05-16 12:55:34.085 -0400,11843.16646979167,1.280303955078125,0.3817291259765625,-0.3874359130859375,1,0.94
2020-05-16 12:55:34.155 -0400,11843.23631979167,1.001373291015625,0.286285400390625,-0.274444580078125,1,0.94
2020-05-16 12:55:34.225 -0400,11843.30617529167,0.5859832763671875,0.2447052001953125,-0.196075439453125,1,0.94
2020-05-16 12:55:34.295 -0400,11843.37602629167,0.3879547119140625,0.262908935546875,-0.155548095703125,1,0.94
2020-05-16 12:55:34.365 -0400,11843.44587829167,0.5191192626953125,0.2425537109375,-0.1855316162109375,1,0.94
2020-05-16 12:55:34.435 -0400,11843.51573029167,1.229034423828125,0.1881866455078125,-0.350433349609375,1,0.94
2020-05-16 12:55:34.505 -0400,11843.58558129167,1.240676879882812,0.0312652587890625,-0.3889312744140625,1,0.94
2020-05-16 12:55:34.574 -0400,11843.65543229167,1.00823974609375,0.1854248046875,-0.52288818359375,1,0.94
2020-05-16 12:55:34.644 -0400,11843.72528129167,1.000030517578125,0.1269989013671875,-0.7618560791015625,1,0.94
2020-05-16 12:55:34.714 -0400,11843.79513229167,0.987457275390625,0.1184539794921875,-0.483551025390625,1,0.94
2020-05-16 12:55:34.784 -0400,11843.86498229167,0.5160369873046875,0.2276458740234375,-0.3240203857421875,1,0.94
2020-05-16 12:55:34.854 -0400,11843.93483529167,0.4092864990234375,0.314361572265625,-0.244659423828125,1,0.94
2020-05-16 12:55:34.924 -0400,11844.00468429167,0.7429656982421875,0.4278106689453125,-0.28533935546875,1,0.94
2020-05-16 12:55:34.993 -0400,11844.07453229167,0.9180145263671875,0.831878662109375,-0.4572601318359375,1,0.94
2020-05-16 12:55:35.063 -0400,11844.14438429167,1.923873901367188,0.62774658203125,-0.6045989990234375,1,0.94
2020-05-16 12:55:35.133 -0400,11844.21423929167,1.370559692382812,0.2832183837890625,-0.37548828125,1,0.94
2020-05-16 12:55:35.203 -0400,11844.28409054167,1.2353515625,0.4215545654296875,-0.274078369140625,1,0.94
2020-05-16 12:55:35.273 -0400,11844.35393654167,0.9802703857421875,0.2401885986328125,-0.2992706298828125,1,0.94
2020-05-16 12:55:35.343 -0400,11844.42378754167,0.639495849609375,0.23565673828125,-0.1832733154296875,1,0.94
2020-05-16 12:55:35.413 -0400,11844.49364054167,0.661285400390625,0.3936004638671875,-0.1525421142578125,1,0.94
2020-05-16 12:55:35.482 -0400,11844.56349454167,0.843475341796875,0.305755615234375,-0.63543701171875,1,0.94
2020-05-16 12:55:35.552 -0400,11844.63334754167,0.752716064453125,0.4247589111328125,-0.849609375,1,0.94
2020-05-16 12:55:35.622 -0400,11844.70319854167,0.7101898193359375,0.25653076171875,-0.8585357666015625,1,0.94
2020-05-16 12:55:35.692 -0400,11844.77305054167,0.4602813720703125,0.27349853515625,-0.76715087890625,1,0.94
2020-05-16 12:55:35.762 -0400,11844.84290154167,0.5736541748046875,0.2272796630859375,-0.7375946044921875,1,0.94
2020-05-16 12:55:35.832 -0400,11844.91275154167,0.384002685546875,0.057952880859375,-0.6194000244140625,1,0.94
2020-05-16 12:55:35.901 -0400,11844.98260254167,0.2691192626953125,0.1671142578125,-0.535308837890625,1,0.94
2020-05-16 12:55:35.971 -0400,11845.05245354167,0.1801910400390625,0.220550537109375,-0.5594482421875,1,0.94
2020-05-16 12:55:36.041 -0400,11845.12230854167,0.231475830078125,0.510772705078125,-0.7638092041015625,1,0.94
2020-05-16 12:55:36.111 -0400,11845.19215854167,0.446807861328125,0.681671142578125,-0.954803466796875,1,0.94
2020-05-16 12:55:36.181 -0400,11845.26200825,0.5870361328125,0.8673858642578125,-1.06671142578125,1,0.94
2020-05-16 12:55:36.251 -0400,11845.33185825,0.6887054443359375,0.8448486328125,-1.0264892578125,1,0.94
2020-05-16 12:55:36.321 -0400,11845.40170725,0.68841552734375,0.7216033935546875,-0.8335418701171875,1,0.94
2020-05-16 12:55:36.390 -0400,11845.47155825,0.6174468994140625,0.456787109375,-0.5035247802734375,1,0.94
2020-05-16 12:55:36.460 -0400,11845.54141025,0.33404541015625,0.462799072265625,-0.34588623046875,1,0.94
2020-05-16 12:55:36.530 -0400,11845.61126325,0.2548980712890625,0.4753265380859375,-0.2990875244140625,1,0.94
2020-05-16 12:55:36.600 -0400,11845.68111125,0.312103271484375,0.4862518310546875,-0.33746337890625,1,0.94
2020-05-16 12:55:36.670 -0400,11845.75095825,0.5693511962890625,0.577728271484375,-0.42919921875,1,0.94
2020-05-16 12:55:36.740 -0400,11845.82080625,1.00811767578125,0.5633697509765625,-0.5584869384765625,1,0.94
2020-05-16 12:55:36.809 -0400,11845.89065625,1.181838989257812,0.4288330078125,-0.5158233642578125,1,0.94
2020-05-16 12:55:36.879 -0400,11845.96050625,1.015411376953125,0.436279296875,-0.5859222412109375,1,0.94
2020-05-16 12:55:36.949 -0400,11846.03035825,0.8857879638671875,0.30902099609375,-0.3014068603515625,1,0.94
2020-05-16 12:55:37.019 -0400,11846.10021025,0.5650482177734375,0.2886962890625,-0.3029327392578125,1,0.94
2020-05-16 12:55:37.089 -0400,11846.17006225,0.46923828125,0.4584808349609375,-0.2626495361328125,1,0.94
2020-05-16 12:55:37.159 -0400,11846.23991225,0.63427734375,0.49090576171875,-0.322906494140625,1,0.94
2020-05-16 12:55:37.236 -0400,11846.309763625,0.839080810546875,0.41455078125,-0.4036407470703125,1,0.94
2020-05-16 12:55:37.299 -0400,11846.379615625,1.138397216796875,0.4983062744140625,-0.4607391357421875,1,0.94
2020-05-16 12:55:37.369 -0400,11846.449468625,1.430145263671875,0.5604095458984375,-0.585357666015625,1,0.94
2020-05-16 12:55:37.438 -0400,11846.519319625,1.154922485351562,0.521759033203125,-0.562103271484375,1,0.94
2020-05-16 12:55:37.508 -0400,11846.589173625,1.128662109375,0.25152587890625,-0.297607421875,1,0.94
2020-05-16 12:55:37.578 -0400,11846.659027625,0.7135009765625,0.253997802734375,-0.2470245361328125,1,0.94
2020-05-16 12:55:37.648 -0400,11846.728876625,0.512969970703125,0.3668365478515625,-0.1773681640625,1,0.94
2020-05-16 12:55:37.718 -0400,11846.798724625,0.5347137451171875,0.319000244140625,-0.1569366455078125,1,0.94
2020-05-16 12:55:37.787 -0400,11846.868572625,0.83111572265625,0.301483154296875,-0.1831512451171875,1,0.94
2020-05-16 12:55:37.857 -0400,11846.938423625,1.073989868164062,0.298370361328125,-0.214385986328125,1,0.94
2020-05-16 12:55:37.927 -0400,11847.008272625,1.1690673828125,0.404266357421875,-0.3164215087890625,1,0.94
2020-05-16 12:55:37.997 -0400,11847.078124625,1.169448852539062,0.4404754638671875,-0.567901611328125,1,0.94
2020-05-16 12:55:38.067 -0400,11847.147979625,0.952117919921875,0.208038330078125,-0.389801025390625,1,0.94
2020-05-16 12:55:38.137 -0400,11847.217832625,0.44195556640625,0.2387237548828125,-0.3767547607421875,1,0.94
2020-05-16 12:55:38.206 -0400,11847.28768404167,0.290985107421875,0.400146484375,-0.3570556640625,1,0.94
2020-05-16 12:55:38.277 -0400,11847.35753304167,0.402008056640625,0.4521331787109375,-0.422882080078125,1,0.94
2020-05-16 12:55:38.346 -0400,11847.42738504167,0.7300872802734375,0.575469970703125,-0.4811859130859375,1,0.94
2020-05-16 12:55:38.416 -0400,11847.49723504167,1.2230224609375,0.6724090576171875,-0.514404296875,1,0.94
2020-05-16 12:55:38.486 -0400,11847.56708504167,1.5511474609375,0.66949462890625,-0.509979248046875,1,0.94
2020-05-16 12:55:38.556 -0400,11847.63693504167,1.558090209960938,0.3830108642578125,-0.2091827392578125,1,0.94
2020-05-16 12:55:38.626 -0400,11847.70678504167,0.9564056396484375,0.3835296630859375,-0.20465087890625,1,0.94
2020-05-16 12:55:38.695 -0400,11847.77663304167,0.5048980712890625,0.4192352294921875,-0.216583251953125,1,0.94
2020-05-16 12:55:38.765 -0400,11847.84647904167,0.521331787109375,0.3356170654296875,-0.1860504150390625,1,0.94
2020-05-16 12:55:38.835 -0400,11847.91632504167,0.655426025390625,0.2285003662109375,-0.1747589111328125,1,0.94
2020-05-16 12:55:38.905 -0400,11847.98617504167,0.786895751953125,0.1930084228515625,-0.1491546630859375,1,0.94
2020-05-16 12:55:38.975 -0400,11848.05602604167,1.104156494140625,0.53717041015625,-0.32708740234375,1,0.94
2020-05-16 12:55:39.045 -0400,11848.12587204167,1.222320556640625,0.7758941650390625,-0.817657470703125,1,0.94
2020-05-16 12:55:39.115 -0400,11848.19571804167,1.352218627929688,0.26580810546875,-0.476531982421875,1,0.94
2020-05-16 12:55:39.184 -0400,11848.26556,0.6010894775390625,0.0734710693359375,-0.3564300537109375,1,0.94
2020-05-16 12:55:39.254 -0400,11848.3354,0.21832275390625,0.425750732421875,-0.2496490478515625,1,0.94
2020-05-16 12:55:39.333 -0400,11848.405247,0.2655181884765625,0.4882965087890625,-0.2105560302734375,1,0.94
2020-05-16 12:55:39.394 -0400,11848.475094,0.779571533203125,0.7118072509765625,-0.4341278076171875,1,0.94
2020-05-16 12:55:39.464 -0400,11848.54494,1.145355224609375,0.5017852783203125,-0.5115203857421875,1,0.94
2020-05-16 12:55:39.534 -0400,11848.614783,1.233047485351562,0.442138671875,-0.6054534912109375,1,0.94
2020-05-16 12:55:39.604 -0400,11848.68463,1.140457153320312,0.7096710205078125,-0.6218109130859375,1,0.94
2020-05-16 12:55:39.673 -0400,11848.754476,1.119216918945312,0.4088592529296875,-0.2859039306640625,1,0.94
2020-05-16 12:55:39.743 -0400,11848.824316,0.711578369140625,0.2689056396484375,-0.3085479736328125,1,0.94
2020-05-16 12:55:39.813 -0400,11848.894157,0.407135009765625,0.3815460205078125,-0.217315673828125,1,0.94
2020-05-16 12:55:39.883 -0400,11848.963999,0.3956298828125,0.3635711669921875,-0.1612091064453125,1,0.94
2020-05-16 12:55:39.953 -0400,11849.033841,0.9294891357421875,0.3159027099609375,-0.1600799560546875,1,0.94
2020-05-16 12:55:40.023 -0400,11849.103684,1.162033081054688,0.2949676513671875,-0.189849853515625,1,0.94
2020-05-16 12:55:40.092 -0400,11849.173528,1.229278564453125,0.4691009521484375,-0.40045166015625,1,0.94
2020-05-16 12:55:40.162 -0400,11849.243366,1.334701538085938,0.446990966796875,-0.497314453125,1,0.94
2020-05-16 12:55:40.232 -0400,11849.31320475,0.978240966796875,0.21221923828125,-0.3550567626953125,1,0.94
2020-05-16 12:55:40.302 -0400,11849.38304775,0.4171600341796875,0.255584716796875,-0.3090667724609375,1,0.94
2020-05-16 12:55:40.372 -0400,11849.45289175,0.345458984375,0.3632965087890625,-0.265228271484375,1,0.94
2020-05-16 12:55:40.442 -0400,11849.52273475,0.4835052490234375,0.4121856689453125,-0.29815673828125,1,0.94
2020-05-16 12:55:40.511 -0400,11849.59257775,0.933319091796875,0.62689208984375,-0.46484375,1,0.94
2020-05-16 12:55:40.581 -0400,11849.66241975,1.799057006835938,0.7905731201171875,-0.4665069580078125,1,0.94
2020-05-16 12:55:40.651 -0400,11849.73225875,1.44049072265625,0.36138916015625,-0.5015716552734375,1,0.94
2020-05-16 12:55:40.721 -0400,11849.80209475,1.356430053710938,0.3797760009765625,-0.26507568359375,1,0.94
2020-05-16 12:55:40.791 -0400,11849.87193475,0.73992919921875,0.3787078857421875,-0.443359375,1,0.94
2020-05-16 12:55:40.861 -0400,11849.94177175,0.366455078125,0.3040924072265625,-0.3303985595703125,1,0.94
2020-05-16 12:55:40.930 -0400,11850.01161075,0.3685455322265625,0.176544189453125,-0.190704345703125,1,0.94
2020-05-16 12:55:41.000 -0400,11850.08145275,0.6550750732421875,0.192169189453125,-0.2261199951171875,1,0.94
2020-05-16 12:55:41.070 -0400,11850.15128975,1.394775390625,0.3092803955078125,-0.0478363037109375,1,0.94
2020-05-16 12:55:41.140 -0400,11850.22112775,1.663360595703125,0.6721954345703125,-0.53076171875,1,0.94
2020-05-16 12:55:41.210 -0400,11850.290967625,1.2701416015625,0.2854461669921875,-0.252716064453125,1,0.94
2020-05-16 12:55:41.280 -0400,11850.360810625,0.6617279052734375,0.2877044677734375,-0.301055908203125,1,0.94
2020-05-16 12:55:41.350 -0400,11850.430653625,0.35845947265625,0.32196044921875,-0.2108917236328125,1,0.94
2020-05-16 12:55:41.420 -0400,11850.500499625,0.27301025390625,0.3392791748046875,-0.2973480224609375,1,0.94
2020-05-16 12:55:41.490 -0400,11850.570345625,0.7367095947265625,0.29095458984375,-0.4730987548828125,1,0.94
2020-05-16 12:55:41.559 -0400,11850.640187625,1.563369750976562,0.492767333984375,-0.47796630859375,1,0.94
2020-05-16 12:55:41.629 -0400,11850.710028625,1.614227294921875,0.3778839111328125,-0.7735595703125,1,0.94
2020-05-16 12:55:41.699 -0400,11850.779873625,0.930694580078125,0.2542572021484375,-0.4232940673828125,1,0.94
2020-05-16 12:55:41.769 -0400,11850.849715625,1.007598876953125,0.38421630859375,-0.30181884765625,1,0.94
2020-05-16 12:55:41.838 -0400,11850.919556625,0.699249267578125,0.3717498779296875,-0.3167877197265625,1,0.94
2020-05-16 12:55:41.908 -0400,11850.989399625,0.408111572265625,0.28887939453125,-0.1994171142578125,1,0.94
2020-05-16 12:55:41.978 -0400,11851.059242625,0.460418701171875,0.3549041748046875,-0.1808319091796875,1,0.94
2020-05-16 12:55:42.048 -0400,11851.129086625,1.113311767578125,0.317169189453125,-0.2527618408203125,1,0.94
2020-05-16 12:55:42.118 -0400,11851.198932625,1.40155029296875,0.13262939453125,-0.0957183837890625,1,0.94
2020-05-16 12:55:42.188 -0400,11851.268779625,1.264846801757812,0.3625946044921875,-0.2690887451171875,1,0.94
2020-05-16 12:55:42.257 -0400,11851.338623625,0.9072113037109375,0.5185394287109375,-0.4822540283203125,1,0.94
2020-05-16 12:55:42.332 -0400,11851.408468625,0.6597137451171875,0.2286224365234375,-0.4495391845703125,1,0.94
2020-05-16 12:55:42.397 -0400,11851.478312625,0.2636871337890625,0.168731689453125,-0.4969940185546875,1,0.94
2020-05-16 12:55:42.467 -0400,11851.548156625,0.4139556884765625,0.0519256591796875,-0.408721923828125,1,0.94
2020-05-16 12:55:42.537 -0400,11851.617997625,0.7523193359375,0.7745361328125,-0.38116455078125,1,0.94
2020-05-16 12:55:42.607 -0400,11851.687840625,1.370834350585938,0.6602325439453125,-0.6366119384765625,1,0.94
2020-05-16 12:55:42.676 -0400,11851.757683625,1.172409057617188,0.7463836669921875,-0.6142425537109375,1,0.94
2020-05-16 12:55:42.747 -0400,11851.827524625,1.382736206054688,0.774993896484375,-0.4265594482421875,1,0.94
2020-05-16 12:55:42.816 -0400,11851.897366625,1.31561279296875,0.340545654296875,-0.1692047119140625,1,0.94
2020-05-16 12:55:42.886 -0400,11851.967209625,0.9398651123046875,0.226837158203125,-0.2852325439453125,1,0.94
2020-05-16 12:55:42.956 -0400,11852.037050625,0.6368560791015625,0.377105712890625,-0.072113037109375,1,0.94
2020-05-16 12:55:43.026 -0400,11852.106891625,0.8813323974609375,0.399658203125,-0.003692626953125,1,0.94
2020-05-16 12:55:43.096 -0400,11852.176732625,1.32049560546875,0.2773284912109375,0.037109375,1,0.94
2020-05-16 12:55:43.165 -0400,11852.246573625,1.190628051757812,0.2692718505859375,0.0784149169921875,1,0.94
2020-05-16 12:55:43.235 -0400,11852.31641175,0.9231719970703125,0.5319671630859375,-0.3063812255859375,1,0.94
2020-05-16 12:55:43.305 -0400,11852.38624775,1.272491455078125,0.4658050537109375,-0.3156280517578125,1,0.94
2020-05-16 12:55:43.375 -0400,11852.45608475,0.6825714111328125,-0.01055908203125,-0.27911376953125,1,0.94
2020-05-16 12:55:43.445 -0400,11852.52592875,0.3669891357421875,0.0941925048828125,-0.281707763671875,1,0.94
2020-05-16 12:55:43.515 -0400,11852.59577175,0.53106689453125,0.4152679443359375,-0.3345184326171875,1,0.94
2020-05-16 12:55:43.585 -0400,11852.66561775,0.9468841552734375,0.8657989501953125,-0.354034423828125,1,0.94
2020-05-16 12:55:43.654 -0400,11852.73546175,1.793258666992188,0.552459716796875,-0.5099029541015625,1,0.94
2020-05-16 12:55:43.724 -0400,11852.80530575,1.094573974609375,0.21380615234375,-0.3125,1,0.94
2020-05-16 12:55:43.794 -0400,11852.87514775,1.140029907226562,0.6579437255859375,-0.3779296875,1,0.94
2020-05-16 12:55:43.864 -0400,11852.94499075,1.10064697265625,0.472076416015625,-0.075286865234375,1,0.94
2020-05-16 12:55:43.934 -0400,11853.01483575,0.6999359130859375,0.146759033203125,-0.1003875732421875,1,0.94
2020-05-16 12:55:44.004 -0400,11853.08468175,0.4373321533203125,0.3759307861328125,-0.0894317626953125,1,0.94
2020-05-16 12:55:44.074 -0400,11853.15452675,0.654541015625,0.403289794921875,0.0170135498046875,1,0.94
2020-05-16 12:55:44.143 -0400,11853.22437375,1.248855590820312,0.2595367431640625,0.0467376708984375,1,0.94
2020-05-16 12:55:44.213 -0400,11853.294225125,1.605239868164062,0.2988739013671875,0.0811614990234375,1,0.94
2020-05-16 12:55:44.283 -0400,11853.364070125,1.300247192382812,0.5556182861328125,-0.333648681640625,1,0.94
2020-05-16 12:55:44.353 -0400,11853.433918125,1.053604125976562,0.4438629150390625,-0.3893280029296875,1,0.94
2020-05-16 12:55:44.423 -0400,11853.503765125,0.5081329345703125,0.12664794921875,-0.4162445068359375,1,0.94
2020-05-16 12:55:44.492 -0400,11853.573609125,0.2577056884765625,0.134368896484375,-0.4169921875,1,0.94
2020-05-16 12:55:44.562 -0400,11853.643452125,0.2415008544921875,0.6393280029296875,-0.3106842041015625,1,0.94
2020-05-16 12:55:44.632 -0400,11853.713298125,0.849395751953125,0.6251373291015625,-0.2802581787109375,1,0.94
2020-05-16 12:55:44.702 -0400,11853.783149125,1.888885498046875,0.6539459228515625,-0.42645263671875,1,0.94
2020-05-16 12:55:44.772 -0400,11853.853002125,1.4530029296875,0.2261810302734375,-0.34100341796875,1,0.94
2020-05-16 12:55:44.842 -0400,11853.922851125,1.197219848632812,0.429718017578125,-0.110504150390625,1,0.94
2020-05-16 12:55:44.912 -0400,11853.992699125,0.92449951171875,0.517364501953125,-0.199920654296875,1,0.94
2020-05-16 12:55:44.981 -0400,11854.062548125,0.4399261474609375,0.3230133056640625,-0.1194915771484375,1,0.94
2020-05-16 12:55:45.051 -0400,11854.132393125,0.3809051513671875,0.3462982177734375,-0.0177001953125,1,0.94
2020-05-16 12:55:45.121 -0400,11854.202238125,0.7885284423828125,0.328338623046875,-0.0792694091796875,1,0.94
2020-05-16 12:55:45.191 -0400,11854.272082,1.413650512695312,0.185577392578125,0.0218963623046875,1,0.94
2020-05-16 12:55:45.261 -0400,11854.341921,1.36187744140625,0.3219146728515625,-0.1552886962890625,1,0.94
2020-05-16 12:55:45.331 -0400,11854.411761,0.9094085693359375,0.556915283203125,-0.4038543701171875,1,0.94
2020-05-16 12:55:45.401 -0400,11854.481604,1.047637939453125,0.2852630615234375,-0.4155731201171875,1,0.94
2020-05-16 12:55:45.470 -0400,11854.551443,0.6722869873046875,-0.0233001708984375,-0.186614990234375,1,0.94
2020-05-16 12:55:45.540 -0400,11854.621285,0.37353515625,0.276031494140625,-0.2727508544921875,1,0.94
2020-05-16 12:55:45.610 -0400,11854.691125,0.4704132080078125,0.513092041015625,-0.1544189453125,1,0.94
2020-05-16 12:55:45.680 -0400,11854.760972,0.992218017578125,0.5791168212890625,-0.2714996337890625,1,0.94
2020-05-16 12:55:45.750 -0400,11854.830818,1.230789184570312,0.5551300048828125,-0.3871612548828125,1,0.94
2020-05-16 12:55:45.820 -0400,11854.900663,1.390304565429688,0.5269317626953125,-0.279510498046875,1,0.94
2020-05-16 12:55:45.889 -0400,11854.970505,1.16534423828125,0.769989013671875,-0.5347747802734375,1,0.94
2020-05-16 12:55:45.959 -0400,11855.040345,1.228424072265625,0.54095458984375,-0.26495361328125,1,0.94
2020-05-16 12:55:46.029 -0400,11855.110187,1.130218505859375,-0.005401611328125,-0.1369781494140625,1,0.94
2020-05-16 12:55:46.099 -0400,11855.180025,0.619171142578125,0.187835693359375,-0.1872100830078125,1,0.94
2020-05-16 12:55:46.169 -0400,11855.249867,0.5972900390625,0.4254150390625,-0.11810302734375,1,0.94
2020-05-16 12:55:46.239 -0400,11855.31971004167,1.074325561523438,0.3652191162109375,-0.0340118408203125,1,0.94
2020-05-16 12:55:46.309 -0400,11855.38955104167,1.294784545898438,0.171539306640625,0.075653076171875,1,0.94
2020-05-16 12:55:46.378 -0400,11855.45939304167,1.325180053710938,0.319732666015625,-0.044219970703125,1,0.94
2020-05-16 12:55:46.448 -0400,11855.52923004167,1.045303344726562,0.5723419189453125,-0.3018035888671875,1,0.94
2020-05-16 12:55:46.518 -0400,11855.59907104167,1.19189453125,0.367095947265625,-0.2225341796875,1,0.94
2020-05-16 12:55:46.588 -0400,11855.66891204167,0.8372650146484375,0.074249267578125,-0.27093505859375,1,0.94
2020-05-16 12:55:46.658 -0400,11855.73875104167,0.53338623046875,0.27105712890625,-0.3460235595703125,1,0.94
2020-05-16 12:55:46.727 -0400,11855.80859004167,0.4310455322265625,0.4406280517578125,-0.254180908203125,1,0.94
2020-05-16 12:55:46.797 -0400,11855.87842904167,0.58404541015625,0.4125823974609375,-0.3415374755859375,1,0.94
2020-05-16 12:55:46.867 -0400,11855.94827204167,1.3427734375,0.450592041015625,-0.496612548828125,1,0.94
2020-05-16 12:55:46.937 -0400,11856.01811404167,1.588668823242188,0.32598876953125,-0.376953125,1,0.94
2020-05-16 12:55:47.007 -0400,11856.08794904167,1.442153930664062,0.6131134033203125,-0.5972747802734375,1,0.94
2020-05-16 12:55:47.077 -0400,11856.15778504167,1.34393310546875,0.3746795654296875,-0.201263427734375,1,0.94
2020-05-16 12:55:47.146 -0400,11856.22762504167,1.014801025390625,0.2331695556640625,-0.114715576171875,1,0.94
2020-05-16 12:55:47.216 -0400,11856.29746766667,0.503265380859375,0.3946075439453125,-0.20343017578125,1,0.94
2020-05-16 12:55:47.286 -0400,11856.36730466667,0.2363128662109375,0.3563232421875,-0.3016815185546875,1,0.94
2020-05-16 12:55:47.356 -0400,11856.43714266667,0.3242034912109375,0.1744537353515625,0.0953216552734375,1,0.94
2020-05-16 12:55:47.426 -0400,11856.50698166667,1.514968872070312,0.443328857421875,-0.28765869140625,1,0.94
2020-05-16 12:55:47.496 -0400,11856.57681866667,0.9587860107421875,0.279815673828125,-0.23272705078125,1,0.94
2020-05-16 12:55:47.565 -0400,11856.64665566667,1.316421508789062,0.399627685546875,-0.1433563232421875,1,0.94
2020-05-16 12:55:47.636 -0400,11856.71648666667,1.184326171875,0.539825439453125,-0.5829010009765625,1,0.94
2020-05-16 12:55:47.705 -0400,11856.78631966667,0.8558197021484375,0.3929290771484375,-0.492584228515625,1,0.94
2020-05-16 12:55:47.775 -0400,11856.85615266667,0.4391937255859375,0.1989593505859375,-0.2893218994140625,1,0.94
2020-05-16 12:55:47.845 -0400,11856.92598266667,0.4373016357421875,0.4332122802734375,-0.2985992431640625,1,0.94
2020-05-16 12:55:47.915 -0400,11856.99581766667,1.342254638671875,0.6857452392578125,-0.675628662109375,1,0.94
2020-05-16 12:55:47.985 -0400,11857.06565366667,1.115142822265625,0.252655029296875,-0.7075347900390625,1,0.94
2020-05-16 12:55:48.054 -0400,11857.13549066667,1.641265869140625,0.32354736328125,-0.400146484375,1,0.94
2020-05-16 12:55:48.124 -0400,11857.20533066667,1.274551391601562,0.554168701171875,-0.5213775634765625,1,0.94
2020-05-16 12:55:48.194 -0400,11857.27517216667,1.500213623046875,0.15643310546875,-0.134307861328125,1,0.94
2020-05-16 12:55:48.264 -0400,11857.34501616667,0.8730010986328125,0.294952392578125,-0.1541900634765625,1,0.94
2020-05-16 12:55:48.334 -0400,11857.41485816667,0.46588134765625,0.3456268310546875,-0.089752197265625,1,0.94
2020-05-16 12:55:48.404 -0400,11857.48470016667,0.4395904541015625,0.3088531494140625,0.0483856201171875,1,0.94
2020-05-16 12:55:48.473 -0400,11857.55454316667,0.7131195068359375,0.239227294921875,0.023834228515625,1,0.94
2020-05-16 12:55:48.543 -0400,11857.62438316667,1.02734375,0.2654266357421875,-0.0082855224609375,1,0.94
2020-05-16 12:55:48.613 -0400,11857.69422316667,1.358200073242188,0.4203338623046875,-0.172149658203125,1,0.94
2020-05-16 12:55:48.683 -0400,11857.76406716667,1.236007690429688,0.537261962890625,-0.513397216796875,1,0.94
2020-05-16 12:55:48.753 -0400,11857.83390916667,1.3865966796875,0.2612152099609375,-0.2460784912109375,1,0.94
2020-05-16 12:55:48.823 -0400,11857.90374816667,0.7393341064453125,0.1220855712890625,-0.485595703125,1,0.94
2020-05-16 12:55:48.892 -0400,11857.97358716667,0.4215240478515625,0.4411468505859375,-0.3431396484375,1,0.94
2020-05-16 12:55:48.962 -0400,11858.04341916667,0.61083984375,0.5435638427734375,-0.26068115234375,1,0.94
2020-05-16 12:55:49.032 -0400,11858.11325316667,1.159622192382812,0.588043212890625,-0.5133209228515625,1,0.94
2020-05-16 12:55:49.102 -0400,11858.18308616667,1.582061767578125,0.433837890625,-0.394989013671875,1,0.94
2020-05-16 12:55:49.172 -0400,11858.25291916667,1.374862670898438,0.53887939453125,-0.3178863525390625,1,0.94
2020-05-16 12:55:49.242 -0400,11858.322753625,1.34991455078125,0.5038604736328125,-0.202972412109375,1,0.94
2020-05-16 12:55:49.311 -0400,11858.392592625,1.153884887695312,0.2919464111328125,-0.0525360107421875,1,0.94
2020-05-16 12:55:49.381 -0400,11858.462430625,0.6550750732421875,0.321563720703125,-0.1102752685546875,1,0.94
2020-05-16 12:55:49.451 -0400,11858.532269625,0.391021728515625,0.3272857666015625,-0.0127716064453125,1,0.94
2020-05-16 12:55:49.521 -0400,11858.602108625,0.48870849609375,0.2693634033203125,-0.0041656494140625,1,0.94
2020-05-16 12:55:49.591 -0400,11858.671947625,1.060546875,0.288848876953125,-0.03912353515625,1,0.94
2020-05-16 12:55:49.661 -0400,11858.741786625,1.125656127929688,0.2261199951171875,-0.00830078125,1,0.94
2020-05-16 12:55:49.731 -0400,11858.811625625,1.087158203125,0.520965576171875,-0.176666259765625,1,0.94
2020-05-16 12:55:49.800 -0400,11858.881460625,1.279678344726562,0.7805023193359375,-0.5327911376953125,1,0.94
2020-05-16 12:55:49.870 -0400,11858.951296625,1.110748291015625,0.206573486328125,-0.1394195556640625,1,0.94
2020-05-16 12:55:49.940 -0400,11859.021130625,0.5461273193359375,0.0218048095703125,-0.349365234375,1,0.94
2020-05-16 12:55:50.010 -0400,11859.090963625,0.432647705078125,0.259124755859375,-0.340545654296875,1,0.94
2020-05-16 12:55:50.080 -0400,11859.160797625,0.7896881103515625,0.6444549560546875,-0.55340576171875,1,0.94
2020-05-16 12:55:50.150 -0400,11859.230629625,1.120376586914062,0.3370208740234375,-0.4205322265625,1,0.94
2020-05-16 12:55:50.219 -0400,11859.3004595,1.615875244140625,0.2980499267578125,-0.3712615966796875,1,0.94
2020-05-16 12:55:50.289 -0400,11859.3702915,1.234527587890625,0.4232330322265625,-0.25445556640625,1,0.94
2020-05-16 12:55:50.360 -0400,11859.4401275,1.0633544921875,0.4437408447265625,-0.1695709228515625,1,0.94
2020-05-16 12:55:50.429 -0400,11859.5099645,0.8528900146484375,0.373504638671875,-0.0592041015625,1,0.94
2020-05-16 12:55:50.499 -0400,11859.5798005,0.53521728515625,0.311614990234375,-0.030517578125,1,0.94
2020-05-16 12:55:50.569 -0400,11859.6496375,0.459197998046875,0.3607177734375,-0.00091552734375,1,0.94
2020-05-16 12:55:50.638 -0400,11859.7194705,1.034286499023438,0.3862152099609375,-0.048583984375,1,0.94
2020-05-16 12:55:50.708 -0400,11859.7893065,1.33538818359375,0.240692138671875,-0.0226593017578125,1,0.94
2020-05-16 12:55:50.778 -0400,11859.8591425,1.64410400390625,0.3330841064453125,-0.0982513427734375,1,0.94
2020-05-16 12:55:50.848 -0400,11859.9289755,0.9123687744140625,0.514190673828125,-0.5203399658203125,1,0.94
2020-05-16 12:55:50.918 -0400,11859.9988085,0.9533843994140625,0.1944580078125,-0.28363037109375,1,0.94
2020-05-16 12:55:50.988 -0400,11860.0686465,0.689361572265625,0.076568603515625,-0.3792572021484375,1,0.94
2020-05-16 12:55:51.057 -0400,11860.1384865,0.424652099609375,0.5375823974609375,-0.3879241943359375,1,0.94
2020-05-16 12:55:51.127 -0400,11860.2083315,0.627471923828125,0.4807281494140625,-0.3473663330078125,1,0.94
2020-05-16 12:55:51.197 -0400,11860.278171625,0.925750732421875,0.463165283203125,-0.361114501953125,1,0.94
2020-05-16 12:55:51.273 -0400,11860.348015625,1.202911376953125,0.444732666015625,-0.415863037109375,1,0.94
2020-05-16 12:55:51.337 -0400,11860.417858625,1.511367797851562,0.600860595703125,-0.536224365234375,1,0.94
2020-05-16 12:55:51.407 -0400,11860.487701625,1.2889404296875,0.466278076171875,-0.3589935302734375,1,0.94
2020-05-16 12:55:51.476 -0400,11860.557546625,1.202484130859375,0.2454833984375,-0.159912109375,1,0.94
2020-05-16 12:55:51.546 -0400,11860.627387625,0.55413818359375,0.2982940673828125,-0.274444580078125,1,0.94
2020-05-16 12:55:51.616 -0400,11860.697227625,0.3556365966796875,0.281463623046875,-0.102569580078125,1,0.94
2020-05-16 12:55:51.686 -0400,11860.767066625,0.496185302734375,0.204864501953125,-0.0375213623046875,1,0.94
2020-05-16 12:55:51.756 -0400,11860.836904625,1.04620361328125,0.2030792236328125,-0.01788330078125,1,0.94
2020-05-16 12:55:51.826 -0400,11860.906741625,1.372116088867188,0.3759918212890625,-0.0452880859375,1,0.94
2020-05-16 12:55:51.895 -0400,11860.976582625,1.283172607421875,0.6664276123046875,-0.594879150390625,1,0.94
2020-05-16 12:55:51.966 -0400,11861.046424625,1.4224853515625,0.371612548828125,-0.18670654296875,1,0.94
2020-05-16 12:55:52.035 -0400,11861.116269625,0.79559326171875,-0.026214599609375,-0.322601318359375,1,0.94
2020-05-16 12:55:52.105 -0400,11861.186115625,0.44708251953125,0.3250732421875,-0.2761688232421875,1,0.94
2020-05-16 12:55:52.175 -0400,11861.255961625,0.4571380615234375,0.5390625,-0.2186737060546875,1,0.94
2020-05-16 12:55:52.245 -0400,11861.325806375,0.982513427734375,0.5334014892578125,-0.3912353515625,1,0.94
2020-05-16 12:55:52.314 -0400,11861.395648375,1.066802978515625,0.4112396240234375,-0.398284912109375,1,0.94
2020-05-16 12:55:52.384 -0400,11861.465489375,1.49981689453125,0.5442657470703125,-0.4303741455078125,1,0.94
2020-05-16 12:55:52.454 -0400,11861.535330375,1.316177368164062,0.539794921875,-0.451263427734375,1,0.94
2020-05-16 12:55:52.524 -0400,11861.605176375,1.233245849609375,0.296844482421875,-0.1922607421875,1,0.94
2020-05-16 12:55:52.594 -0400,11861.675021375,0.720458984375,0.298095703125,-0.2507171630859375,1,0.94
2020-05-16 12:55:52.664 -0400,11861.744867375,0.393798828125,0.3031005859375,-0.1421356201171875,1,0.94
2020-05-16 12:55:52.734 -0400,11861.814714375,0.4579620361328125,0.267242431640625,-0.041839599609375,1,0.94
2020-05-16 12:55:52.803 -0400,11861.884558375,1.204177856445312,0.339019775390625,-0.1418609619140625,1,0.94
2020-05-16 12:55:52.873 -0400,11861.954405375,1.275741577148438,0.3260498046875,-0.09674072265625,1,0.94
2020-05-16 12:55:52.943 -0400,11862.024250375,1.315109252929688,0.5020904541015625,-0.2687530517578125,1,0.94
2020-05-16 12:55:53.013 -0400,11862.094092375,1.225921630859375,0.45928955078125,-0.4703216552734375,1,0.94
2020-05-16 12:55:53.083 -0400,11862.163933375,0.807159423828125,0.046295166015625,-0.1625518798828125,1,0.94
2020-05-16 12:55:53.153 -0400,11862.233776375,0.3781585693359375,0.1480255126953125,-0.28741455078125,1,0.94
2020-05-16 12:55:53.223 -0400,11862.30361479167,0.327789306640625,0.445892333984375,-0.158203125,1,0.94
2020-05-16 12:55:53.292 -0400,11862.37345479167,0.9032135009765625,0.5836029052734375,-0.352264404296875,1,0.94
2020-05-16 12:55:53.362 -0400,11862.44329479167,0.99346923828125,0.507659912109375,-0.4908294677734375,1,0.94
2020-05-16 12:55:53.432 -0400,11862.51312979167,1.303573608398438,0.2689056396484375,-0.3314361572265625,1,0.94
2020-05-16 12:55:53.502 -0400,11862.58296579167,1.3638916015625,0.4220123291015625,-0.5091552734375,1,0.94
2020-05-16 12:55:53.572 -0400,11862.65280379167,1.196670532226562,0.3345947265625,-0.3232421875,1,0.94
2020-05-16 12:55:53.641 -0400,11862.72264179167,1.06939697265625,0.2177276611328125,-0.1692352294921875,1,0.94
2020-05-16 12:55:53.712 -0400,11862.79248079167,0.5209503173828125,0.3221282958984375,-0.17706298828125,1,0.94
2020-05-16 12:55:53.781 -0400,11862.86232279167,0.321044921875,0.32733154296875,-0.1048736572265625,1,0.94
2020-05-16 12:55:53.851 -0400,11862.93216579167,0.454986572265625,0.26165771484375,-0.04876708984375,1,0.94
2020-05-16 12:55:53.921 -0400,11863.00200279167,1.040969848632812,0.2882843017578125,-0.1485748291015625,1,0.94
2020-05-16 12:55:53.991 -0400,11863.07184079167,1.329986572265625,0.2723846435546875,-0.153167724609375,1,0.94
2020-05-16 12:55:54.061 -0400,11863.14167779167,1.452804565429688,0.475128173828125,-0.335174560546875,1,0.94
2020-05-16 12:55:54.131 -0400,11863.21151179167,1.17376708984375,0.491119384765625,-0.543609619140625,1,0.94
2020-05-16 12:55:54.200 -0400,11863.2813495,1.037826538085938,0.1338653564453125,-0.0926666259765625,1,0.94
2020-05-16 12:55:54.270 -0400,11863.3511875,0.5754852294921875,0.239776611328125,-0.2619781494140625,1,0.94
2020-05-16 12:55:54.340 -0400,11863.4210275,0.4061279296875,0.5203704833984375,-0.161468505859375,1,0.94
2020-05-16 12:55:54.410 -0400,11863.4908665,0.5090484619140625,0.5299224853515625,-0.268157958984375,1,0.94
2020-05-16 12:55:54.480 -0400,11863.5607085,0.9369659423828125,0.4260406494140625,-0.3280029296875,1,0.94
2020-05-16 12:55:54.549 -0400,11863.6305495,1.337600708007812,0.3419189453125,-0.4188995361328125,1,0.94
2020-05-16 12:55:54.619 -0400,11863.7003905,1.414688110351562,0.3707122802734375,-0.3896026611328125,1,0.94
2020-05-16 12:55:54.689 -0400,11863.7702325,1.30438232421875,0.3686065673828125,-0.3253173828125,1,0.94
2020-05-16 12:55:54.759 -0400,11863.8400735,1.1318359375,0.34576416015625,-0.12200927734375,1,0.94
2020-05-16 12:55:54.829 -0400,11863.9099205,0.595794677734375,0.328582763671875,-0.1075897216796875,1,0.94
2020-05-16 12:55:54.899 -0400,11863.9797665,0.4056854248046875,0.3558807373046875,-0.0334320068359375,1,0.94
2020-05-16 12:55:54.968 -0400,11864.0496115,0.59759521484375,0.3341064453125,-0.0383453369140625,1,0.94
2020-05-16 12:55:55.038 -0400,11864.1194515,1.12548828125,0.2483673095703125,-0.0485992431640625,1,0.94
2020-05-16 12:55:55.108 -0400,11864.1892895,1.208663940429688,0.168365478515625,-0.0845947265625,1,0.94
2020-05-16 12:55:55.178 -0400,11864.2591345,1.334716796875,0.48590087890625,-0.139495849609375,1,0.94
2020-05-16 12:55:55.248 -0400,11864.32897691667,1.15631103515625,0.6118011474609375,-0.4577178955078125,1,0.94
2020-05-16 12:55:55.318 -0400,11864.39881891667,1.089981079101562,0.4019012451171875,-0.369659423828125,1,0.94
2020-05-16 12:55:55.388 -0400,11864.46865991667,0.52679443359375,0.031585693359375,-0.2921600341796875,1,0.94
2020-05-16 12:55:55.457 -0400,11864.53850291667,0.4093017578125,0.2464599609375,-0.2645263671875,1,0.94
2020-05-16 12:55:55.527 -0400,11864.60834691667,0.626251220703125,0.4307403564453125,-0.3213043212890625,1,0.94
2020-05-16 12:55:55.597 -0400,11864.67818891667,0.9658660888671875,0.4423675537109375,-0.4239959716796875,1,0.94
2020-05-16 12:55:55.667 -0400,11864.74802991667,1.323165893554688,0.397308349609375,-0.3986358642578125,1,0.94
2020-05-16 12:55:55.737 -0400,11864.81787191667,1.201675415039062,0.4873199462890625,-0.44195556640625,1,0.94
2020-05-16 12:55:55.807 -0400,11864.88771491667,1.475250244140625,0.432037353515625,-0.268157958984375,1,0.94
2020-05-16 12:55:55.877 -0400,11864.95756091667,1.159439086914062,0.240447998046875,-0.1224517822265625,1,0.94
2020-05-16 12:55:55.946 -0400,11865.02740691667,0.624908447265625,0.3573760986328125,-0.1401824951171875,1,0.94
2020-05-16 12:55:56.016 -0400,11865.09724991667,0.4451446533203125,0.357177734375,-0.044830322265625,1,0.94
2020-05-16 12:55:56.086 -0400,11865.16708891667,0.7056121826171875,0.2769775390625,-0.0477142333984375,1,0.94
2020-05-16 12:55:56.156 -0400,11865.23692891667,1.190750122070312,0.2177734375,0.0331268310546875,1,0.94
2020-05-16 12:55:56.226 -0400,11865.306773625,1.261306762695312,0.3458251953125,-0.16094970703125,1,0.94
2020-05-16 12:55:56.295 -0400,11865.376619625,1.0577392578125,0.49365234375,-0.2871856689453125,1,0.94
2020-05-16 12:55:56.365 -0400,11865.446460625,1.331436157226562,0.4071502685546875,-0.3001861572265625,1,0.94
2020-05-16 12:55:56.435 -0400,11865.516302625,0.8997039794921875,0.12933349609375,-0.1489410400390625,1,0.94
2020-05-16 12:55:56.505 -0400,11865.586144625,0.498321533203125,0.3264923095703125,-0.2613372802734375,1,0.94
2020-05-16 12:55:56.575 -0400,11865.655989625,0.4564208984375,0.4504852294921875,-0.2110443115234375,1,0.94
2020-05-16 12:55:56.645 -0400,11865.725828625,0.7761688232421875,0.4286651611328125,-0.320709228515625,1,0.94
2020-05-16 12:55:56.714 -0400,11865.795668625,1.023223876953125,0.3809814453125,-0.3505401611328125,1,0.94
2020-05-16 12:55:56.784 -0400,11865.865513625,1.4031982421875,0.4541473388671875,-0.4145050048828125,1,0.94
2020-05-16 12:55:56.854 -0400,11865.935358625,1.37432861328125,0.431976318359375,-0.3605499267578125,1,0.94
2020-05-16 12:55:56.924 -0400,11866.005202625,1.147628784179688,0.4135284423828125,-0.27105712890625,1,0.94
2020-05-16 12:55:56.994 -0400,11866.075043625,1.042129516601562,0.4112396240234375,-0.182220458984375,1,0.94
2020-05-16 12:55:57.064 -0400,11866.144888625,0.6456756591796875,0.2812652587890625,-0.101806640625,1,0.94
2020-05-16 12:55:57.134 -0400,11866.214733625,0.5225830078125,0.2979888916015625,-0.0668792724609375,1,0.94
2020-05-16 12:55:57.203 -0400,11866.284574875,0.757904052734375,0.259368896484375,-0.052978515625,1,0.94
2020-05-16 12:55:57.274 -0400,11866.354414875,1.129318237304688,0.2780914306640625,-0.103973388671875,1,0.94
2020-05-16 12:55:57.343 -0400,11866.424250875,1.17974853515625,0.341339111328125,-0.173370361328125,1,0.94
2020-05-16 12:55:57.413 -0400,11866.494088875,1.133499145507812,0.4443511962890625,-0.2165679931640625,1,0.94
2020-05-16 12:55:57.483 -0400,11866.563929875,1.142684936523438,0.4014892578125,-0.415802001953125,1,0.94
2020-05-16 12:55:57.553 -0400,11866.633766875,0.9871826171875,0.18243408203125,-0.1299591064453125,1,0.94
2020-05-16 12:55:57.622 -0400,11866.703596875,0.474334716796875,0.3001708984375,-0.290252685546875,1,0.94
2020-05-16 12:55:57.693 -0400,11866.773427875,0.390625,0.4068145751953125,-0.2166900634765625,1,0.94
2020-05-16 12:55:57.762 -0400,11866.843261875,0.6553955078125,0.3768768310546875,-0.3067474365234375,1,0.94
2020-05-16 12:55:57.832 -0400,11866.913097875,0.9815521240234375,0.44915771484375,-0.4348602294921875,1,0.94
2020-05-16 12:55:57.902 -0400,11866.982930875,1.34454345703125,0.44073486328125,-0.4930267333984375,1,0.94
2020-05-16 12:55:57.972 -0400,11867.052763875,1.308029174804688,0.38250732421875,-0.4762725830078125,1,0.94
2020-05-16 12:55:58.042 -0400,11867.122592875,1.083999633789062,0.48681640625,-0.3831939697265625,1,0.94
2020-05-16 12:55:58.112 -0400,11867.192417875,1.2373046875,0.2821197509765625,-0.1885528564453125,1,0.94
2020-05-16 12:55:58.181 -0400,11867.262245875,0.733642578125,0.337493896484375,-0.1648406982421875,1,0.94
2020-05-16 12:55:58.251 -0400,11867.33207729167,0.5482635498046875,0.397552490234375,-0.0758056640625,1,0.94
2020-05-16 12:55:58.321 -0400,11867.40191229167,0.695526123046875,0.26214599609375,-0.0370941162109375,1,0.94
2020-05-16 12:55:58.391 -0400,11867.47174529167,1.017440795898438,0.258941650390625,-0.0502471923828125,1,0.94
2020-05-16 12:55:58.460 -0400,11867.54157329167,1.1197509765625,0.32489013671875,-0.1048583984375,1,0.94
2020-05-16 12:55:58.530 -0400,11867.61140929167,1.146240234375,0.4170074462890625,-0.255462646484375,1,0.94
2020-05-16 12:55:58.600 -0400,11867.68124729167,1.185562133789062,0.3713531494140625,-0.5313262939453125,1,0.94
2020-05-16 12:55:58.670 -0400,11867.75108129167,1.027801513671875,0.14300537109375,-0.1906585693359375,1,0.94
2020-05-16 12:55:58.740 -0400,11867.82091329167,0.513153076171875,0.2771759033203125,-0.421722412109375,1,0.94
2020-05-16 12:55:58.810 -0400,11867.89074829167,0.371673583984375,0.425872802734375,-0.19757080078125,1,0.94
2020-05-16 12:55:58.879 -0400,11867.96058429167,0.6620025634765625,0.475433349609375,-0.308441162109375,1,0.94
2020-05-16 12:55:58.949 -0400,11868.03041829167,1.121414184570312,0.4725494384765625,-0.4092559814453125,1,0.94
2020-05-16 12:55:59.019 -0400,11868.10025029167,1.64501953125,0.50262451171875,-0.473663330078125,1,0.94
2020-05-16 12:55:59.089 -0400,11868.17008429167,1.12652587890625,0.4219512939453125,-0.455291748046875,1,0.94
2020-05-16 12:55:59.159 -0400,11868.23992029167,1.184661865234375,0.421417236328125,-0.2904510498046875,1,0.94
2020-05-16 12:55:59.229 -0400,11868.30975675,1.0511474609375,0.281707763671875,-0.1919403076171875,1,0.94
2020-05-16 12:55:59.299 -0400,11868.37959175,0.6157684326171875,0.3130340576171875,-0.166656494140625,1,0.94
2020-05-16 12:55:59.368 -0400,11868.44942975,0.52801513671875,0.36358642578125,-0.064239501953125,1,0.94
2020-05-16 12:55:59.438 -0400,11868.51926875,0.7474822998046875,0.2845916748046875,-0.0501708984375,1,0.94
2020-05-16 12:55:59.508 -0400,11868.58911075,1.1878662109375,0.2563934326171875,-0.060791015625,1,0.94
2020-05-16 12:55:59.578 -0400,11868.65895375,1.19683837890625,0.3754119873046875,-0.181793212890625,1,0.94
2020-05-16 12:55:59.648 -0400,11868.72879375,1.004501342773438,0.42645263671875,-0.2555389404296875,1,0.94
2020-05-16 12:55:59.717 -0400,11868.79863175,1.022872924804688,0.373046875,-0.419769287109375,1,0.94
2020-05-16 12:55:59.787 -0400,11868.86846975,0.8239288330078125,0.1920318603515625,-0.218170166015625,1,0.94
2020-05-16 12:55:59.857 -0400,11868.93830975,0.4521026611328125,0.2605743408203125,-0.3491668701171875,1,0.94
2020-05-16 12:55:59.927 -0400,11869.00815075,0.5035247802734375,0.3823394775390625,-0.3045196533203125,1,0.94
2020-05-16 12:55:59.997 -0400,11869.07798975,0.84478759765625,0.363433837890625,-0.38250732421875,1,0.94
2020-05-16 12:56:00.067 -0400,11869.14782275,1.34893798828125,0.3982696533203125,-0.4881744384765625,1,0.94
2020-05-16 12:56:00.137 -0400,11869.21766075,1.420501708984375,0.4157562255859375,-0.55255126953125,1,0.94
2020-05-16 12:56:00.207 -0400,11869.28750179167,1.220352172851562,0.464752197265625,-0.5386810302734375,1,0.94
2020-05-16 12:56:00.276 -0400,11869.35734079167,1.156723022460938,0.039337158203125,0.0381317138671875,1,0.94
2020-05-16 12:56:00.346 -0400,11869.42717579167,0.8947601318359375,0.1204681396484375,-0.1738739013671875,1,0.94
2020-05-16 12:56:00.416 -0400,11869.49700779167,0.528839111328125,0.1295928955078125,-0.060699462890625,1,0.94
2020-05-16 12:56:00.486 -0400,11869.56683779167,0.543670654296875,0.400177001953125,0.0516204833984375,1,0.94
2020-05-16 12:56:00.555 -0400,11869.63666879167,1.15643310546875,0.3099822998046875,0.006683349609375,1,0.94
2020-05-16 12:56:00.626 -0400,11869.70650279167,1.377273559570312,0.2764434814453125,-0.0922393798828125,1,0.94
2020-05-16 12:56:00.695 -0400,11869.77633379167,1.252044677734375,0.4463653564453125,-0.2391204833984375,1,0.94
2020-05-16 12:56:00.765 -0400,11869.84616879167,1.03802490234375,0.423126220703125,-0.4383697509765625,1,0.94
2020-05-16 12:56:00.835 -0400,11869.91600179167,1.015121459960938,0.1457061767578125,-0.269866943359375,1,0.94
2020-05-16 12:56:00.905 -0400,11869.98583979167,0.8876190185546875,0.0632171630859375,-0.179351806640625,1,0.94
2020-05-16 12:56:00.975 -0400,11870.05567379167,0.5983734130859375,0.460601806640625,-0.4264068603515625,1,0.94
2020-05-16 12:56:01.045 -0400,11870.12551079167,0.3632049560546875,0.4119873046875,-0.2928924560546875,1,0.94
2020-05-16 12:56:01.114 -0400,11870.19535179167,0.473968505859375,0.287109375,-0.3457183837890625,1,0.94
2020-05-16 12:56:01.184 -0400,11870.26519179167,0.8202056884765625,0.191314697265625,-0.3881988525390625,1,0.94
2020-05-16 12:56:01.254 -0400,11870.335027875,1.109649658203125,0.5484771728515625,-0.3015289306640625,1,0.94
2020-05-16 12:56:01.324 -0400,11870.404863875,1.613906860351562,0.6761627197265625,-0.4007568359375,1,0.94
2020-05-16 12:56:01.394 -0400,11870.474697875,1.393600463867188,0.8090667724609375,-0.231719970703125,1,0.94
2020-05-16 12:56:01.463 -0400,11870.544536875,1.282089233398438,0.324127197265625,-0.12384033203125,1,0.94
2020-05-16 12:56:01.533 -0400,11870.614374875,0.819915771484375,0.2361297607421875,-0.1951446533203125,1,0.94
2020-05-16 12:56:01.603 -0400,11870.684212875,0.4850921630859375,0.264617919921875,-0.1203765869140625,1,0.94
2020-05-16 12:56:01.673 -0400,11870.754050875,0.5562896728515625,0.2329254150390625,-0.0110015869140625,1,0.94
2020-05-16 12:56:01.743 -0400,11870.823888875,0.950347900390625,0.2635345458984375,0.0289154052734375,1,0.94
2020-05-16 12:56:01.813 -0400,11870.893728875,0.881500244140625,0.3719635009765625,-0.0901947021484375,1,0.94
2020-05-16 12:56:01.882 -0400,11870.963567875,1.2015380859375,0.581817626953125,-0.273590087890625,1,0.94
2020-05-16 12:56:01.952 -0400,11871.033405875,1.560256958007812,0.4416351318359375,-0.356231689453125,1,0.94
2020-05-16 12:56:02.022 -0400,11871.103241875,0.9069061279296875,0.1886138916015625,-0.260955810546875,1,0.94
2020-05-16 12:56:02.092 -0400,11871.173073875,0.4938201904296875,0.2489776611328125,-0.29248046875,1,0.94
2020-05-16 12:56:02.162 -0400,11871.242907875,0.4209442138671875,0.4386749267578125,-0.231597900390625,1,0.94
2020-05-16 12:56:02.232 -0400,11871.312744375,0.728118896484375,0.5886993408203125,-0.4161529541015625,1,0.94
2020-05-16 12:56:02.302 -0400,11871.382578375,1.200775146484375,0.6350250244140625,-0.53375244140625,1,0.94
2020-05-16 12:56:02.371 -0400,11871.452421375,1.846435546875,0.5415802001953125,-0.600799560546875,1,0.94
2020-05-16 12:56:02.441 -0400,11871.522261375,1.417633056640625,0.331817626953125,-0.3654022216796875,1,0.94
2020-05-16 12:56:02.511 -0400,11871.592100375,1.47076416015625,0.3248291015625,-0.16461181640625,1,0.94
2020-05-16 12:56:02.581 -0400,11871.661944375,0.747467041015625,0.353973388671875,-0.198638916015625,1,0.94
2020-05-16 12:56:02.651 -0400,11871.731783375,0.4258270263671875,0.3689727783203125,-0.03143310546875,1,0.94
2020-05-16 12:56:02.720 -0400,11871.801625375,0.4744873046875,0.258575439453125,0.0010833740234375,1,0.94
2020-05-16 12:56:02.790 -0400,11871.871461375,0.8030548095703125,0.193817138671875,-0.000274658203125,1,0.94
2020-05-16 12:56:02.860 -0400,11871.941298375,0.964141845703125,0.23492431640625,-0.018707275390625,1,0.94
2020-05-16 12:56:02.930 -0400,11872.011137375,1.289154052734375,0.55517578125,-0.215301513671875,1,0.94
2020-05-16 12:56:03.000 -0400,11872.080977375,1.329391479492188,0.6607666015625,-0.66668701171875,1,0.94
2020-05-16 12:56:03.070 -0400,11872.150815375,1.155517578125,0.173980712890625,-0.220184326171875,1,0.94
2020-05-16 12:56:03.140 -0400,11872.220651375,0.6365814208984375,0.1111297607421875,-0.3587646484375,1,0.94
2020-05-16 12:56:03.209 -0400,11872.29048641667,0.463165283203125,0.48876953125,-0.250030517578125,1,0.94
2020-05-16 12:56:03.279 -0400,11872.36032141667,0.7006072998046875,0.6580657958984375,-0.483551025390625,1,0.94
2020-05-16 12:56:03.349 -0400,11872.43015741667,0.912841796875,0.5291595458984375,-0.580810546875,1,0.94
2020-05-16 12:56:03.419 -0400,11872.49998841667,1.288955688476562,0.3621063232421875,-0.5251922607421875,1,0.94
2020-05-16 12:56:03.489 -0400,11872.56982241667,1.383987426757812,0.44512939453125,-0.596893310546875,1,0.94
2020-05-16 12:56:03.558 -0400,11872.63965441667,1.479385375976562,0.41119384765625,-0.2482452392578125,1,0.94
2020-05-16 12:56:03.628 -0400,11872.70949141667,1.32086181640625,0.3905792236328125,-0.188812255859375,1,0.94
2020-05-16 12:56:03.698 -0400,11872.77932541667,0.7190399169921875,0.4176483154296875,-0.1883697509765625,1,0.94
2020-05-16 12:56:03.768 -0400,11872.84916441667,0.5460662841796875,0.275177001953125,-0.0315399169921875,1,0.94
2020-05-16 12:56:03.838 -0400,11872.91900141667,0.4532012939453125,0.14453125,0.0367889404296875,1,0.94
2020-05-16 12:56:03.908 -0400,11872.98883741667,0.481781005859375,0.1241455078125,0.0504913330078125,1,0.94
2020-05-16 12:56:03.977 -0400,11873.05867341667,0.371429443359375,0.239501953125,0.024383544921875,1,0.94
2020-05-16 12:56:04.047 -0400,11873.12850941667,0.4326934814453125,0.2896575927734375,-0.112640380859375,1,0.94
2020-05-16 12:56:04.117 -0400,11873.19834341667,2.157119750976562,0.676727294921875,-0.145904541015625,1,0.94
2020-05-16 12:56:04.187 -0400,11873.26817941667,1.799163818359375,0.4872894287109375,-0.8690032958984375,1,0.94
2020-05-16 12:56:04.257 -0400,11873.3380155,1.090499877929688,0.5684967041015625,-0.526214599609375,1,0.94
2020-05-16 12:56:04.327 -0400,11873.4078485,0.685760498046875,0.62677001953125,-0.41748046875,1,0.94
2020-05-16 12:56:04.397 -0400,11873.4776825,0.3944091796875,0.7649993896484375,-0.3202667236328125,1,0.94
2020-05-16 12:56:04.466 -0400,11873.5475225,0.5052337646484375,0.7771759033203125,-0.4609832763671875,1,0.94
2020-05-16 12:56:04.537 -0400,11873.6173565,2.198257446289062,1.185150146484375,-0.7845458984375,1,0.94
2020-05-16 12:56:04.606 -0400,11873.6871915,2.101470947265625,-0.1287689208984375,-0.0365447998046875,1,0.94
2020-05-16 12:56:04.676 -0400,11873.7570275,1.433944702148438,0.753326416015625,-0.2353515625,1,0.94
2020-05-16 12:56:04.746 -0400,11873.8268635,1.043853759765625,0.65496826171875,-0.1665496826171875,1,0.94
2020-05-16 12:56:04.816 -0400,11873.8966985,0.6463623046875,0.247100830078125,0.125518798828125,1,0.94
2020-05-16 12:56:04.885 -0400,11873.9665375,0.577239990234375,0.076446533203125,0.085479736328125,1,0.94
2020-05-16 12:56:04.955 -0400,11874.0363725,0.6651458740234375,0.0982666015625,0.08746337890625,1,0.94
2020-05-16 12:56:05.025 -0400,11874.1062045,0.5829315185546875,0.178741455078125,0.0931549072265625,1,0.94
2020-05-16 12:56:05.095 -0400,11874.1760385,0.9262847900390625,0.5370635986328125,-0.1550445556640625,1,0.94
2020-05-16 12:56:05.165 -0400,11874.2458695,1.6944580078125,0.727142333984375,-0.588287353515625,1,0.94
2020-05-16 12:56:05.235 -0400,11874.31570104167,1.68060302734375,0.783660888671875,-0.44000244140625,1,0.94
2020-05-16 12:56:05.304 -0400,11874.38553704167,0.7573089599609375,0.3478546142578125,-0.419921875,1,0.94
2020-05-16 12:56:05.374 -0400,11874.45537704167,0.672576904296875,0.323089599609375,-0.322113037109375,1,0.94
2020-05-16 12:56:05.444 -0400,11874.52521604167,0.9953765869140625,0.845184326171875,-0.3685455322265625,1,0.94
2020-05-16 12:56:05.514 -0400,11874.59505104167,1.040512084960938,0.9551544189453125,-0.5914459228515625,1,0.94
2020-05-16 12:56:05.584 -0400,11874.66489004167,1.225555419921875,0.4801177978515625,-0.467071533203125,1,0.94
2020-05-16 12:56:05.653 -0400,11874.73473004167,1.912384033203125,0.832000732421875,-0.667327880859375,1,0.94
2020-05-16 12:56:05.724 -0400,11874.80456604167,2.0067138671875,0.307769775390625,-0.226104736328125,1,0.94
2020-05-16 12:56:05.793 -0400,11874.87440004167,0.984405517578125,0.293182373046875,-0.43133544921875,1,0.94
2020-05-16 12:56:05.863 -0400,11874.94423804167,0.5510711669921875,0.3356781005859375,-0.09564208984375,1,0.94
2020-05-16 12:56:05.933 -0400,11875.01407704167,0.4949798583984375,0.2555694580078125,0.044464111328125,1,0.94
2020-05-16 12:56:06.003 -0400,11875.08391204167,0.718414306640625,0.142303466796875,0.0200347900390625,1,0.94
2020-05-16 12:56:06.073 -0400,11875.15374804167,0.6350860595703125,0.0955352783203125,0.1568603515625,1,0.94
2020-05-16 12:56:06.142 -0400,11875.22358604167,0.8831787109375,0.316986083984375,0.028045654296875,1,0.94
2020-05-16 12:56:06.212 -0400,11875.29342591667,2.013717651367188,1.025741577148438,-0.691741943359375,1,0.94
2020-05-16 12:56:06.282 -0400,11875.36326391667,1.5120849609375,0.52081298828125,-0.2160491943359375,1,0.94
2020-05-16 12:56:06.352 -0400,11875.43310191667,0.987884521484375,0.156280517578125,-0.2642822265625,1,0.94
2020-05-16 12:56:06.422 -0400,11875.50294191667,0.7361297607421875,0.615997314453125,-0.3287200927734375,1,0.94
2020-05-16 12:56:06.492 -0400,11875.57278091667,0.705322265625,0.7392425537109375,-0.474334716796875,1,0.94
2020-05-16 12:56:06.562 -0400,11875.64261891667,1.198745727539062,0.5404510498046875,-0.7251739501953125,1,0.94
2020-05-16 12:56:06.632 -0400,11875.71245291667,1.304046630859375,0.28985595703125,-0.6698150634765625,1,0.94
2020-05-16 12:56:06.701 -0400,11875.78229091667,1.089096069335938,0.16259765625,-0.475067138671875,1,0.94
2020-05-16 12:56:06.771 -0400,11875.85212991667,2.233856201171875,0.3712310791015625,0.1951751708984375,1,0.94
2020-05-16 12:56:06.841 -0400,11875.92196891667,1.867111206054688,0.797454833984375,-0.3619537353515625,1,0.94
2020-05-16 12:56:06.911 -0400,11875.99180691667,1.098373413085938,0.501983642578125,-0.09149169921875,1,0.94
2020-05-16 12:56:06.981 -0400,11876.06164291667,0.66180419921875,0.3892822265625,0.184051513671875,1,0.94
2020-05-16 12:56:07.050 -0400,11876.13147591667,0.394439697265625,0.084228515625,0.1565399169921875,1,0.94
2020-05-16 12:56:07.120 -0400,11876.20131491667,0.4757232666015625,0.08795166015625,0.0856781005859375,1,0.94
2020-05-16 12:56:07.190 -0400,11876.27115391667,0.85455322265625,0.200775146484375,0.0712127685546875,1,0.94
2020-05-16 12:56:07.260 -0400,11876.340990125,0.892974853515625,0.2464599609375,-0.0071563720703125,1,0.94
2020-05-16 12:56:07.330 -0400,11876.410824125,1.320587158203125,0.84625244140625,-0.3918914794921875,1,0.94
2020-05-16 12:56:07.400 -0400,11876.480662125,1.95159912109375,0.7834930419921875,-0.47607421875,1,0.94
2020-05-16 12:56:07.469 -0400,11876.550499125,1.136032104492188,0.1623382568359375,-0.346405029296875,1,0.94
2020-05-16 12:56:07.539 -0400,11876.620332125,0.6721038818359375,0.1038055419921875,-0.4191436767578125,1,0.94
2020-05-16 12:56:07.609 -0400,11876.690165125,0.423187255859375,0.6153717041015625,-0.1992950439453125,1,0.94
2020-05-16 12:56:07.679 -0400,11876.759993125,0.6986083984375,0.7225189208984375,-0.284027099609375,1,0.94
2020-05-16 12:56:07.749 -0400,11876.829827125,1.110137939453125,0.711883544921875,-0.4080047607421875,1,0.94
2020-05-16 12:56:07.819 -0400,11876.899661125,1.653762817382812,0.8013458251953125,-0.678955078125,1,0.94
2020-05-16 12:56:07.888 -0400,11876.969494125,1.746566772460938,0.2912139892578125,-0.279632568359375,1,0.94
2020-05-16 12:56:07.958 -0400,11877.039325125,1.54498291015625,0.29010009765625,-0.1654510498046875,1,0.94
2020-05-16 12:56:08.028 -0400,11877.109161125,0.7171630859375,0.398590087890625,-0.2100982666015625,1,0.94
2020-05-16 12:56:08.098 -0400,11877.178998125,0.3325653076171875,0.252899169921875,-0.0034332275390625,1,0.94
2020-05-16 12:56:08.168 -0400,11877.248837125,0.2528228759765625,0.2156524658203125,0.090911865234375,1,0.94
2020-05-16 12:56:08.239 -0400,11877.3186785,0.98480224609375,0.368743896484375,-0.0437774658203125,1,0.94
2020-05-16 12:56:08.313 -0400,11877.3885215,1.191864013671875,0.304412841796875,-0.011474609375,1,0.94
2020-05-16 12:56:08.377 -0400,11877.4583585,1.403778076171875,0.2506866455078125,-0.1115875244140625,1,0.94
2020-05-16 12:56:08.447 -0400,11877.5281955,1.649459838867188,0.68048095703125,-0.54290771484375,1,0.94
2020-05-16 12:56:08.517 -0400,11877.5980325,1.30126953125,0.261810302734375,-0.244384765625,1,0.94
2020-05-16 12:56:08.587 -0400,11877.6678655,0.6896820068359375,0.07379150390625,-0.4077911376953125,1,0.94
2020-05-16 12:56:08.657 -0400,11877.7377025,0.3744964599609375,0.365692138671875,-0.26043701171875,1,0.94
2020-05-16 12:56:08.727 -0400,11877.8075345,0.4906005859375,0.5214691162109375,-0.2462615966796875,1,0.94
2020-05-16 12:56:08.796 -0400,11877.8773705,1.19451904296875,0.5733795166015625,-0.4444122314453125,1,0.94
2020-05-16 12:56:08.866 -0400,11877.9471975,1.30657958984375,0.4342803955078125,-0.46807861328125,1,0.94
2020-05-16 12:56:08.936 -0400,11878.0170335,1.517837524414062,0.64776611328125,-0.564361572265625,1,0.94
2020-05-16 12:56:09.006 -0400,11878.0868695,1.299392700195312,0.3208465576171875,-0.2941741943359375,1,0.94
2020-05-16 12:56:09.076 -0400,11878.1567035,1.246337890625,0.3011627197265625,-0.11090087890625,1,0.94
2020-05-16 12:56:09.145 -0400,11878.2265455,0.9181060791015625,0.3880615234375,-0.177459716796875,1,0.94
2020-05-16 12:56:09.215 -0400,11878.29639154167,0.4981231689453125,0.2665863037109375,-0.0254974365234375,1,0.94
2020-05-16 12:56:09.285 -0400,11878.36623554167,0.418670654296875,0.3007659912109375,0.0275726318359375,1,0.94
2020-05-16 12:56:09.363 -0400,11878.43607554167,0.736297607421875,0.2428131103515625,0.0955657958984375,1,0.94
2020-05-16 12:56:09.425 -0400,11878.50591454167,1.41241455078125,0.4305877685546875,0.002899169921875,1,0.94
2020-05-16 12:56:09.495 -0400,11878.57575054167,1.3134765625,0.1863861083984375,-0.04888916015625,1,0.94
2020-05-16 12:56:09.564 -0400,11878.64558854167,1.467483520507812,0.676513671875,-0.7005462646484375,1,0.94
2020-05-16 12:56:09.634 -0400,11878.71542954167,1.20147705078125,0.10650634765625,-0.23931884765625,1,0.94
2020-05-16 12:56:09.704 -0400,11878.78526754167,0.7165069580078125,-0.0128936767578125,-0.43017578125,1,0.94
2020-05-16 12:56:09.774 -0400,11878.85510654167,0.3791656494140625,0.4204559326171875,-0.3292083740234375,1,0.94
2020-05-16 12:56:09.844 -0400,11878.92494554167,0.4113922119140625,0.3622283935546875,-0.119384765625,1,0.94
2020-05-16 12:56:09.914 -0400,11878.99478054167,0.836944580078125,0.3425140380859375,-0.1265106201171875,1,0.94
2020-05-16 12:56:09.983 -0400,11879.06461354167,1.184341430664062,0.496673583984375,-0.284881591796875,1,0.94
2020-05-16 12:56:10.054 -0400,11879.13444754167,1.627243041992188,0.512664794921875,-0.327239990234375,1,0.94
2020-05-16 12:56:10.123 -0400,11879.20428154167,1.293182373046875,0.5329437255859375,-0.451873779296875,1,0.94
2020-05-16 12:56:10.193 -0400,11879.27411754167,1.368316650390625,0.2768096923828125,-0.19879150390625,1,0.94
2020-05-16 12:56:10.263 -0400,11879.34395466667,0.8650360107421875,0.227996826171875,-0.18817138671875,1,0.94
2020-05-16 12:56:10.333 -0400,11879.41378966667,0.402740478515625,0.300750732421875,-0.182464599609375,1,0.94
2020-05-16 12:56:10.403 -0400,11879.48362366667,0.3812103271484375,0.323394775390625,-0.1288299560546875,1,0.94
2020-05-16 12:56:10.472 -0400,11879.55345666667,1.246292114257812,0.2349853515625,0.034912109375,1,0.94
2020-05-16 12:56:10.542 -0400,11879.62329066667,1.41168212890625,0.3112335205078125,-0.0167388916015625,1,0.94
2020-05-16 12:56:10.612 -0400,11879.69312966667,1.362106323242188,0.390350341796875,-0.1238555908203125,1,0.94
2020-05-16 12:56:10.682 -0400,11879.76296966667,1.301681518554688,0.6198272705078125,-0.466094970703125,1,0.94
2020-05-16 12:56:10.752 -0400,11879.83280566667,1.1405029296875,0.2408447265625,-0.1613616943359375,1,0.94
2020-05-16 12:56:10.822 -0400,11879.90264366667,0.5448760986328125,0.0009918212890625,-0.31341552734375,1,0.94
2020-05-16 12:56:10.892 -0400,11879.97248066667,0.1918792724609375,0.223358154296875,-0.3058013916015625,1,0.94
2020-05-16 12:56:10.961 -0400,11880.04231566667,0.2379302978515625,0.33599853515625,-0.149993896484375,1,0.94
2020-05-16 12:56:11.031 -0400,11880.11214966667,0.9507293701171875,0.4623565673828125,-0.3524169921875,1,0.94
2020-05-16 12:56:11.101 -0400,11880.18198266667,1.340133666992188,0.4882965087890625,-0.41107177734375,1,0.94
2020-05-16 12:56:11.171 -0400,11880.25182166667,1.679092407226562,0.4660797119140625,-0.5445709228515625,1,0.94
2020-05-16 12:56:11.240 -0400,11880.321659625,1.562088012695312,0.3873748779296875,-0.324951171875,1,0.94
2020-05-16 12:56:11.314 -0400,11880.391500625,1.439590454101562,0.18682861328125,-0.1026458740234375,1,0.94
2020-05-16 12:56:11.380 -0400,11880.461336625,0.6835479736328125,0.3781280517578125,-0.2790985107421875,1,0.94
2020-05-16 12:56:11.450 -0400,11880.531173625,0.3472900390625,0.3419342041015625,-0.24737548828125,1,0.94
2020-05-16 12:56:11.520 -0400,11880.601008625,0.23333740234375,0.1670989990234375,-0.059234619140625,1,0.94
2020-05-16 12:56:11.590 -0400,11880.670844625,0.649688720703125,0.0732269287109375,-0.0221099853515625,1,0.94
2020-05-16 12:56:11.660 -0400,11880.740681625,1.0836181640625,0.320098876953125,-0.034149169921875,1,0.94
2020-05-16 12:56:11.729 -0400,11880.810522625,1.479522705078125,0.389862060546875,-0.000946044921875,1,0.94
2020-05-16 12:56:11.799 -0400,11880.880359625,1.67431640625,0.761199951171875,-0.633270263671875,1,0.94
2020-05-16 12:56:11.869 -0400,11880.950196625,1.295394897460938,0.3451080322265625,-0.2123870849609375,1,0.94
2020-05-16 12:56:11.939 -0400,11881.020032625,0.7054595947265625,-0.0175018310546875,-0.3658447265625,1,0.94
2020-05-16 12:56:12.009 -0400,11881.089872625,0.364013671875,0.2560272216796875,-0.3743743896484375,1,0.94
2020-05-16 12:56:12.079 -0400,11881.159705625,0.382659912109375,0.4737701416015625,-0.351593017578125,1,0.94
2020-05-16 12:56:12.148 -0400,11881.229543625,0.8540802001953125,0.5135650634765625,-0.4856414794921875,1,0.94
2020-05-16 12:56:12.218 -0400,11881.29938325,1.428665161132812,0.3583221435546875,-0.4774017333984375,1,0.94
2020-05-16 12:56:12.288 -0400,11881.36922025,1.6171875,0.3775634765625,-0.3886566162109375,1,0.94
2020-05-16 12:56:12.358 -0400,11881.43905925,1.441940307617188,0.437103271484375,-0.3200836181640625,1,0.94
2020-05-16 12:56:12.428 -0400,11881.50889925,1.42022705078125,0.3042449951171875,-0.1248016357421875,1,0.94
2020-05-16 12:56:12.498 -0400,11881.57874225,0.685943603515625,0.3363037109375,-0.1493682861328125,1,0.94
2020-05-16 12:56:12.567 -0400,11881.64858325,0.2200927734375,0.3296356201171875,-0.181671142578125,1,0.94
2020-05-16 12:56:12.637 -0400,11881.71842425,0.3907928466796875,0.2353973388671875,-0.0409698486328125,1,0.94
2020-05-16 12:56:12.707 -0400,11881.78826525,0.977691650390625,0.1063079833984375,0.031097412109375,1,0.94
2020-05-16 12:56:12.777 -0400,11881.85810625,1.28997802734375,0.3155059814453125,-0.00244140625,1,0.94
2020-05-16 12:56:12.847 -0400,11881.92794525,1.498458862304688,0.4902191162109375,-0.111297607421875,1,0.94
2020-05-16 12:56:12.917 -0400,11881.99778325,1.787139892578125,0.8656158447265625,-0.726715087890625,1,0.94
2020-05-16 12:56:12.987 -0400,11882.06762125,1.187240600585938,0.0350799560546875,0.0755462646484375,1,0.94
2020-05-16 12:56:13.056 -0400,11882.13745825,0.7523040771484375,0.0095367431640625,-0.359222412109375,1,0.94
2020-05-16 12:56:13.126 -0400,11882.20729225,0.298736572265625,0.5110321044921875,-0.343505859375,1,0.94
2020-05-16 12:56:13.196 -0400,11882.27712725,0.203094482421875,0.5110015869140625,-0.25445556640625,1,0.94
2020-05-16 12:56:13.266 -0400,11882.34696379167,0.7319793701171875,0.4632110595703125,-0.4449615478515625,1,0.94
2020-05-16 12:56:13.336 -0400,11882.41679879167,1.605392456054688,0.37939453125,-0.260101318359375,1,0.94
2020-05-16 12:56:13.406 -0400,11882.48662979167,1.850997924804688,0.3731536865234375,-0.389312744140625,1,0.94
2020-05-16 12:56:13.475 -0400,11882.55646479167,1.530288696289062,0.605316162109375,-0.402801513671875,1,0.94
2020-05-16 12:56:13.545 -0400,11882.62629979167,1.487091064453125,0.2491607666015625,-0.0474853515625,1,0.94
2020-05-16 12:56:13.615 -0400,11882.69613479167,0.7459259033203125,0.2444305419921875,-0.0693511962890625,1,0.94
2020-05-16 12:56:13.685 -0400,11882.76597179167,0.333984375,0.2481536865234375,0.0063323974609375,1,0.94
2020-05-16 12:56:13.755 -0400,11882.83580979167,0.2457427978515625,0.25640869140625,0.0795745849609375,1,0.94
2020-05-16 12:56:13.825 -0400,11882.90564679167,1.027297973632812,0.325897216796875,0.03955078125,1,0.94
2020-05-16 12:56:13.894 -0400,11882.97548679167,1.431777954101562,0.353363037109375,-0.0001983642578125,1,0.94
2020-05-16 12:56:13.964 -0400,11883.04532479167,1.808151245117188,0.35284423828125,-0.209930419921875,1,0.94
2020-05-16 12:56:14.034 -0400,11883.11516179167,1.447662353515625,0.572174072265625,-0.4318695068359375,1,0.94
2020-05-16 12:56:14.104 -0400,11883.18499979167,1.202880859375,0.0380401611328125,-0.225341796875,1,0.94
2020-05-16 12:56:14.174 -0400,11883.25483579167,0.699005126953125,0.172149658203125,-0.2328338623046875,1,0.94
2020-05-16 12:56:14.244 -0400,11883.324671375,0.3461151123046875,0.379669189453125,-0.3419189453125,1,0.94
2020-05-16 12:56:14.314 -0400,11883.394507375,0.29150390625,0.3490753173828125,-0.24493408203125,1,0.94
2020-05-16 12:56:14.383 -0400,11883.464343375,0.962615966796875,0.3965301513671875,-0.3650970458984375,1,0.94
2020-05-16 12:56:14.453 -0400,11883.534180375,1.491989135742188,0.350799560546875,-0.307281494140625,1,0.94
2020-05-16 12:56:14.523 -0400,11883.604016375,1.63238525390625,0.448638916015625,-0.4569854736328125,1,0.94
2020-05-16 12:56:14.593 -0400,11883.673854375,1.09564208984375,0.45245361328125,-0.3744964599609375,1,0.94
2020-05-16 12:56:14.663 -0400,11883.743692375,1.52874755859375,0.233306884765625,-0.1591796875,1,0.94
2020-05-16 12:56:14.732 -0400,11883.813526375,1.127059936523438,0.1837615966796875,-0.0313720703125,1,0.94
2020-05-16 12:56:14.802 -0400,11883.883364375,0.49005126953125,0.3514404296875,-0.0717010498046875,1,0.94
2020-05-16 12:56:14.872 -0400,11883.953208375,0.257110595703125,0.2911224365234375,0,1,0.94
2020-05-16 12:56:14.942 -0400,11884.023049375,0.3326416015625,0.2406005859375,0.030517578125,1,0.94
2020-05-16 12:56:15.012 -0400,11884.092888375,1.054092407226562,0.3243408203125,-0.08416748046875,1,0.94
2020-05-16 12:56:15.082 -0400,11884.162723375,1.434524536132812,0.2550048828125,0.0279693603515625,1,0.94
2020-05-16 12:56:15.152 -0400,11884.232563375,1.401779174804688,0.3862152099609375,-0.1264801025390625,1,0.94
2020-05-16 12:56:15.221 -0400,11884.30240375,1.196380615234375,0.707733154296875,-0.5681304931640625,1,0.94
2020-05-16 12:56:15.291 -0400,11884.37224375,0.9391632080078125,0.2632293701171875,-0.21539306640625,1,0.94
2020-05-16 12:56:15.361 -0400,11884.44208275,0.651947021484375,0.0530242919921875,-0.3275146484375,1,0.94
2020-05-16 12:56:15.431 -0400,11884.51192475,0.30419921875,0.3137664794921875,-0.3194732666015625,1,0.94
2020-05-16 12:56:15.501 -0400,11884.58176675,0.38055419921875,0.3371429443359375,-0.2331085205078125,1,0.94
2020-05-16 12:56:15.571 -0400,11884.65160775,1.160858154296875,0.41802978515625,-0.342620849609375,1,0.94
2020-05-16 12:56:15.640 -0400,11884.72144775,1.450408935546875,0.443939208984375,-0.2845611572265625,1,0.94
2020-05-16 12:56:15.710 -0400,11884.79129175,1.599014282226562,0.539703369140625,-0.4345550537109375,1,0.94
2020-05-16 12:56:15.780 -0400,11884.86113775,1.01373291015625,0.536224365234375,-0.382904052734375,1,0.94
2020-05-16 12:56:15.850 -0400,11884.93098375,1.25823974609375,0.28265380859375,-0.1120758056640625,1,0.94
2020-05-16 12:56:15.920 -0400,11885.00082775,0.851806640625,0.23114013671875,-0.040802001953125,1,0.94
2020-05-16 12:56:15.990 -0400,11885.07066975,0.4861602783203125,0.35125732421875,-0.0687408447265625,1,0.94
2020-05-16 12:56:16.059 -0400,11885.14051075,0.4621429443359375,0.3759307861328125,0.0044403076171875,1,0.94
2020-05-16 12:56:16.129 -0400,11885.21035575,1.106964111328125,0.357177734375,-0.0139617919921875,1,0.94
2020-05-16 12:56:16.199 -0400,11885.28019875,1.364089965820312,0.245880126953125,0.00445556640625,1,0.94
2020-05-16 12:56:16.269 -0400,11885.350041625,1.438491821289062,0.339019775390625,-0.092681884765625,1,0.94
2020-05-16 12:56:16.339 -0400,11885.419886625,1.043792724609375,0.4712677001953125,-0.281097412109375,1,0.94
2020-05-16 12:56:16.408 -0400,11885.489731625,0.9557647705078125,0.3601531982421875,-0.3536224365234375,1,0.94
2020-05-16 12:56:16.478 -0400,11885.559574625,0.7444610595703125,0.10125732421875,-0.337860107421875,1,0.94
2020-05-16 12:56:16.548 -0400,11885.629415625,0.435333251953125,0.15069580078125,-0.26605224609375,1,0.94
2020-05-16 12:56:16.618 -0400,11885.699254625,0.3983917236328125,0.528656005859375,-0.2643280029296875,1,0.94
2020-05-16 12:56:16.688 -0400,11885.769090625,0.848114013671875,0.562591552734375,-0.4358062744140625,1,0.94
2020-05-16 12:56:16.758 -0400,11885.838925625,1.443283081054688,0.40081787109375,-0.458526611328125,1,0.94
2020-05-16 12:56:16.828 -0400,11885.908765625,1.536361694335938,0.2176971435546875,-0.2230224609375,1,0.94
2020-05-16 12:56:16.897 -0400,11885.978604625,1.495651245117188,0.6218414306640625,-0.413421630859375,1,0.94
2020-05-16 12:56:16.967 -0400,11886.048446625,1.351898193359375,0.343841552734375,-0.1029815673828125,1,0.94
2020-05-16 12:56:17.037 -0400,11886.118290625,0.940765380859375,0.1961517333984375,-0.0103912353515625,1,0.94
2020-05-16 12:56:17.107 -0400,11886.188130625,0.3846893310546875,0.3586883544921875,-0.1951904296875,1,0.94
2020-05-16 12:56:17.177 -0400,11886.257970625,0.1956634521484375,0.2064056396484375,-0.059417724609375,1,0.94
2020-05-16 12:56:17.247 -0400,11886.32781,0.40625,0.0805816650390625,0.024932861328125,1,0.94
2020-05-16 12:56:17.317 -0400,11886.397652,1.848678588867188,0.424163818359375,-0.1911163330078125,1,0.94
2020-05-16 12:56:17.386 -0400,11886.467494,1.685623168945312,0.2750244140625,-0.2071533203125,1,0.94
2020-05-16 12:56:17.456 -0400,11886.537336,1.555404663085938,0.6031036376953125,-0.3787689208984375,1,0.94
2020-05-16 12:56:17.526 -0400,11886.607175,1.163131713867188,0.133544921875,-0.293975830078125,1,0.94
2020-05-16 12:56:17.596 -0400,11886.677012,1.04052734375,-0.1600341796875,-0.1526641845703125,1,0.94
2020-05-16 12:56:17.666 -0400,11886.746851,0.712371826171875,0.3373260498046875,-0.264251708984375,1,0.94
2020-05-16 12:56:17.736 -0400,11886.816686,0.349822998046875,0.3947906494140625,-0.1368408203125,1,0.94
2020-05-16 12:56:17.806 -0400,11886.886521,0.2768707275390625,0.421295166015625,-0.10693359375,1,0.94
2020-05-16 12:56:17.875 -0400,11886.956355,0.6417236328125,0.5464019775390625,-0.2421112060546875,1,0.94
2020-05-16 12:56:17.945 -0400,11887.026189,1.27459716796875,0.3715972900390625,-0.1522064208984375,1,0.94
2020-05-16 12:56:18.015 -0400,11887.096024,1.2733154296875,0.4482574462890625,-0.2431182861328125,1,0.94
2020-05-16 12:56:18.085 -0400,11887.165857,1.205337524414062,0.843536376953125,-0.6517333984375,1,0.94
2020-05-16 12:56:18.155 -0400,11887.23569,1.655441284179688,0.4747161865234375,-0.3094635009765625,1,0.94
2020-05-16 12:56:18.224 -0400,11887.30552629167,1.323532104492188,0.0360870361328125,-0.0399627685546875,1,0.94
2020-05-16 12:56:18.295 -0400,11887.37536329167,0.63714599609375,0.2772216796875,-0.2237396240234375,1,0.94
2020-05-16 12:56:18.364 -0400,11887.44520029167,0.489471435546875,0.3399658203125,-0.0291595458984375,1,0.94
2020-05-16 12:56:18.434 -0400,11887.51504229167,1.100616455078125,0.3870086669921875,-0.0185546875,1,0.94
2020-05-16 12:56:18.504 -0400,11887.58488229167,1.343002319335938,0.1911468505859375,0.05877685546875,1,0.94
2020-05-16 12:56:18.574 -0400,11887.65472329167,1.225631713867188,0.2660064697265625,-0.121978759765625,1,0.94
2020-05-16 12:56:18.643 -0400,11887.72456229167,0.9098358154296875,0.39752197265625,-0.1473236083984375,1,0.94
2020-05-16 12:56:18.713 -0400,11887.79439829167,1.147415161132812,0.4257965087890625,-0.3553466796875,1,0.94
2020-05-16 12:56:18.783 -0400,11887.86423629167,1.028594970703125,0.1337432861328125,-0.127899169921875,1,0.94
2020-05-16 12:56:18.853 -0400,11887.93407129167,0.79644775390625,0.353668212890625,-0.3614501953125,1,0.94
2020-05-16 12:56:18.923 -0400,11888.00390629167,0.4555206298828125,0.5153350830078125,-0.294677734375,1,0.94
2020-05-16 12:56:18.993 -0400,11888.07374529167,0.59869384765625,0.490264892578125,-0.4119110107421875,1,0.94
2020-05-16 12:56:19.063 -0400,11888.14358429167,1.015380859375,0.343902587890625,-0.5156097412109375,1,0.94
2020-05-16 12:56:19.132 -0400,11888.21342529167,1.2823486328125,0.3949432373046875,-0.445648193359375,1,0.94
2020-05-16 12:56:19.202 -0400,11888.28326229167,1.44781494140625,0.71453857421875,-0.697296142578125,1,0.94
2020-05-16 12:56:19.272 -0400,11888.35310079167,1.691482543945312,0.454833984375,-0.38238525390625,1,0.94
2020-05-16 12:56:19.342 -0400,11888.42293979167,1.491485595703125,0.210418701171875,-0.1040496826171875,1,0.94
2020-05-16 12:56:19.411 -0400,11888.49278279167,0.7639923095703125,0.4003448486328125,-0.1620330810546875,1,0.94
2020-05-16 12:56:19.481 -0400,11888.56262279167,0.5098724365234375,0.3401336669921875,0.029754638671875,1,0.94
2020-05-16 12:56:19.551 -0400,11888.63246279167,0.70037841796875,0.32073974609375,0.0069427490234375,1,0.94
2020-05-16 12:56:19.621 -0400,11888.70230179167,0.9935150146484375,0.228118896484375,0.022979736328125,1,0.94
2020-05-16 12:56:19.691 -0400,11888.77213979167,0.828887939453125,0.1260528564453125,-0.014892578125,1,0.94
2020-05-16 12:56:19.761 -0400,11888.84197679167,1.079696655273438,0.3211517333984375,-0.056427001953125,1,0.94
2020-05-16 12:56:19.831 -0400,11888.91182079167,1.20416259765625,0.649627685546875,-0.551544189453125,1,0.94
2020-05-16 12:56:19.900 -0400,11888.98166479167,1.56146240234375,0.397003173828125,-0.336334228515625,1,0.94
2020-05-16 12:56:19.970 -0400,11889.05150379167,0.9604644775390625,0.0616455078125,-0.292144775390625,1,0.94
2020-05-16 12:56:20.040 -0400,11889.12134379167,0.7622528076171875,0.491455078125,-0.2730560302734375,1,0.94
2020-05-16 12:56:20.110 -0400,11889.19118779167,0.7471160888671875,0.767974853515625,-0.352325439453125,1,0.94
2020-05-16 12:56:20.180 -0400,11889.26103279167,0.9014892578125,0.589263916015625,-0.4301300048828125,1,0.94
2020-05-16 12:56:20.268 -0400,11889.330873625,1.067977905273438,0.5113067626953125,-0.4878387451171875,1,0.94
2020-05-16 12:56:20.320 -0400,11889.400714625,1.609954833984375,0.59759521484375,-0.5195465087890625,1,0.94
2020-05-16 12:56:20.389 -0400,11889.470553625,1.58807373046875,0.3162689208984375,-0.346527099609375,1,0.94
2020-05-16 12:56:20.459 -0400,11889.540397625,1.420181274414062,0.3425750732421875,-0.1988525390625,1,0.94
2020-05-16 12:56:20.529 -0400,11889.610242625,0.803680419921875,0.3622894287109375,-0.1868438720703125,1,0.94
2020-05-16 12:56:20.599 -0400,11889.680085625,0.527862548828125,0.29669189453125,-0.0049896240234375,1,0.94
2020-05-16 12:56:20.669 -0400,11889.749927625,0.5586700439453125,0.2374725341796875,0.0240325927734375,1,0.94
2020-05-16 12:56:20.739 -0400,11889.819768625,0.8507080078125,0.2491607666015625,-0.0161285400390625,1,0.94
2020-05-16 12:56:20.808 -0400,11889.889610625,1.006118774414062,0.255401611328125,-0.0593719482421875,1,0.94
2020-05-16 12:56:20.878 -0400,11889.959450625,1.193344116210938,0.3980560302734375,-0.117828369140625,1,0.94
2020-05-16 12:56:20.948 -0400,11890.029292625,1.28363037109375,0.52923583984375,-0.489898681640625,1,0.94
2020-05-16 12:56:21.018 -0400,11890.099135625,1.400894165039062,0.4063568115234375,-0.3127288818359375,1,0.94
2020-05-16 12:56:21.088 -0400,11890.168971625,0.7933197021484375,0.1231231689453125,-0.40057373046875,1,0.94
2020-05-16 12:56:21.158 -0400,11890.238809625,0.6343841552734375,0.5589752197265625,-0.267059326171875,1,0.94
2020-05-16 12:56:21.230 -0400,11890.30865225,0.7045135498046875,0.7860870361328125,-0.28839111328125,1,0.94
2020-05-16 12:56:21.298 -0400,11890.37849525,0.9434814453125,0.910369873046875,-0.4907989501953125,1,0.94
2020-05-16 12:56:21.367 -0400,11890.44833225,1.318222045898438,0.6344451904296875,-0.4399566650390625,1,0.94
2020-05-16 12:56:21.437 -0400,11890.51816825,1.432876586914062,0.3873291015625,-0.4885406494140625,1,0.94
2020-05-16 12:56:21.507 -0400,11890.58800525,1.743255615234375,0.3971405029296875,-0.3177337646484375,1,0.94
2020-05-16 12:56:21.577 -0400,11890.65784425,1.268875122070312,0.3869171142578125,-0.3062744140625,1,0.94
2020-05-16 12:56:21.647 -0400,11890.72767925,0.664947509765625,0.287628173828125,-0.1162567138671875,1,0.94
2020-05-16 12:56:21.716 -0400,11890.79751025,0.4381103515625,0.2664642333984375,-0.009552001953125,1,0.94
2020-05-16 12:56:21.786 -0400,11890.86734425,0.46197509765625,0.1917572021484375,0.0290374755859375,1,0.94
2020-05-16 12:56:21.856 -0400,11890.93717825,0.7932891845703125,0.239532470703125,0.0153961181640625,1,0.94
2020-05-16 12:56:21.926 -0400,11891.00701225,0.9460601806640625,0.2862091064453125,-0.0509185791015625,1,0.94
2020-05-16 12:56:21.996 -0400,11891.07684325,1.196426391601562,0.4325408935546875,-0.283233642578125,1,0.94
2020-05-16 12:56:22.065 -0400,11891.14667725,1.74774169921875,0.4113006591796875,-0.3816375732421875,1,0.94
2020-05-16 12:56:22.135 -0400,11891.21650925,1.183563232421875,0.2215118408203125,-0.256195068359375,1,0.94
2020-05-16 12:56:22.205 -0400,11891.28634225,0.8017578125,0.4795989990234375,-0.259246826171875,1,0.94
2020-05-16 12:56:22.275 -0400,11891.356179375,0.7103271484375,0.6943817138671875,-0.3200531005859375,1,0.94
2020-05-16 12:56:22.345 -0400,11891.426012375,0.8971099853515625,0.6909027099609375,-0.613922119140625,1,0.94
2020-05-16 12:56:22.415 -0400,11891.495846375,1.082122802734375,0.4964599609375,-0.625823974609375,1,0.94
2020-05-16 12:56:22.485 -0400,11891.565680375,1.473297119140625,0.4192352294921875,-0.4102325439453125,1,0.94
2020-05-16 12:56:22.554 -0400,11891.635513375,1.535110473632812,0.5647125244140625,-0.5540924072265625,1,0.94
2020-05-16 12:56:22.624 -0400,11891.705352375,1.843002319335938,0.388671875,-0.2577362060546875,1,0.94
2020-05-16 12:56:22.694 -0400,11891.775185375,1.157974243164062,0.3145599365234375,-0.1417388916015625,1,0.94
2020-05-16 12:56:22.764 -0400,11891.845017375,0.6172943115234375,0.3115081787109375,-0.0323333740234375,1,0.94
2020-05-16 12:56:22.834 -0400,11891.914850375,0.483428955078125,0.2930450439453125,0.0520172119140625,1,0.94
2020-05-16 12:56:22.904 -0400,11891.984681375,0.6763763427734375,0.25225830078125,0.043853759765625,1,0.94
2020-05-16 12:56:22.973 -0400,11892.054513375,0.8672637939453125,0.1858367919921875,0.0295867919921875,1,0.94
2020-05-16 12:56:23.043 -0400,11892.124346375,1.194366455078125,0.313690185546875,0.000244140625,1,0.94
2020-05-16 12:56:23.113 -0400,11892.194182375,1.413040161132812,0.6348724365234375,-0.4476776123046875,1,0.94
2020-05-16 12:56:23.183 -0400,11892.264014375,1.711685180664062,0.4593048095703125,-0.176116943359375,1,0.94
2020-05-16 12:56:23.253 -0400,11892.33385204167,0.9350433349609375,0.2665557861328125,-0.396575927734375,1,0.94
2020-05-16 12:56:23.322 -0400,11892.40369304167,0.722900390625,0.5287322998046875,-0.262420654296875,1,0.94
2020-05-16 12:56:23.393 -0400,11892.47353704167,0.8050537109375,0.7050018310546875,-0.363128662109375,1,0.94
2020-05-16 12:56:23.462 -0400,11892.54337804167,0.9803009033203125,0.5746307373046875,-0.5602569580078125,1,0.94
2020-05-16 12:56:23.532 -0400,11892.61321704167,1.3037109375,0.4482269287109375,-0.5115814208984375,1,0.94
2020-05-16 12:56:23.603 -0400,11892.68305004167,1.49566650390625,0.4732513427734375,-0.553131103515625,1,0.94
2020-05-16 12:56:23.672 -0400,11892.75288404167,1.59759521484375,0.32879638671875,-0.3087615966796875,1,0.94
2020-05-16 12:56:23.741 -0400,11892.82272104167,1.52099609375,0.2329864501953125,-0.254608154296875,1,0.94
2020-05-16 12:56:23.811 -0400,11892.89255404167,0.7458343505859375,0.3069915771484375,-0.11785888671875,1,0.94
2020-05-16 12:56:23.881 -0400,11892.96238704167,0.45098876953125,0.3317108154296875,0.032684326171875,1,0.94
2020-05-16 12:56:23.951 -0400,11893.03222304167,0.46795654296875,0.2244873046875,0.0747528076171875,1,0.94
2020-05-16 12:56:24.021 -0400,11893.10206004167,0.8592987060546875,0.227691650390625,0.074554443359375,1,0.94
2020-05-16 12:56:24.091 -0400,11893.17189704167,0.98455810546875,0.26708984375,0.037109375,1,0.94
2020-05-16 12:56:24.160 -0400,11893.24173404167,1.301162719726562,0.4755401611328125,-0.05767822265625,1,0.94
2020-05-16 12:56:24.230 -0400,11893.31157225,1.314300537109375,0.6301727294921875,-0.6368865966796875,1,0.94
2020-05-16 12:56:24.300 -0400,11893.38141225,1.199676513671875,0.3294219970703125,-0.220458984375,1,0.94
2020-05-16 12:56:24.370 -0400,11893.45125125,0.720458984375,0.1893157958984375,-0.35699462890625,1,0.94
2020-05-16 12:56:24.440 -0400,11893.52108925,0.7402801513671875,0.6401519775390625,-0.4342498779296875,1,0.94
2020-05-16 12:56:24.510 -0400,11893.59092525,1.02099609375,0.7132568359375,-0.766845703125,1,0.94
2020-05-16 12:56:24.580 -0400,11893.66076325,1.118896484375,0.270599365234375,-0.706939697265625,1,0.94
2020-05-16 12:56:24.649 -0400,11893.73060525,1.739715576171875,0.28887939453125,-0.5282745361328125,1,0.94
2020-05-16 12:56:24.720 -0400,11893.80044325,1.522598266601562,0.464385986328125,-0.509124755859375,1,0.94
2020-05-16 12:56:24.789 -0400,11893.87028025,1.570037841796875,0.4204864501953125,-0.2432403564453125,1,0.94
2020-05-16 12:56:24.859 -0400,11893.94011925,0.84326171875,0.3755950927734375,-0.063507080078125,1,0.94
2020-05-16 12:56:24.929 -0400,11894.00995525,0.5305328369140625,0.3268890380859375,0.0811920166015625,1,0.94
2020-05-16 12:56:24.999 -0400,11894.07978325,0.579010009765625,0.287933349609375,0.0620574951171875,1,0.94
2020-05-16 12:56:25.068 -0400,11894.14961325,1.068115234375,0.356475830078125,0.064605712890625,1,0.94
2020-05-16 12:56:25.138 -0400,11894.21944525,1.023681640625,0.2337188720703125,0.005157470703125,1,0.94
2020-05-16 12:56:25.208 -0400,11894.28927825,1.09161376953125,0.3616485595703125,-0.3378448486328125,1,0.94
2020-05-16 12:56:25.278 -0400,11894.359109,1.10968017578125,0.3741912841796875,-0.6488800048828125,1,0.94
2020-05-16 12:56:25.348 -0400,11894.428938,1.209396362304688,0.011016845703125,-0.44500732421875,1,0.94
2020-05-16 12:56:25.418 -0400,11894.498768,0.87823486328125,0.1098175048828125,-0.329742431640625,1,0.94
2020-05-16 12:56:25.488 -0400,11894.568598,0.7661285400390625,0.71038818359375,-0.2706756591796875,1,0.94
2020-05-16 12:56:25.557 -0400,11894.63843,0.92633056640625,0.944488525390625,-0.4720611572265625,1,0.94
2020-05-16 12:56:25.627 -0400,11894.70826,1.00640869140625,0.5831756591796875,-0.56024169921875,1,0.94
2020-05-16 12:56:25.697 -0400,11894.77809,1.427337646484375,0.4263763427734375,-0.4340057373046875,1,0.94
2020-05-16 12:56:25.767 -0400,11894.847922,1.432205200195312,0.4964447021484375,-0.5006103515625,1,0.94
2020-05-16 12:56:25.837 -0400,11894.917757,1.662796020507812,0.28106689453125,-0.2714996337890625,1,0.94
2020-05-16 12:56:25.906 -0400,11894.98759,1.105010986328125,0.271484375,-0.2041778564453125,1,0.94
2020-05-16 12:56:25.976 -0400,11895.057423,0.56634521484375,0.3224639892578125,-0.0760498046875,1,0.94
2020-05-16 12:56:26.046 -0400,11895.127255,0.4795989990234375,0.343841552734375,0.0325164794921875,1,0.94
2020-05-16 12:56:26.116 -0400,11895.19709,0.861602783203125,0.3051605224609375,-0.007965087890625,1,0.94
2020-05-16 12:56:26.186 -0400,11895.26692,1.046340942382812,0.17669677734375,0.0450286865234375,1,0.94
2020-05-16 12:56:26.257 -0400,11895.336750875,1.117050170898438,0.335113525390625,-0.191680908203125,1,0.94
2020-05-16 12:56:26.326 -0400,11895.406580875,1.2200927734375,0.450469970703125,-0.305328369140625,1,0.94
2020-05-16 12:56:26.395 -0400,11895.476410875,1.3114013671875,0.431060791015625,-0.5587921142578125,1,0.94
2020-05-16 12:56:26.465 -0400,11895.546243875,1.083969116210938,0.1886444091796875,-0.1922607421875,1,0.94
2020-05-16 12:56:26.535 -0400,11895.616073875,0.7798309326171875,0.4333343505859375,-0.4365997314453125,1,0.94
2020-05-16 12:56:26.605 -0400,11895.685909875,0.5319366455078125,0.5220184326171875,-0.3963470458984375,1,0.94
2020-05-16 12:56:26.675 -0400,11895.755738875,0.8069610595703125,0.4715118408203125,-0.56591796875,1,0.94
2020-05-16 12:56:26.744 -0400,11895.825569875,1.158538818359375,0.307403564453125,-0.5514373779296875,1,0.94
2020-05-16 12:56:26.814 -0400,11895.895403875,1.990371704101562,0.1403656005859375,-0.291107177734375,1,0.94
2020-05-16 12:56:26.884 -0400,11895.965237875,1.262237548828125,0.4060516357421875,-0.301513671875,1,0.94
2020-05-16 12:56:26.954 -0400,11896.035070875,1.350631713867188,0.5539398193359375,-0.2293701171875,1,0.94
2020-05-16 12:56:27.024 -0400,11896.104903875,1.035354614257812,0.3983917236328125,0.0301513671875,1,0.94
2020-05-16 12:56:27.094 -0400,11896.174743875,0.584930419921875,0.1993865966796875,0.07452392578125,1,0.94
2020-05-16 12:56:27.163 -0400,11896.244577875,0.4383697509765625,0.2840728759765625,0.072296142578125,1,0.94
2020-05-16 12:56:27.233 -0400,11896.3144105,0.6244659423828125,0.27001953125,0.0793914794921875,1,0.94
2020-05-16 12:56:27.303 -0400,11896.3842435,0.9686126708984375,0.27978515625,0.03375244140625,1,0.94
2020-05-16 12:56:27.374 -0400,11896.4540735,1.367523193359375,0.3559112548828125,-0.0325775146484375,1,0.94
2020-05-16 12:56:27.443 -0400,11896.5239055,1.45819091796875,0.6344146728515625,-0.61639404296875,1,0.94
2020-05-16 12:56:27.512 -0400,11896.5937365,1.226760864257812,0.1536712646484375,-0.4061279296875,1,0.94
2020-05-16 12:56:27.583 -0400,11896.6635645,1.075424194335938,0.00732421875,-0.4471588134765625,1,0.94
2020-05-16 12:56:27.652 -0400,11896.7333965,0.67633056640625,0.41827392578125,-0.536895751953125,1,0.94
2020-05-16 12:56:27.722 -0400,11896.8032295,0.4934539794921875,0.3753509521484375,-0.277984619140625,1,0.94
2020-05-16 12:56:27.792 -0400,11896.8730665,0.6540069580078125,0.720306396484375,-0.2748260498046875,1,0.94
2020-05-16 12:56:27.862 -0400,11896.9429015,0.834442138671875,1.004837036132812,-0.320648193359375,1,0.94
2020-05-16 12:56:27.932 -0400,11897.0127405,1.220718383789062,1.421478271484375,-0.569061279296875,1,0.94
2020-05-16 12:56:28.001 -0400,11897.0825805,0.86358642578125,1.42822265625,-0.61846923828125,1,0.94
2020-05-16 12:56:28.071 -0400,11897.1524205,0.9078826904296875,0.8253936767578125,-0.55804443359375,1,0.94
2020-05-16 12:56:28.141 -0400,11897.2222615,0.792877197265625,0.6190643310546875,-0.6112060546875,1,0.94
2020-05-16 12:56:28.211 -0400,11897.2921035,0.51263427734375,0.3854217529296875,-0.535552978515625,1,0.94
2020-05-16 12:56:28.281 -0400,11897.36194625,0.3272552490234375,0.23223876953125,-0.5867462158203125,1,0.94
2020-05-16 12:56:28.351 -0400,11897.43178425,0.1755218505859375,0.0431671142578125,-0.60479736328125,1,0.94
2020-05-16 12:56:28.420 -0400,11897.50162025,-0.0043487548828125,-0.224273681640625,-0.601531982421875,1,0.94
2020-05-16 12:56:28.493 -0400,11897.57145825,-0.207122802734375,-0.15240478515625,-0.7629241943359375,1,0.94
2020-05-16 12:56:28.570 -0400,11897.65127325,-0.1126708984375,-0.2068939208984375,-1.118515014648438,1,0.94
2020-05-16 12:56:28.690 -0400,11897.77098925,0.0726776123046875,-0.11688232421875,-1.266738891601562,1,0.94
2020-05-16 12:56:28.810 -0400,11897.89071625,0.0764312744140625,-0.089111328125,-0.9204864501953125,1,0.94
2020-05-16 12:56:28.929 -0400,11898.01044025,-0.0671539306640625,-0.1461181640625,-0.7672271728515625,1,0.94
2020-05-16 12:56:29.049 -0400,11898.13016425,-0.1219635009765625,-0.1855926513671875,-0.8809051513671875,1,0.94
