loggingTime(txt),accelerometerTimestamp_sinceReboot(s),accelerometerAccelerationX(G),accelerometerAccelerationY(G),accelerometerAccelerationZ(G),batteryState,batteryLevel
2020-05-16 12:56:35.042 -0400,11904.0963205,-0.058990478515625,-0.146087646484375,-0.57861328125,1,0.94
2020-05-16 12:56:35.135 -0400,11904.2160455,-0.08984375,-0.2287750244140625,-0.659881591796875,1,0.94
2020-05-16 12:56:35.255 -0400,11904.3357725,0.3528289794921875,-0.206024169921875,-0.7384185791015625,1,0.94
2020-05-16 12:56:35.374 -0400,11904.4554945,0.9728240966796875,0.185882568359375,-0.74652099609375,1,0.94
2020-05-16 12:56:35.494 -0400,11904.5752105,1.2005615234375,0.1008148193359375,-0.2567596435546875,1,0.94
2020-05-16 12:56:35.614 -0400,11904.6949355,1.051712036132812,0.833831787109375,-0.0068511962890625,1,0.94
2020-05-16 12:56:35.734 -0400,11904.8146675,1.156463623046875,1.009963989257812,-0.2399444580078125,1,0.94
2020-05-16 12:56:35.824 -0400,11904.9044635,1.097015380859375,0.8513946533203125,-0.286224365234375,1,0.94
2020-05-16 12:56:35.895 -0400,11904.9743085,1.319793701171875,0.88177490234375,-0.248199462890625,1,0.94
2020-05-16 12:56:35.963 -0400,11905.0441525,1.380767822265625,0.4058990478515625,-0.2405853271484375,1,0.94
2020-05-16 12:56:36.033 -0400,11905.1139995,0.9046783447265625,0.2501678466796875,-0.2132415771484375,1,0.94
2020-05-16 12:56:36.103 -0400,11905.1838425,0.8224029541015625,0.2985076904296875,-0.129302978515625,1,0.94
2020-05-16 12:56:36.173 -0400,11905.2536865,0.8393402099609375,0.2052459716796875,-0.1171722412109375,1,0.94
2020-05-16 12:56:36.245 -0400,11905.32353525,1.007080078125,0.1764984130859375,0.0359649658203125,1,0.94
2020-05-16 12:56:36.312 -0400,11905.39337625,0.8441314697265625,0.249908447265625,-0.02056884765625,1,0.94
2020-05-16 12:56:36.382 -0400,11905.46321425,1.00048828125,0.49127197265625,-0.0524444580078125,1,0.94
2020-05-16 12:56:36.452 -0400,11905.53305025,1.51763916015625,0.677154541015625,-0.3957061767578125,1,0.94
2020-05-16 12:56:36.522 -0400,11905.60288625,0.837432861328125,0.5989990234375,-0.3149871826171875,1,0.94
2020-05-16 12:56:36.592 -0400,11905.67272425,0.6082763671875,-0.009307861328125,-0.12109375,1,0.94
2020-05-16 12:56:36.661 -0400,11905.74256825,0.862518310546875,0.3187713623046875,-0.2646942138671875,1,0.94
2020-05-16 12:56:36.731 -0400,11905.81241325,0.8322601318359375,0.9409942626953125,-0.5445404052734375,1,0.94
2020-05-16 12:56:36.801 -0400,11905.88225925,1.0853271484375,0.7520751953125,-0.5897216796875,1,0.94
2020-05-16 12:56:36.871 -0400,11905.95210225,1.524063110351562,0.313720703125,-0.6117706298828125,1,0.94
2020-05-16 12:56:36.941 -0400,11906.02194625,1.6455078125,0.207977294921875,-0.248809814453125,1,0.94
2020-05-16 12:56:37.011 -0400,11906.09178825,1.073440551757812,-0.0990447998046875,-0.19403076171875,1,0.94
2020-05-16 12:56:37.080 -0400,11906.16163025,0.5351104736328125,0.207366943359375,-0.13037109375,1,0.94
2020-05-16 12:56:37.150 -0400,11906.23147025,0.4735107421875,0.4907989501953125,0.01690673828125,1,0.94
2020-05-16 12:56:37.221 -0400,11906.30131025,0.5232696533203125,0.266204833984375,0.0487823486328125,1,0.94
2020-05-16 12:56:37.290 -0400,11906.371149875,0.856475830078125,0.1572418212890625,0.09637451171875,1,0.94
2020-05-16 12:56:37.360 -0400,11906.440986875,1.072906494140625,0.3135986328125,0.006500244140625,1,0.94
2020-05-16 12:56:37.430 -0400,11906.510821875,1.4395751953125,0.7773895263671875,-0.40423583984375,1,0.94
2020-05-16 12:56:37.499 -0400,11906.580655875,1.611541748046875,0.3991851806640625,-0.36260986328125,1,0.94
2020-05-16 12:56:37.569 -0400,11906.650490875,0.700592041015625,-0.02001953125,-0.4560394287109375,1,0.94
2020-05-16 12:56:37.639 -0400,11906.720329875,0.489349365234375,0.4972381591796875,-0.3664093017578125,1,0.94
2020-05-16 12:56:37.709 -0400,11906.790166875,0.4025421142578125,0.601959228515625,-0.24542236328125,1,0.94
2020-05-16 12:56:37.779 -0400,11906.860007875,1.048583984375,0.7786102294921875,-0.5186767578125,1,0.94
2020-05-16 12:56:37.849 -0400,11906.929844875,1.160247802734375,0.7285003662109375,-0.42803955078125,1,0.94
2020-05-16 12:56:37.919 -0400,11906.999676875,1.317367553710938,0.5555419921875,-0.531890869140625,1,0.94
2020-05-16 12:56:37.988 -0400,11907.069511875,1.89459228515625,0.6568450927734375,-0.3980560302734375,1,0.94
2020-05-16 12:56:38.058 -0400,11907.139349875,1.319580078125,0.28912353515625,-0.243896484375,1,0.94
2020-05-16 12:56:38.128 -0400,11907.209183875,0.7294769287109375,0.286346435546875,-0.2410736083984375,1,0.94
2020-05-16 12:56:38.198 -0400,11907.279018875,0.742919921875,0.3866729736328125,-0.1769561767578125,1,0.94
2020-05-16 12:56:38.268 -0400,11907.34885491667,0.9739837646484375,0.1781768798828125,0.0140533447265625,1,0.94
2020-05-16 12:56:38.338 -0400,11907.41869391667,0.771087646484375,0.1171112060546875,0.0219268798828125,1,0.94
2020-05-16 12:56:38.407 -0400,11907.48852791667,0.6658477783203125,0.46044921875,-0.2680816650390625,1,0.94
2020-05-16 12:56:38.477 -0400,11907.55836191667,0.9593658447265625,0.4859161376953125,-0.1778717041015625,1,0.94
2020-05-16 12:56:38.547 -0400,11907.62819391667,1.26605224609375,0.405609130859375,-0.242034912109375,1,0.94
2020-05-16 12:56:38.617 -0400,11907.69802591667,1.071319580078125,0.58892822265625,-0.455963134765625,1,0.94
2020-05-16 12:56:38.687 -0400,11907.76785791667,0.7821044921875,0.592041015625,-0.34014892578125,1,0.94
2020-05-16 12:56:38.756 -0400,11907.83768891667,0.90234375,0.6085357666015625,-0.38885498046875,1,0.94
2020-05-16 12:56:38.826 -0400,11907.90752391667,0.979522705078125,0.792236328125,-0.5135498046875,1,0.94
2020-05-16 12:56:38.897 -0400,11907.97735991667,1.357131958007812,0.7070159912109375,-0.541595458984375,1,0.94
2020-05-16 12:56:38.966 -0400,11908.04719791667,1.574951171875,0.4735260009765625,-0.5025787353515625,1,0.94
2020-05-16 12:56:39.036 -0400,11908.11703391667,1.716278076171875,0.406341552734375,-0.4162750244140625,1,0.94
2020-05-16 12:56:39.106 -0400,11908.18687291667,0.886871337890625,-0.6354217529296875,-0.3299102783203125,1,0.94
2020-05-16 12:56:39.176 -0400,11908.25671091667,0.5851287841796875,0.2759857177734375,-0.01153564453125,1,0.94
2020-05-16 12:56:39.247 -0400,11908.32655241667,0.6360321044921875,0.5924530029296875,0.077789306640625,1,0.94
2020-05-16 12:56:39.315 -0400,11908.39639341667,0.9099884033203125,0.225006103515625,0.0894317626953125,1,0.94
2020-05-16 12:56:39.385 -0400,11908.46623541667,0.921783447265625,0.13592529296875,0.072845458984375,1,0.94
2020-05-16 12:56:39.455 -0400,11908.53607541667,1.035858154296875,0.3859100341796875,-0.055633544921875,1,0.94
2020-05-16 12:56:39.525 -0400,11908.60591541667,1.013198852539062,0.5319671630859375,-0.3156280517578125,1,0.94
2020-05-16 12:56:39.595 -0400,11908.67575441667,1.509552001953125,0.4875640869140625,-0.5184478759765625,1,0.94
2020-05-16 12:56:39.665 -0400,11908.74559441667,0.715057373046875,0.180572509765625,-0.3971405029296875,1,0.94
2020-05-16 12:56:39.734 -0400,11908.81543641667,0.5885162353515625,0.335418701171875,-0.3461151123046875,1,0.94
2020-05-16 12:56:39.804 -0400,11908.88527341667,0.8611297607421875,0.6789398193359375,-0.450592041015625,1,0.94
2020-05-16 12:56:39.874 -0400,11908.95511141667,1.017181396484375,0.7429046630859375,-0.63055419921875,1,0.94
2020-05-16 12:56:39.944 -0400,11909.02494541667,1.661819458007812,0.605255126953125,-0.5615081787109375,1,0.94
2020-05-16 12:56:40.014 -0400,11909.09478341667,1.467575073242188,0.3539886474609375,-0.32037353515625,1,0.94
2020-05-16 12:56:40.083 -0400,11909.16461941667,1.510589599609375,0.4746246337890625,-0.211578369140625,1,0.94
2020-05-16 12:56:40.153 -0400,11909.23445641667,0.829559326171875,0.3729400634765625,-0.366912841796875,1,0.94
2020-05-16 12:56:40.223 -0400,11909.30429141667,0.4848175048828125,0.281158447265625,-0.1379241943359375,1,0.94
2020-05-16 12:56:40.293 -0400,11909.37412275,0.5949249267578125,0.2314453125,-0.0122222900390625,1,0.94
2020-05-16 12:56:40.363 -0400,11909.44395575,0.8272705078125,0.247467041015625,-0.037811279296875,1,0.94
2020-05-16 12:56:40.433 -0400,11909.51379075,0.886962890625,0.27685546875,-0.03460693359375,1,0.94
2020-05-16 12:56:40.502 -0400,11909.58362775,1.209030151367188,0.4453582763671875,-0.1782684326171875,1,0.94
2020-05-16 12:56:40.572 -0400,11909.65346275,1.203720092773438,0.48480224609375,-0.4386749267578125,1,0.94
2020-05-16 12:56:40.642 -0400,11909.72329775,1.2957763671875,0.4794464111328125,-0.3253936767578125,1,0.94
2020-05-16 12:56:40.712 -0400,11909.79313375,0.6703033447265625,0.2689971923828125,-0.4034271240234375,1,0.94
2020-05-16 12:56:40.782 -0400,11909.86296775,0.580108642578125,0.4487762451171875,-0.3206329345703125,1,0.94
2020-05-16 12:56:40.852 -0400,11909.93279475,0.836395263671875,0.5582122802734375,-0.4588470458984375,1,0.94
2020-05-16 12:56:40.921 -0400,11910.00262575,1.024185180664062,0.508270263671875,-0.552886962890625,1,0.94
2020-05-16 12:56:40.991 -0400,11910.07246375,1.687271118164062,0.619140625,-0.5780181884765625,1,0.94
2020-05-16 12:56:41.061 -0400,11910.14230275,1.593246459960938,0.416229248046875,-0.4802093505859375,1,0.94
2020-05-16 12:56:41.131 -0400,11910.21214275,1.595077514648438,0.281585693359375,-0.264923095703125,1,0.94
2020-05-16 12:56:41.201 -0400,11910.28197575,0.813751220703125,0.30072021484375,-0.345458984375,1,0.94
2020-05-16 12:56:41.271 -0400,11910.35180975,0.5748748779296875,0.41802978515625,-0.0950469970703125,1,0.94
2020-05-16 12:56:41.341 -0400,11910.42164475,0.67108154296875,0.045440673828125,-0.060577392578125,1,0.94
2020-05-16 12:56:41.410 -0400,11910.49147975,0.8118743896484375,0.180816650390625,-0.0292205810546875,1,0.94
2020-05-16 12:56:41.480 -0400,11910.56131375,0.608062744140625,0.230682373046875,-0.0292205810546875,1,0.94
2020-05-16 12:56:41.550 -0400,11910.63114875,0.92864990234375,0.3601531982421875,-0.13092041015625,1,0.94
2020-05-16 12:56:41.620 -0400,11910.70098275,1.654159545898438,0.476165771484375,-0.3830413818359375,1,0.94
2020-05-16 12:56:41.691 -0400,11910.77081675,1.113540649414062,0.422637939453125,-0.422149658203125,1,0.94
2020-05-16 12:56:41.760 -0400,11910.84064875,0.526397705078125,0.410186767578125,-0.4949951171875,1,0.94
2020-05-16 12:56:41.829 -0400,11910.91047975,0.6675872802734375,0.5648193359375,-0.2799530029296875,1,0.94
2020-05-16 12:56:41.899 -0400,11910.98030875,1.065628051757812,0.9061279296875,-0.4342498779296875,1,0.94
2020-05-16 12:56:41.969 -0400,11911.05014175,1.130538940429688,0.664031982421875,-0.513458251953125,1,0.94
2020-05-16 12:56:42.039 -0400,11911.11997575,1.171554565429688,0.65301513671875,-0.4508209228515625,1,0.94
2020-05-16 12:56:42.109 -0400,11911.18981075,1.756454467773438,0.6446380615234375,-0.3372650146484375,1,0.94
2020-05-16 12:56:42.178 -0400,11911.25964475,1.295562744140625,0.158966064453125,-0.3419342041015625,1,0.94
2020-05-16 12:56:42.248 -0400,11911.329483875,0.643096923828125,0.291839599609375,-0.2962493896484375,1,0.94
2020-05-16 12:56:42.318 -0400,11911.399318875,0.6418609619140625,0.3693084716796875,-0.0865325927734375,1,0.94
2020-05-16 12:56:42.388 -0400,11911.469154875,0.9101104736328125,0.212005615234375,-0.0737457275390625,1,0.94
2020-05-16 12:56:42.458 -0400,11911.538987875,0.9008026123046875,0.173095703125,-0.036865234375,1,0.94
2020-05-16 12:56:42.528 -0400,11911.608819875,1.0213623046875,0.2753448486328125,-0.0107574462890625,1,0.94
2020-05-16 12:56:42.597 -0400,11911.678645875,1.194915771484375,0.502471923828125,-0.2290802001953125,1,0.94
2020-05-16 12:56:42.667 -0400,11911.748473875,1.591171264648438,0.6393280029296875,-0.5281524658203125,1,0.94
2020-05-16 12:56:42.737 -0400,11911.818298875,0.6660919189453125,0.2649993896484375,-0.433441162109375,1,0.94
2020-05-16 12:56:42.807 -0400,11911.888129875,0.6416168212890625,0.2890777587890625,-0.2513885498046875,1,0.94
2020-05-16 12:56:42.877 -0400,11911.957959875,1.005722045898438,0.710052490234375,-0.3571624755859375,1,0.94
2020-05-16 12:56:42.947 -0400,11912.027790875,0.8107147216796875,0.77679443359375,-0.5936431884765625,1,0.94
2020-05-16 12:56:43.017 -0400,11912.097620875,1.530166625976562,0.7672119140625,-0.42474365234375,1,0.94
2020-05-16 12:56:43.087 -0400,11912.167451875,1.626129150390625,0.5269775390625,-0.42791748046875,1,0.94
2020-05-16 12:56:43.156 -0400,11912.237281875,1.636947631835938,0.4085845947265625,-0.2651824951171875,1,0.94
2020-05-16 12:56:43.226 -0400,11912.307115875,0.8431396484375,0.342864990234375,-0.3588104248046875,1,0.94
2020-05-16 12:56:43.296 -0400,11912.376948,0.599456787109375,0.308197021484375,-0.100128173828125,1,0.94
2020-05-16 12:56:43.366 -0400,11912.446779,0.6755523681640625,0.2449798583984375,0.0001068115234375,1,0.94
2020-05-16 12:56:43.435 -0400,11912.516609,0.9970855712890625,0.2467498779296875,-0.05615234375,1,0.94
2020-05-16 12:56:43.505 -0400,11912.586442,0.726593017578125,0.211395263671875,0.0156097412109375,1,0.94
2020-05-16 12:56:43.575 -0400,11912.656276,0.9473419189453125,0.487518310546875,-0.15020751953125,1,0.94
2020-05-16 12:56:43.645 -0400,11912.726111,1.794265747070312,0.5973052978515625,-0.38800048828125,1,0.94
2020-05-16 12:56:43.715 -0400,11912.795945,1.0079345703125,0.26324462890625,-0.3992462158203125,1,0.94
2020-05-16 12:56:43.785 -0400,11912.865783,0.5413665771484375,0.3358612060546875,-0.3034515380859375,1,0.94
2020-05-16 12:56:43.855 -0400,11912.935618,0.6513824462890625,0.5038909912109375,-0.1881103515625,1,0.94
2020-05-16 12:56:43.924 -0400,11913.005455,1.057754516601562,0.6304779052734375,-0.3920440673828125,1,0.94
2020-05-16 12:56:43.994 -0400,11913.075292,1.254959106445312,0.6842193603515625,-0.565216064453125,1,0.94
2020-05-16 12:56:44.064 -0400,11913.145131,1.481643676757812,0.700347900390625,-0.4652557373046875,1,0.94
2020-05-16 12:56:44.134 -0400,11913.214971,1.426742553710938,0.5503692626953125,-0.4722442626953125,1,0.94
2020-05-16 12:56:44.204 -0400,11913.284806,1.33465576171875,0.397430419921875,-0.2251434326171875,1,0.94
2020-05-16 12:56:44.284 -0400,11913.35464175,0.766021728515625,0.2951812744140625,-0.303619384765625,1,0.94
2020-05-16 12:56:44.343 -0400,11913.42448175,0.537567138671875,0.319976806640625,-0.1090850830078125,1,0.94
2020-05-16 12:56:44.413 -0400,11913.49431875,0.6460723876953125,0.2768707275390625,-0.00335693359375,1,0.94
2020-05-16 12:56:44.483 -0400,11913.56415875,1.083358764648438,0.3640899658203125,-0.130401611328125,1,0.94
2020-05-16 12:56:44.553 -0400,11913.63399875,1.012298583984375,0.20758056640625,-0.0069580078125,1,0.94
2020-05-16 12:56:44.623 -0400,11913.70383475,0.9190521240234375,0.482940673828125,-0.27239990234375,1,0.94
2020-05-16 12:56:44.693 -0400,11913.77366875,1.50958251953125,0.4204864501953125,-0.31427001953125,1,0.94
2020-05-16 12:56:44.762 -0400,11913.84350475,0.8004913330078125,0.0055389404296875,-0.274017333984375,1,0.94
2020-05-16 12:56:44.832 -0400,11913.91334175,0.443084716796875,0.24749755859375,-0.2167816162109375,1,0.94
2020-05-16 12:56:44.902 -0400,11913.98318375,0.5125274658203125,0.5523223876953125,-0.0912322998046875,1,0.94
2020-05-16 12:56:44.972 -0400,11914.05302475,1.171630859375,0.8622589111328125,-0.3653106689453125,1,0.94
2020-05-16 12:56:45.042 -0400,11914.12286275,1.3173828125,0.867767333984375,-0.516876220703125,1,0.94
2020-05-16 12:56:45.112 -0400,11914.19270675,1.317413330078125,0.407928466796875,-0.41461181640625,1,0.94
2020-05-16 12:56:45.181 -0400,11914.26254775,1.349212646484375,0.8581695556640625,-0.3955078125,1,0.94
2020-05-16 12:56:45.251 -0400,11914.33238504167,1.189468383789062,0.3759307861328125,-0.3120880126953125,1,0.94
2020-05-16 12:56:45.321 -0400,11914.40222404167,0.63775634765625,0.195770263671875,-0.306640625,1,0.94
2020-05-16 12:56:45.391 -0400,11914.47206104167,0.5069732666015625,0.39776611328125,-0.2260284423828125,1,0.94
2020-05-16 12:56:45.461 -0400,11914.54189604167,0.9004974365234375,0.287567138671875,-0.1260223388671875,1,0.94
2020-05-16 12:56:45.531 -0400,11914.61173604167,1.19573974609375,0.2738800048828125,-0.1229248046875,1,0.94
2020-05-16 12:56:45.600 -0400,11914.68157504167,1.08099365234375,0.1997528076171875,-0.0298919677734375,1,0.94
2020-05-16 12:56:45.670 -0400,11914.75141504167,1.08819580078125,0.4890594482421875,-0.1253662109375,1,0.94
2020-05-16 12:56:45.740 -0400,11914.82125604167,1.201156616210938,0.4458770751953125,-0.2985687255859375,1,0.94
2020-05-16 12:56:45.810 -0400,11914.89110004167,0.4933013916015625,0.16058349609375,-0.3512115478515625,1,0.94
2020-05-16 12:56:45.880 -0400,11914.96094104167,0.3968048095703125,0.2825164794921875,-0.21240234375,1,0.94
2020-05-16 12:56:45.951 -0400,11915.03078104167,0.8645782470703125,0.607147216796875,-0.30206298828125,1,0.94
2020-05-16 12:56:46.021 -0400,11915.10061804167,1.152359008789062,0.89971923828125,-0.6699371337890625,1,0.94
2020-05-16 12:56:46.089 -0400,11915.17045804167,1.658203125,0.5537567138671875,-0.48004150390625,1,0.94
2020-05-16 12:56:46.159 -0400,11915.24030004167,1.24542236328125,0.5201568603515625,-0.360504150390625,1,0.94
2020-05-16 12:56:46.234 -0400,11915.31014204167,1.352218627929688,0.560272216796875,-0.334686279296875,1,0.94
2020-05-16 12:56:46.299 -0400,11915.37998125,0.733642578125,0.3068389892578125,-0.34222412109375,1,0.94
2020-05-16 12:56:46.369 -0400,11915.44982225,0.595458984375,0.3160552978515625,-0.1000518798828125,1,0.94
2020-05-16 12:56:46.438 -0400,11915.51966525,0.7211151123046875,0.2862548828125,-0.07501220703125,1,0.94
2020-05-16 12:56:46.508 -0400,11915.58950725,1.172271728515625,0.2993316650390625,-0.098419189453125,1,0.94
2020-05-16 12:56:46.578 -0400,11915.65935025,1.024246215820312,0.247650146484375,0.0317840576171875,1,0.94
2020-05-16 12:56:46.648 -0400,11915.72919725,0.8964691162109375,0.4801025390625,-0.0908203125,1,0.94
2020-05-16 12:56:46.718 -0400,11915.79903825,1.263015747070312,0.532318115234375,-0.4578857421875,1,0.94
2020-05-16 12:56:46.788 -0400,11915.86888325,0.9552154541015625,0.2658233642578125,-0.26361083984375,1,0.94
2020-05-16 12:56:46.857 -0400,11915.93872625,0.4977874755859375,0.16680908203125,-0.330718994140625,1,0.94
2020-05-16 12:56:46.927 -0400,11916.00857125,0.5713958740234375,0.529327392578125,-0.2441864013671875,1,0.94
2020-05-16 12:56:46.997 -0400,11916.07841325,1.167251586914062,0.732666015625,-0.539947509765625,1,0.94
2020-05-16 12:56:47.067 -0400,11916.14825625,1.0699462890625,0.564727783203125,-0.6060943603515625,1,0.94
2020-05-16 12:56:47.137 -0400,11916.21810425,1.752395629882812,0.694061279296875,-0.4038848876953125,1,0.94
2020-05-16 12:56:47.207 -0400,11916.28795425,1.317596435546875,0.5556793212890625,-0.3380584716796875,1,0.94
2020-05-16 12:56:47.277 -0400,11916.35780425,1.323257446289062,0.5091400146484375,-0.2828216552734375,1,0.94
2020-05-16 12:56:47.347 -0400,11916.42765325,0.799835205078125,0.3190460205078125,-0.235076904296875,1,0.94
2020-05-16 12:56:47.416 -0400,11916.49750125,0.60498046875,0.3091888427734375,-0.0694122314453125,1,0.94
2020-05-16 12:56:47.486 -0400,11916.56734925,0.7131195068359375,0.2406463623046875,-0.051177978515625,1,0.94
2020-05-16 12:56:47.556 -0400,11916.63719425,1.103057861328125,0.235687255859375,-0.035980224609375,1,0.94
2020-05-16 12:56:47.626 -0400,11916.70703825,1.114349365234375,0.268280029296875,-0.0120391845703125,1,0.94
2020-05-16 12:56:47.696 -0400,11916.77688525,0.9314727783203125,0.493896484375,-0.1601104736328125,1,0.94
2020-05-16 12:56:47.766 -0400,11916.84673325,1.3736572265625,0.478759765625,-0.3872222900390625,1,0.94
2020-05-16 12:56:47.835 -0400,11916.91658125,0.6912384033203125,0.1307373046875,-0.18377685546875,1,0.94
2020-05-16 12:56:47.905 -0400,11916.98642725,0.4580535888671875,0.2020263671875,-0.174957275390625,1,0.94
2020-05-16 12:56:47.975 -0400,11917.05627325,0.63751220703125,0.578948974609375,-0.1702117919921875,1,0.94
2020-05-16 12:56:48.045 -0400,11917.12612225,1.270050048828125,0.8219757080078125,-0.4671783447265625,1,0.94
2020-05-16 12:56:48.115 -0400,11917.19597025,1.168930053710938,0.48876953125,-0.4960174560546875,1,0.94
2020-05-16 12:56:48.185 -0400,11917.26581925,1.49468994140625,0.6856231689453125,-0.499847412109375,1,0.94
2020-05-16 12:56:48.254 -0400,11917.33567454167,1.332046508789062,0.365325927734375,-0.33831787109375,1,0.94
2020-05-16 12:56:48.325 -0400,11917.40552854167,1.243331909179688,0.04107666015625,-0.1564178466796875,1,0.94
2020-05-16 12:56:48.394 -0400,11917.47537754167,0.6586151123046875,0.25830078125,-0.171905517578125,1,0.94
2020-05-16 12:56:48.464 -0400,11917.54522654167,0.4817352294921875,0.3802032470703125,-0.04541015625,1,0.94
2020-05-16 12:56:48.534 -0400,11917.61507454167,0.7444610595703125,0.27813720703125,-0.02178955078125,1,0.94
2020-05-16 12:56:48.604 -0400,11917.68492554167,1.115631103515625,0.166412353515625,0.0865325927734375,1,0.94
2020-05-16 12:56:48.674 -0400,11917.75477554167,1.063751220703125,0.3227081298828125,0.017364501953125,1,0.94
2020-05-16 12:56:48.743 -0400,11917.82462654167,1.089187622070312,0.5904693603515625,-0.1062774658203125,1,0.94
2020-05-16 12:56:48.813 -0400,11917.89447554167,1.14093017578125,0.6646270751953125,-0.62347412109375,1,0.94
2020-05-16 12:56:48.883 -0400,11917.96432554167,0.883026123046875,0.126434326171875,-0.1564788818359375,1,0.94
2020-05-16 12:56:48.953 -0400,11918.03417054167,0.615692138671875,0.111297607421875,-0.2656097412109375,1,0.94
2020-05-16 12:56:49.023 -0400,11918.10401754167,0.760955810546875,0.719268798828125,-0.272796630859375,1,0.94
2020-05-16 12:56:49.093 -0400,11918.17386154167,0.978973388671875,0.8199462890625,-0.5281524658203125,1,0.94
2020-05-16 12:56:49.163 -0400,11918.24370354167,0.9001617431640625,0.5047454833984375,-0.55584716796875,1,0.94
2020-05-16 12:56:49.232 -0400,11918.31354554167,1.63592529296875,0.6472930908203125,-0.4282073974609375,1,0.94
2020-05-16 12:56:49.302 -0400,11918.38338725,1.37127685546875,0.4157257080078125,-0.4459228515625,1,0.94
2020-05-16 12:56:49.372 -0400,11918.45322725,1.473602294921875,0.4093780517578125,-0.2355804443359375,1,0.94
2020-05-16 12:56:49.442 -0400,11918.52306825,0.821868896484375,0.3370208740234375,-0.1952056884765625,1,0.94
2020-05-16 12:56:49.512 -0400,11918.59290925,0.589447021484375,0.3239898681640625,-0.041290283203125,1,0.94
2020-05-16 12:56:49.582 -0400,11918.66275125,0.58026123046875,0.248565673828125,0.0041961669921875,1,0.94
2020-05-16 12:56:49.651 -0400,11918.73259625,0.9007415771484375,0.228790283203125,0.0055389404296875,1,0.94
2020-05-16 12:56:49.721 -0400,11918.80244025,0.8975372314453125,0.2562255859375,-0.0078125,1,0.94
2020-05-16 12:56:49.791 -0400,11918.87227925,1.1822509765625,0.4742431640625,-0.1190032958984375,1,0.94
2020-05-16 12:56:49.861 -0400,11918.94212225,1.240997314453125,0.53326416015625,-0.607513427734375,1,0.94
2020-05-16 12:56:49.931 -0400,11919.01196925,1.2489013671875,0.28167724609375,-0.3012847900390625,1,0.94
2020-05-16 12:56:50.001 -0400,11919.08181925,0.68585205078125,0.255218505859375,-0.439971923828125,1,0.94
2020-05-16 12:56:50.075 -0400,11919.15166525,0.6336212158203125,0.72442626953125,-0.357147216796875,1,0.94
2020-05-16 12:56:50.141 -0400,11919.22151325,0.9049835205078125,0.6776275634765625,-0.4990234375,1,0.94
2020-05-16 12:56:50.210 -0400,11919.29135925,0.974456787109375,0.586395263671875,-0.5180816650390625,1,0.94
2020-05-16 12:56:50.280 -0400,11919.361205125,1.522109985351562,0.59771728515625,-0.3940277099609375,1,0.94
2020-05-16 12:56:50.350 -0400,11919.431051125,1.41448974609375,0.4824981689453125,-0.4461212158203125,1,0.94
2020-05-16 12:56:50.420 -0400,11919.500894125,1.697463989257812,0.4219512939453125,-0.2509307861328125,1,0.94
2020-05-16 12:56:50.490 -0400,11919.570735125,0.95770263671875,0.272674560546875,-0.26708984375,1,0.94
2020-05-16 12:56:50.560 -0400,11919.640577125,0.61273193359375,0.26995849609375,-0.118438720703125,1,0.94
2020-05-16 12:56:50.629 -0400,11919.710419125,0.5251922607421875,0.211761474609375,-0.03961181640625,1,0.94
2020-05-16 12:56:50.699 -0400,11919.780261125,0.5982208251953125,0.1593017578125,-0.035003662109375,1,0.94
2020-05-16 12:56:50.769 -0400,11919.850106125,0.7707366943359375,0.2154541015625,0.023590087890625,1,0.94
2020-05-16 12:56:50.841 -0400,11919.919952125,1.1627197265625,0.4361114501953125,-0.0247650146484375,1,0.94
2020-05-16 12:56:50.909 -0400,11919.989795125,1.522598266601562,0.7372589111328125,-0.363739013671875,1,0.94
2020-05-16 12:56:50.978 -0400,11920.059644125,1.6356201171875,0.724945068359375,-0.446990966796875,1,0.94
2020-05-16 12:56:51.048 -0400,11920.129490125,0.772857666015625,0.322235107421875,-0.3509063720703125,1,0.94
2020-05-16 12:56:51.118 -0400,11920.199337125,0.6100006103515625,0.4669647216796875,-0.2721405029296875,1,0.94
2020-05-16 12:56:51.188 -0400,11920.269184125,0.5789947509765625,0.7940216064453125,-0.2957305908203125,1,0.94
2020-05-16 12:56:51.258 -0400,11920.33903325,0.856414794921875,0.82366943359375,-0.443115234375,1,0.94
2020-05-16 12:56:51.328 -0400,11920.40888225,1.912429809570312,0.6218414306640625,-0.44610595703125,1,0.94
2020-05-16 12:56:51.398 -0400,11920.47873225,1.383804321289062,0.29376220703125,-0.4009857177734375,1,0.94
2020-05-16 12:56:51.467 -0400,11920.54858025,1.733139038085938,0.53253173828125,-0.2998046875,1,0.94
2020-05-16 12:56:51.537 -0400,11920.61842725,1.181640625,0.3020782470703125,-0.3561248779296875,1,0.94
2020-05-16 12:56:51.607 -0400,11920.68827025,0.547119140625,0.1304473876953125,-0.1893157958984375,1,0.94
2020-05-16 12:56:51.677 -0400,11920.75810825,0.184356689453125,0.053955078125,-0.072265625,1,0.94
2020-05-16 12:56:51.747 -0400,11920.82795125,0.1083831787109375,0.0389556884765625,-0.0634765625,1,0.94
2020-05-16 12:56:51.817 -0400,11920.89779325,0.1056365966796875,0.1220703125,-0.01068115234375,1,0.94
2020-05-16 12:56:51.886 -0400,11920.96763625,0.521148681640625,0.3626708984375,-0.059478759765625,1,0.94
2020-05-16 12:56:51.956 -0400,11921.03748025,1.575897216796875,0.5039215087890625,-0.051544189453125,1,0.94
2020-05-16 12:56:52.026 -0400,11921.10732425,3.320770263671875,1.518539428710938,-0.8278961181640625,1,0.94
2020-05-16 12:56:52.096 -0400,11921.17716925,0.9296112060546875,-0.142669677734375,-0.23846435546875,1,0.94
2020-05-16 12:56:52.166 -0400,11921.24701325,0.77593994140625,0.511688232421875,-0.17999267578125,1,0.94
2020-05-16 12:56:52.237 -0400,11921.31686025,0.7071990966796875,0.8754730224609375,-0.3269500732421875,1,0.94
2020-05-16 12:56:52.306 -0400,11921.386710125,0.6978912353515625,1.025161743164062,-0.3763580322265625,1,0.94
2020-05-16 12:56:52.375 -0400,11921.456554125,1.953857421875,0.6768341064453125,-0.2938232421875,1,0.94
2020-05-16 12:56:52.445 -0400,11921.526402125,1.583328247070312,0.604339599609375,-0.4576873779296875,1,0.94
2020-05-16 12:56:52.515 -0400,11921.596250125,1.916351318359375,0.684783935546875,-0.203155517578125,1,0.94
2020-05-16 12:56:52.585 -0400,11921.666096125,1.061859130859375,0.339202880859375,-0.269561767578125,1,0.94
2020-05-16 12:56:52.655 -0400,11921.735941125,0.6114654541015625,0.180450439453125,-0.055328369140625,1,0.94
2020-05-16 12:56:52.725 -0400,11921.805781125,0.5020294189453125,0.214599609375,0.0121002197265625,1,0.94
2020-05-16 12:56:52.794 -0400,11921.875620125,0.869781494140625,0.28802490234375,-0.1020660400390625,1,0.94
2020-05-16 12:56:52.864 -0400,11921.945455125,0.8739471435546875,0.1569976806640625,0.0232086181640625,1,0.94
2020-05-16 12:56:52.934 -0400,11922.015290125,1.230575561523438,0.368743896484375,-0.05523681640625,1,0.94
2020-05-16 12:56:53.004 -0400,11922.085130125,1.460205078125,0.786773681640625,-0.732574462890625,1,0.94
2020-05-16 12:56:53.074 -0400,11922.154967125,1.26800537109375,0.4696044921875,-0.29034423828125,1,0.94
2020-05-16 12:56:53.144 -0400,11922.224807125,0.7267303466796875,0.063507080078125,-0.2999420166015625,1,0.94
2020-05-16 12:56:53.213 -0400,11922.294647125,0.68603515625,0.5583038330078125,-0.146881103515625,1,0.94
2020-05-16 12:56:53.283 -0400,11922.364488625,1.030136108398438,0.8751678466796875,-0.31329345703125,1,0.94
2020-05-16 12:56:53.353 -0400,11922.434331625,0.8953399658203125,0.749237060546875,-0.54437255859375,1,0.94
2020-05-16 12:56:53.423 -0400,11922.504170625,1.590927124023438,0.8354949951171875,-0.5140380859375,1,0.94
2020-05-16 12:56:53.493 -0400,11922.574011625,1.405197143554688,0.4282684326171875,-0.36773681640625,1,0.94
2020-05-16 12:56:53.563 -0400,11922.643854625,1.511123657226562,0.296173095703125,-0.3379974365234375,1,0.94
2020-05-16 12:56:53.633 -0400,11922.713696625,0.8784027099609375,0.2348175048828125,-0.3097076416015625,1,0.94
2020-05-16 12:56:53.703 -0400,11922.783537625,0.5597076416015625,0.2987060546875,-0.1141204833984375,1,0.94
2020-05-16 12:56:53.772 -0400,11922.853381625,0.5848388671875,0.2877044677734375,-0.0395355224609375,1,0.94
2020-05-16 12:56:53.842 -0400,11922.923223625,1.074920654296875,0.2422943115234375,-0.0246124267578125,1,0.94
2020-05-16 12:56:53.912 -0400,11922.993062625,0.924468994140625,0.2403564453125,-0.0543212890625,1,0.94
2020-05-16 12:56:53.982 -0400,11923.062903625,1.090805053710938,0.364349365234375,-0.16754150390625,1,0.94
2020-05-16 12:56:54.051 -0400,11923.132746625,1.291854858398438,0.486114501953125,-0.4640960693359375,1,0.94
2020-05-16 12:56:54.121 -0400,11923.202586625,0.9694366455078125,0.518798828125,-0.46612548828125,1,0.94
2020-05-16 12:56:54.191 -0400,11923.272426625,0.5942535400390625,0.317047119140625,-0.2361297607421875,1,0.94
2020-05-16 12:56:54.261 -0400,11923.34226275,0.7982635498046875,0.5655364990234375,-0.2608184814453125,1,0.94
2020-05-16 12:56:54.331 -0400,11923.41210175,1.0516357421875,0.7252044677734375,-0.443359375,1,0.94
2020-05-16 12:56:54.401 -0400,11923.48194375,1.071517944335938,0.5583648681640625,-0.4835662841796875,1,0.94
2020-05-16 12:56:54.471 -0400,11923.55178875,1.209014892578125,0.5373687744140625,-0.47344970703125,1,0.94
2020-05-16 12:56:54.540 -0400,11923.62163075,1.505874633789062,0.4694671630859375,-0.3627777099609375,1,0.94
2020-05-16 12:56:54.610 -0400,11923.69147475,1.297409057617188,0.242156982421875,-0.3441162109375,1,0.94
2020-05-16 12:56:54.680 -0400,11923.76131775,0.744476318359375,0.2522125244140625,-0.201629638671875,1,0.94
2020-05-16 12:56:54.750 -0400,11923.83116475,0.725738525390625,0.290069580078125,-0.0976715087890625,1,0.94
2020-05-16 12:56:54.820 -0400,11923.90100975,0.876220703125,0.1646575927734375,-0.0274200439453125,1,0.94
2020-05-16 12:56:54.890 -0400,11923.97085275,0.8129425048828125,0.1700897216796875,0.0621490478515625,1,0.94
2020-05-16 12:56:54.960 -0400,11924.04069375,0.9773101806640625,0.367156982421875,-0.0183563232421875,1,0.94
2020-05-16 12:56:55.030 -0400,11924.11053675,1.18865966796875,0.642578125,-0.5592498779296875,1,0.94
2020-05-16 12:56:55.099 -0400,11924.18037775,1.560775756835938,0.3866729736328125,-0.2387237548828125,1,0.94
2020-05-16 12:56:55.169 -0400,11924.25021575,0.76715087890625,0.0348968505859375,-0.3985748291015625,1,0.94
2020-05-16 12:56:55.239 -0400,11924.32005575,0.614898681640625,0.3544158935546875,-0.134368896484375,1,0.94
2020-05-16 12:56:55.309 -0400,11924.3898995,0.9172821044921875,0.736053466796875,-0.209747314453125,1,0.94
2020-05-16 12:56:55.384 -0400,11924.4597385,0.88665771484375,0.730621337890625,-0.407684326171875,1,0.94
2020-05-16 12:56:55.449 -0400,11924.5295785,1.50201416015625,0.7182159423828125,-0.426666259765625,1,0.94
2020-05-16 12:56:55.518 -0400,11924.5994195,1.113754272460938,0.4678955078125,-0.3851776123046875,1,0.94
2020-05-16 12:56:55.588 -0400,11924.6692625,1.37774658203125,0.3992919921875,-0.288116455078125,1,0.94
2020-05-16 12:56:55.658 -0400,11924.7391055,0.94854736328125,0.2458343505859375,-0.3545989990234375,1,0.94
2020-05-16 12:56:55.728 -0400,11924.8089525,0.6222076416015625,0.2384185791015625,-0.188018798828125,1,0.94
2020-05-16 12:56:55.798 -0400,11924.8787995,0.65625,0.2299652099609375,-0.1241607666015625,1,0.94
2020-05-16 12:56:55.868 -0400,11924.9486505,1.026779174804688,0.1757354736328125,-0.088165283203125,1,0.94
2020-05-16 12:56:55.938 -0400,11925.0184995,1.000808715820312,0.2715911865234375,-0.0071258544921875,1,0.94
2020-05-16 12:56:56.007 -0400,11925.0883475,1.185989379882812,0.45452880859375,-0.1309814453125,1,0.94
2020-05-16 12:56:56.077 -0400,11925.1581995,1.267242431640625,0.5506744384765625,-0.47479248046875,1,0.94
2020-05-16 12:56:56.147 -0400,11925.2280505,1.110809326171875,0.4012603759765625,-0.18817138671875,1,0.94
2020-05-16 12:56:56.225 -0400,11925.2979015,0.5852508544921875,0.194976806640625,-0.279052734375,1,0.94
2020-05-16 12:56:56.286 -0400,11925.367746375,0.6088714599609375,0.501129150390625,-0.279449462890625,1,0.94
2020-05-16 12:56:56.357 -0400,11925.437596375,0.8061370849609375,0.594085693359375,-0.4763946533203125,1,0.94
2020-05-16 12:56:56.426 -0400,11925.507445375,1.0577392578125,0.479522705078125,-0.443572998046875,1,0.94
2020-05-16 12:56:56.496 -0400,11925.577291375,1.590377807617188,0.578582763671875,-0.510009765625,1,0.94
2020-05-16 12:56:56.566 -0400,11925.647138375,1.349746704101562,0.5007781982421875,-0.5610198974609375,1,0.94
2020-05-16 12:56:56.636 -0400,11925.716989375,1.368728637695312,0.291778564453125,-0.2334747314453125,1,0.94
2020-05-16 12:56:56.706 -0400,11925.786837375,0.7350921630859375,0.209320068359375,-0.24798583984375,1,0.94
2020-05-16 12:56:56.776 -0400,11925.856682375,0.4399566650390625,0.296844482421875,-0.1229400634765625,1,0.94
2020-05-16 12:56:56.845 -0400,11925.926526375,0.5194549560546875,0.226470947265625,-0.027740478515625,1,0.94
2020-05-16 12:56:56.915 -0400,11925.996373375,0.96112060546875,0.19598388671875,-0.0076751708984375,1,0.94
2020-05-16 12:56:56.985 -0400,11926.066220375,1.048583984375,0.300811767578125,0.0162506103515625,1,0.94
2020-05-16 12:56:57.055 -0400,11926.136065375,1.225784301757812,0.5843048095703125,-0.25311279296875,1,0.94
2020-05-16 12:56:57.125 -0400,11926.205909375,1.38165283203125,0.544281005859375,-0.5259552001953125,1,0.94
2020-05-16 12:56:57.195 -0400,11926.275755375,0.9099884033203125,0.10491943359375,-0.19549560546875,1,0.94
2020-05-16 12:56:57.264 -0400,11926.345602125,0.4964752197265625,0.19610595703125,-0.296600341796875,1,0.94
2020-05-16 12:56:57.334 -0400,11926.415444125,0.55224609375,0.5708465576171875,-0.3444976806640625,1,0.94
2020-05-16 12:56:57.404 -0400,11926.485290125,1.072921752929688,0.64752197265625,-0.601165771484375,1,0.94
2020-05-16 12:56:57.474 -0400,11926.555135125,1.165664672851562,0.365447998046875,-0.460906982421875,1,0.94
2020-05-16 12:56:57.544 -0400,11926.624978125,1.165435791015625,0.4828338623046875,-0.3940582275390625,1,0.94
2020-05-16 12:56:57.614 -0400,11926.694822125,1.332168579101562,0.59735107421875,-0.28497314453125,1,0.94
2020-05-16 12:56:57.684 -0400,11926.764666125,1.152664184570312,0.3994903564453125,-0.2209320068359375,1,0.94
2020-05-16 12:56:57.753 -0400,11926.834515125,0.68084716796875,0.2897796630859375,-0.1280059814453125,1,0.94
2020-05-16 12:56:57.823 -0400,11926.904362125,0.7848663330078125,0.3048248291015625,-0.06658935546875,1,0.94
2020-05-16 12:56:57.893 -0400,11926.974206125,1.07818603515625,0.185333251953125,-0.0565032958984375,1,0.94
2020-05-16 12:56:57.963 -0400,11927.044050125,1.046356201171875,0.1348724365234375,0.0299530029296875,1,0.94
2020-05-16 12:56:58.033 -0400,11927.113894125,1.130355834960938,0.3805999755859375,-0.0042877197265625,1,0.94
2020-05-16 12:56:58.103 -0400,11927.183736125,0.940338134765625,0.54248046875,-0.4080352783203125,1,0.94
2020-05-16 12:56:58.172 -0400,11927.253578125,1.243331909179688,0.384490966796875,-0.2799530029296875,1,0.94
2020-05-16 12:56:58.242 -0400,11927.323419125,0.663421630859375,-0.00872802734375,-0.2099456787109375,1,0.94
2020-05-16 12:56:58.312 -0400,11927.393255375,0.644378662109375,0.3170013427734375,-0.1729583740234375,1,0.94
2020-05-16 12:56:58.382 -0400,11927.463093375,0.9599456787109375,0.703399658203125,-0.3406219482421875,1,0.94
2020-05-16 12:56:58.452 -0400,11927.532936375,1.060165405273438,0.6735076904296875,-0.509918212890625,1,0.94
2020-05-16 12:56:58.522 -0400,11927.602774375,1.707122802734375,0.6821441650390625,-0.460235595703125,1,0.94
2020-05-16 12:56:58.591 -0400,11927.672612375,1.139572143554688,0.4652862548828125,-0.4467926025390625,1,0.94
2020-05-16 12:56:58.661 -0400,11927.742447375,1.3924560546875,0.4314117431640625,-0.279693603515625,1,0.94
2020-05-16 12:56:58.731 -0400,11927.812281375,0.8652496337890625,0.3020782470703125,-0.29705810546875,1,0.94
2020-05-16 12:56:58.801 -0400,11927.882121375,0.6848602294921875,0.2964324951171875,-0.1190338134765625,1,0.94
2020-05-16 12:56:58.871 -0400,11927.951958375,0.8534393310546875,0.2189788818359375,-0.0416259765625,1,0.94
2020-05-16 12:56:58.941 -0400,11928.021795375,1.107650756835938,0.153533935546875,0.038421630859375,1,0.94
2020-05-16 12:56:59.010 -0400,11928.091635375,0.908172607421875,0.2313995361328125,0.0611724853515625,1,0.94
2020-05-16 12:56:59.080 -0400,11928.161477375,1.016616821289062,0.474517822265625,-0.1159515380859375,1,0.94
2020-05-16 12:56:59.150 -0400,11928.231321375,1.185775756835938,0.5389862060546875,-0.462188720703125,1,0.94
2020-05-16 12:56:59.220 -0400,11928.301167375,1.072891235351562,0.334686279296875,-0.3120269775390625,1,0.94
2020-05-16 12:56:59.290 -0400,11928.371014125,0.52008056640625,0.1287994384765625,-0.3092498779296875,1,0.94
2020-05-16 12:56:59.360 -0400,11928.440852125,0.650726318359375,0.4944610595703125,-0.1788177490234375,1,0.94
2020-05-16 12:56:59.430 -0400,11928.510691125,1.251724243164062,0.809539794921875,-0.58111572265625,1,0.94
2020-05-16 12:56:59.499 -0400,11928.580534125,1.199295043945312,0.5692291259765625,-0.6977386474609375,1,0.94
2020-05-16 12:56:59.569 -0400,11928.650378125,1.453353881835938,0.2327880859375,-0.3179931640625,1,0.94
2020-05-16 12:56:59.639 -0400,11928.720217125,1.181564331054688,0.1993865966796875,-0.3236846923828125,1,0.94
2020-05-16 12:56:59.709 -0400,11928.790061125,1.316421508789062,0.2571258544921875,0.0104827880859375,1,0.94
2020-05-16 12:56:59.779 -0400,11928.859903125,0.9122772216796875,0.4063873291015625,-0.0700531005859375,1,0.94
2020-05-16 12:56:59.849 -0400,11928.929746125,0.6806488037109375,0.34124755859375,-0.0048065185546875,1,0.94
2020-05-16 12:56:59.918 -0400,11928.999588125,0.94610595703125,0.313629150390625,0.068206787109375,1,0.94
2020-05-16 12:56:59.988 -0400,11929.069427125,1.1368408203125,0.2154541015625,0.04010009765625,1,0.94
2020-05-16 12:57:00.058 -0400,11929.139270125,0.906463623046875,0.18194580078125,-0.0237579345703125,1,0.94
2020-05-16 12:57:00.128 -0400,11929.209112125,0.8438873291015625,0.458831787109375,-0.160614013671875,1,0.94
2020-05-16 12:57:00.198 -0400,11929.278959125,1.2718505859375,0.4739227294921875,-0.4564971923828125,1,0.94
2020-05-16 12:57:00.268 -0400,11929.348802875,1.00299072265625,0.26190185546875,-0.254791259765625,1,0.94
2020-05-16 12:57:00.337 -0400,11929.418647875,0.484893798828125,0.15887451171875,-0.2609405517578125,1,0.94
2020-05-16 12:57:00.407 -0400,11929.488490875,0.551300048828125,0.4385833740234375,-0.1543731689453125,1,0.94
2020-05-16 12:57:00.477 -0400,11929.558335875,1.250717163085938,0.6427001953125,-0.2887115478515625,1,0.94
2020-05-16 12:57:00.547 -0400,11929.628179875,1.194229125976562,0.62261962890625,-0.5386199951171875,1,0.94
2020-05-16 12:57:00.617 -0400,11929.698021875,1.259048461914062,0.7030181884765625,-0.5713653564453125,1,0.94
2020-05-16 12:57:00.687 -0400,11929.767862875,1.273178100585938,0.655029296875,-0.497467041015625,1,0.94
2020-05-16 12:57:00.757 -0400,11929.837704875,1.294937133789062,0.2158203125,-0.30316162109375,1,0.94
2020-05-16 12:57:00.826 -0400,11929.907547875,0.669830322265625,0.197662353515625,-0.299163818359375,1,0.94
2020-05-16 12:57:00.896 -0400,11929.977389875,0.5452117919921875,0.3675689697265625,-0.166015625,1,0.94
2020-05-16 12:57:00.966 -0400,11930.047232875,1.0262451171875,0.330413818359375,-0.1009979248046875,1,0.94
2020-05-16 12:57:01.036 -0400,11930.117076875,1.208892822265625,0.1822662353515625,-0.0166778564453125,1,0.94
2020-05-16 12:57:01.106 -0400,11930.186920875,1.063034057617188,0.2677764892578125,-0.1834716796875,1,0.94
2020-05-16 12:57:01.176 -0400,11930.256762875,0.8907012939453125,0.3978729248046875,-0.255218505859375,1,0.94
2020-05-16 12:57:01.253 -0400,11930.326606875,1.168197631835938,0.32989501953125,-0.3239593505859375,1,0.94
2020-05-16 12:57:01.316 -0400,11930.396454625,0.6794891357421875,0.16412353515625,-0.3001556396484375,1,0.94
2020-05-16 12:57:01.385 -0400,11930.466297625,0.46221923828125,0.2745513916015625,-0.19830322265625,1,0.94
2020-05-16 12:57:01.455 -0400,11930.536139625,0.79473876953125,0.5829010009765625,-0.2666778564453125,1,0.94
2020-05-16 12:57:01.525 -0400,11930.605983625,1.1551513671875,0.7857818603515625,-0.6014556884765625,1,0.94
2020-05-16 12:57:01.595 -0400,11930.675823625,1.386138916015625,0.4990386962890625,-0.5254974365234375,1,0.94
2020-05-16 12:57:01.665 -0400,11930.745666625,1.002639770507812,0.479339599609375,-0.4151153564453125,1,0.94
2020-05-16 12:57:01.734 -0400,11930.815506625,1.535385131835938,0.5537109375,-0.287567138671875,1,0.94
2020-05-16 12:57:01.804 -0400,11930.885346625,0.994140625,0.18255615234375,-0.2752838134765625,1,0.94
2020-05-16 12:57:01.874 -0400,11930.955187625,0.6013031005859375,0.3109893798828125,-0.13494873046875,1,0.94
2020-05-16 12:57:01.944 -0400,11931.025027625,0.7101287841796875,0.3297271728515625,-0.057769775390625,1,0.94
2020-05-16 12:57:02.014 -0400,11931.094863625,1.094451904296875,0.2001953125,-0.0402679443359375,1,0.94
2020-05-16 12:57:02.084 -0400,11931.164701625,0.92901611328125,0.1262969970703125,0.0335693359375,1,0.94
2020-05-16 12:57:02.153 -0400,11931.234539625,1.021194458007812,0.3971099853515625,-0.0712432861328125,1,0.94
2020-05-16 12:57:02.223 -0400,11931.304380625,1.158203125,0.4852142333984375,-0.2830810546875,1,0.94
2020-05-16 12:57:02.293 -0400,11931.374222625,1.297439575195312,0.47509765625,-0.4222869873046875,1,0.94
2020-05-16 12:57:02.363 -0400,11931.444064625,0.6469879150390625,0.186065673828125,-0.353179931640625,1,0.94
2020-05-16 12:57:02.433 -0400,11931.513907625,0.6263885498046875,0.402862548828125,-0.2136077880859375,1,0.94
2020-05-16 12:57:02.503 -0400,11931.583752625,1.046966552734375,0.68914794921875,-0.39300537109375,1,0.94
2020-05-16 12:57:02.573 -0400,11931.653596625,1.049697875976562,0.7699127197265625,-0.6256866455078125,1,0.94
2020-05-16 12:57:02.642 -0400,11931.723436625,1.709442138671875,0.799285888671875,-0.517059326171875,1,0.94
2020-05-16 12:57:02.712 -0400,11931.793276625,1.33709716796875,0.3853759765625,-0.3607330322265625,1,0.94
2020-05-16 12:57:02.782 -0400,11931.863114625,1.444854736328125,0.4708709716796875,-0.2764434814453125,1,0.94
2020-05-16 12:57:02.852 -0400,11931.932955625,0.80572509765625,0.2412567138671875,-0.16400146484375,1,0.94
2020-05-16 12:57:02.922 -0400,11932.002797625,0.5863494873046875,0.2873382568359375,-0.0198822021484375,1,0.94
2020-05-16 12:57:02.991 -0400,11932.072638625,0.6890716552734375,0.250732421875,0.0336761474609375,1,0.94
2020-05-16 12:57:03.061 -0400,11932.142481625,1.0518798828125,0.2588958740234375,0.0718841552734375,1,0.94
2020-05-16 12:57:03.131 -0400,11932.212322625,0.9942626953125,0.363037109375,-0.0291595458984375,1,0.94
2020-05-16 12:57:03.201 -0400,11932.282167625,0.9756317138671875,0.4542694091796875,-0.208953857421875,1,0.94
2020-05-16 12:57:03.274 -0400,11932.352009875,1.328643798828125,0.4105987548828125,-0.3817291259765625,1,0.94
2020-05-16 12:57:03.341 -0400,11932.421853875,0.8179779052734375,0.332672119140625,-0.36553955078125,1,0.94
2020-05-16 12:57:03.411 -0400,11932.491695875,0.4259796142578125,0.3213653564453125,-0.355224609375,1,0.94
2020-05-16 12:57:03.480 -0400,11932.561540875,0.6190338134765625,0.5007476806640625,-0.3552703857421875,1,0.94
2020-05-16 12:57:03.550 -0400,11932.631385875,1.27490234375,0.59222412109375,-0.69671630859375,1,0.94
2020-05-16 12:57:03.620 -0400,11932.701231875,1.21405029296875,0.2445220947265625,-0.5595245361328125,1,0.94
2020-05-16 12:57:03.690 -0400,11932.771075875,1.252426147460938,0.483795166015625,-0.4880218505859375,1,0.94
2020-05-16 12:57:03.760 -0400,11932.840921875,1.473129272460938,0.469207763671875,-0.243255615234375,1,0.94
2020-05-16 12:57:03.830 -0400,11932.910764875,1.147171020507812,0.3178863525390625,-0.1619720458984375,1,0.94
2020-05-16 12:57:03.899 -0400,11932.980605875,0.4650726318359375,0.3255615234375,-0.2033538818359375,1,0.94
2020-05-16 12:57:03.969 -0400,11933.050448875,0.49969482421875,0.370513916015625,-0.0382080078125,1,0.94
2020-05-16 12:57:04.039 -0400,11933.120292875,0.8961181640625,0.2162933349609375,-0.07611083984375,1,0.94
2020-05-16 12:57:04.109 -0400,11933.190138875,1.180191040039062,0.2183990478515625,-0.020477294921875,1,0.94
2020-05-16 12:57:04.179 -0400,11933.259983875,1.317230224609375,0.2272796630859375,-0.0848236083984375,1,0.94
2020-05-16 12:57:04.249 -0400,11933.329828875,1.085647583007812,0.42864990234375,-0.1488800048828125,1,0.94
2020-05-16 12:57:04.319 -0400,11933.39967079167,1.206649780273438,0.4207763671875,-0.3141632080078125,1,0.94
2020-05-16 12:57:04.388 -0400,11933.46951479167,0.7186126708984375,0.2399749755859375,-0.3543853759765625,1,0.94
2020-05-16 12:57:04.458 -0400,11933.53935579167,0.5815582275390625,0.1863861083984375,-0.2631683349609375,1,0.94
2020-05-16 12:57:04.528 -0400,11933.60919779167,0.9898834228515625,0.5477294921875,-0.127685546875,1,0.94
2020-05-16 12:57:04.598 -0400,11933.67903979167,1.12774658203125,0.83197021484375,-0.3537750244140625,1,0.94
2020-05-16 12:57:04.668 -0400,11933.74888479167,1.372604370117188,0.7528076171875,-0.33782958984375,1,0.94
2020-05-16 12:57:04.738 -0400,11933.81872979167,1.040939331054688,0.6956634521484375,-0.3151092529296875,1,0.94
2020-05-16 12:57:04.808 -0400,11933.88857479167,1.384140014648438,0.5196685791015625,-0.2867889404296875,1,0.94
2020-05-16 12:57:04.878 -0400,11933.95842179167,0.8524322509765625,0.2794342041015625,-0.4458770751953125,1,0.94
2020-05-16 12:57:04.947 -0400,11934.02826879167,0.685821533203125,0.30438232421875,-0.36175537109375,1,0.94
2020-05-16 12:57:05.017 -0400,11934.09811779167,0.8377532958984375,0.2057342529296875,-0.2467193603515625,1,0.94
2020-05-16 12:57:05.087 -0400,11934.16796279167,1.11065673828125,0.1288299560546875,-0.1688232421875,1,0.94
2020-05-16 12:57:05.157 -0400,11934.23780779167,0.791046142578125,0.224884033203125,-0.0997772216796875,1,0.94
2020-05-16 12:57:05.226 -0400,11934.30765079167,1.159271240234375,0.47283935546875,-0.076690673828125,1,0.94
2020-05-16 12:57:05.297 -0400,11934.377491875,1.274734497070312,0.659149169921875,-0.6584320068359375,1,0.94
2020-05-16 12:57:05.366 -0400,11934.447331875,0.5114898681640625,0.2029876708984375,-0.3026123046875,1,0.94
2020-05-16 12:57:05.436 -0400,11934.517178875,0.29571533203125,0.169891357421875,-0.1147308349609375,1,0.94
2020-05-16 12:57:05.506 -0400,11934.587026875,0.6600341796875,0.6051177978515625,-0.1767120361328125,1,0.94
2020-05-16 12:57:05.576 -0400,11934.656873875,1.094070434570312,1.266082763671875,-0.5093994140625,1,0.94
2020-05-16 12:57:05.646 -0400,11934.726720875,1.198226928710938,0.4768524169921875,-0.5334320068359375,1,0.94
2020-05-16 12:57:05.715 -0400,11934.796568875,1.141693115234375,0.7347564697265625,-0.394500732421875,1,0.94
2020-05-16 12:57:05.785 -0400,11934.866416875,1.507400512695312,0.6533050537109375,-0.2908477783203125,1,0.94
2020-05-16 12:57:05.855 -0400,11934.936261875,1.401840209960938,0.3840484619140625,-0.258941650390625,1,0.94
2020-05-16 12:57:05.925 -0400,11935.006105875,0.794708251953125,0.2945709228515625,-0.156036376953125,1,0.94
2020-05-16 12:57:05.995 -0400,11935.075949875,0.683319091796875,0.3529052734375,-0.035858154296875,1,0.94
2020-05-16 12:57:06.065 -0400,11935.145793875,1.152328491210938,0.273040771484375,0.0388946533203125,1,0.94
2020-05-16 12:57:06.134 -0400,11935.215638875,1.189727783203125,0.165069580078125,0.120880126953125,1,0.94
2020-05-16 12:57:06.204 -0400,11935.285484875,0.9886932373046875,0.4064483642578125,0.0004730224609375,1,0.94
2020-05-16 12:57:06.274 -0400,11935.355325625,0.7695159912109375,0.4613037109375,-0.277679443359375,1,0.94
2020-05-16 12:57:06.344 -0400,11935.425171625,1.0208740234375,0.3996734619140625,-0.3992919921875,1,0.94
2020-05-16 12:57:06.414 -0400,11935.495018625,0.55963134765625,0.0165557861328125,-0.5099945068359375,1,0.94
2020-05-16 12:57:06.484 -0400,11935.564863625,0.612884521484375,0.3375396728515625,-0.4262542724609375,1,0.94
2020-05-16 12:57:06.553 -0400,11935.634703625,1.158401489257812,0.6912689208984375,-0.728179931640625,1,0.94
2020-05-16 12:57:06.623 -0400,11935.704543625,1.132553100585938,0.710662841796875,-0.7371826171875,1,0.94
2020-05-16 12:57:06.693 -0400,11935.774381625,1.706161499023438,0.564453125,-0.4756011962890625,1,0.94
2020-05-16 12:57:06.763 -0400,11935.844220625,1.094970703125,0.547760009765625,-0.3546142578125,1,0.94
2020-05-16 12:57:06.833 -0400,11935.914062625,1.268280029296875,0.6390838623046875,-0.2233734130859375,1,0.94
2020-05-16 12:57:06.903 -0400,11935.983901625,0.9268341064453125,0.279998779296875,-0.1517486572265625,1,0.94
2020-05-16 12:57:06.973 -0400,11936.053742625,0.58575439453125,0.3165435791015625,-0.0595550537109375,1,0.94
2020-05-16 12:57:07.043 -0400,11936.123586625,0.6957550048828125,0.3544769287109375,-0.03912353515625,1,0.94
2020-05-16 12:57:07.112 -0400,11936.193431625,1.183578491210938,0.32037353515625,-0.075225830078125,1,0.94
2020-05-16 12:57:07.182 -0400,11936.263278625,1.119735717773438,0.2107696533203125,-0.08331298828125,1,0.94
2020-05-16 12:57:07.252 -0400,11936.333124625,0.8404388427734375,0.3923797607421875,-0.333770751953125,1,0.94
2020-05-16 12:57:07.322 -0400,11936.402970375,1.019607543945312,0.3958892822265625,-0.4225921630859375,1,0.94
2020-05-16 12:57:07.392 -0400,11936.472818375,0.8712921142578125,0.2636871337890625,-0.356201171875,1,0.94
2020-05-16 12:57:07.462 -0400,11936.542666375,0.471527099609375,0.254150390625,-0.2995452880859375,1,0.94
2020-05-16 12:57:07.531 -0400,11936.612511375,0.5316925048828125,0.4811859130859375,-0.229583740234375,1,0.94
2020-05-16 12:57:07.601 -0400,11936.682359375,1.159423828125,0.69482421875,-0.4146575927734375,1,0.94
2020-05-16 12:57:07.671 -0400,11936.752206375,1.209182739257812,0.7906951904296875,-0.4815216064453125,1,0.94
2020-05-16 12:57:07.741 -0400,11936.822056375,1.259170532226562,0.437347412109375,-0.3998870849609375,1,0.94
2020-05-16 12:57:07.811 -0400,11936.891908375,1.260391235351562,0.7297515869140625,-0.324951171875,1,0.94
2020-05-16 12:57:07.881 -0400,11936.961760375,1.210174560546875,0.4850616455078125,-0.249114990234375,1,0.94
2020-05-16 12:57:07.951 -0400,11937.031610375,0.8526611328125,0.2675018310546875,-0.167633056640625,1,0.94
2020-05-16 12:57:08.020 -0400,11937.101460375,0.7464447021484375,0.2880859375,-0.080780029296875,1,0.94
2020-05-16 12:57:08.090 -0400,11937.171308375,0.8338623046875,0.232177734375,-0.060333251953125,1,0.94
2020-05-16 12:57:08.160 -0400,11937.241155375,1.093414306640625,0.2409515380859375,0.025390625,1,0.94
2020-05-16 12:57:08.230 -0400,11937.311001375,0.9394073486328125,0.345611572265625,-0.0357818603515625,1,0.94
2020-05-16 12:57:08.300 -0400,11937.380847875,0.9316864013671875,0.4373779296875,-0.101287841796875,1,0.94
2020-05-16 12:57:08.370 -0400,11937.450691875,1.354415893554688,0.514556884765625,-0.4104156494140625,1,0.94
2020-05-16 12:57:08.440 -0400,11937.520538875,0.6930694580078125,0.1802520751953125,-0.2552337646484375,1,0.94
2020-05-16 12:57:08.509 -0400,11937.590384875,0.492584228515625,0.2347564697265625,-0.31591796875,1,0.94
2020-05-16 12:57:08.579 -0400,11937.660230875,0.7759857177734375,0.6051025390625,-0.4647979736328125,1,0.94
2020-05-16 12:57:08.649 -0400,11937.730073875,1.000991821289062,0.606536865234375,-0.5886383056640625,1,0.94
2020-05-16 12:57:08.719 -0400,11937.799920875,1.208175659179688,0.5382080078125,-0.5218505859375,1,0.94
2020-05-16 12:57:08.789 -0400,11937.869770875,1.414443969726562,0.55194091796875,-0.5455322265625,1,0.94
2020-05-16 12:57:08.859 -0400,11937.939619875,1.629440307617188,0.52294921875,-0.3547515869140625,1,0.94
2020-05-16 12:57:08.928 -0400,11938.009467875,1.250640869140625,0.324462890625,-0.1875152587890625,1,0.94
2020-05-16 12:57:08.998 -0400,11938.079316875,0.67657470703125,0.339141845703125,-0.2040863037109375,1,0.94
2020-05-16 12:57:09.068 -0400,11938.149160875,0.6015167236328125,0.3467254638671875,-0.0636444091796875,1,0.94
2020-05-16 12:57:09.138 -0400,11938.219010875,0.7698211669921875,0.2164764404296875,-0.037017822265625,1,0.94
2020-05-16 12:57:09.208 -0400,11938.288863875,0.9771270751953125,0.172576904296875,0.0376739501953125,1,0.94
2020-05-16 12:57:09.278 -0400,11938.358717,1.016677856445312,0.33184814453125,-0.0879974365234375,1,0.94
2020-05-16 12:57:09.347 -0400,11938.428568,0.971282958984375,0.503326416015625,-0.3985137939453125,1,0.94
2020-05-16 12:57:09.417 -0400,11938.498419,1.49188232421875,0.45501708984375,-0.40789794921875,1,0.94
2020-05-16 12:57:09.487 -0400,11938.56827,0.739532470703125,0.177978515625,-0.3686370849609375,1,0.94
2020-05-16 12:57:09.557 -0400,11938.638123,0.5666046142578125,0.3881683349609375,-0.2050323486328125,1,0.94
2020-05-16 12:57:09.627 -0400,11938.707971,0.7904052734375,0.666473388671875,-0.2682952880859375,1,0.94
2020-05-16 12:57:09.697 -0400,11938.777819,0.9975433349609375,0.8303985595703125,-0.5008544921875,1,0.94
2020-05-16 12:57:09.767 -0400,11938.847672,1.547454833984375,0.859527587890625,-0.504058837890625,1,0.94
2020-05-16 12:57:09.836 -0400,11938.917523,1.400772094726562,0.3813323974609375,-0.418060302734375,1,0.94
2020-05-16 12:57:09.906 -0400,11938.987375,1.554824829101562,0.4436492919921875,-0.273529052734375,1,0.94
2020-05-16 12:57:09.976 -0400,11939.057229,1.065719604492188,0.3184967041015625,-0.2559051513671875,1,0.94
2020-05-16 12:57:10.046 -0400,11939.12708,0.7076873779296875,0.317138671875,-0.0764312744140625,1,0.94
2020-05-16 12:57:10.116 -0400,11939.19693,0.7657470703125,0.330169677734375,-0.010284423828125,1,0.94
2020-05-16 12:57:10.186 -0400,11939.266779,0.959686279296875,0.2214813232421875,0.019195556640625,1,0.94
2020-05-16 12:57:10.265 -0400,11939.336626,0.8145599365234375,0.17425537109375,0.0404510498046875,1,0.94
2020-05-16 12:57:10.326 -0400,11939.40647375,0.955078125,0.37017822265625,-0.0956573486328125,1,0.94
2020-05-16 12:57:10.395 -0400,11939.47632475,1.116043090820312,0.5224609375,-0.415771484375,1,0.94
2020-05-16 12:57:10.465 -0400,11939.54617475,1.464492797851562,0.683746337890625,-0.6866912841796875,1,0.94
2020-05-16 12:57:10.535 -0400,11939.61602975,0.66387939453125,0.0594329833984375,-0.450408935546875,1,0.94
2020-05-16 12:57:10.605 -0400,11939.68587975,0.730865478515625,0.25341796875,-0.40728759765625,1,0.94
2020-05-16 12:57:10.675 -0400,11939.75573175,0.7761993408203125,0.7624359130859375,-0.59674072265625,1,0.94
2020-05-16 12:57:10.745 -0400,11939.82557675,0.841217041015625,0.5924224853515625,-0.6484222412109375,1,0.94
2020-05-16 12:57:10.814 -0400,11939.89542675,1.79254150390625,0.614288330078125,-0.4724273681640625,1,0.94
2020-05-16 12:57:10.884 -0400,11939.96527375,1.571670532226562,0.4589691162109375,-0.43756103515625,1,0.94
2020-05-16 12:57:10.954 -0400,11940.03512375,1.706741333007812,0.4151611328125,-0.2195281982421875,1,0.94
2020-05-16 12:57:11.024 -0400,11940.10497475,0.9275360107421875,0.2774810791015625,-0.2376861572265625,1,0.94
2020-05-16 12:57:11.099 -0400,11940.17482075,0.5630645751953125,0.2858428955078125,-0.108795166015625,1,0.94
2020-05-16 12:57:11.164 -0400,11940.24466975,0.5959930419921875,0.195281982421875,-0.046844482421875,1,0.94
2020-05-16 12:57:11.234 -0400,11940.31451775,0.713348388671875,0.1316680908203125,-0.04644775390625,1,0.94
2020-05-16 12:57:11.303 -0400,11940.384369125,0.639556884765625,0.20941162109375,-0.0509490966796875,1,0.94
2020-05-16 12:57:11.373 -0400,11940.454219125,1.012725830078125,0.465179443359375,-0.20977783203125,1,0.94
2020-05-16 12:57:11.443 -0400,11940.524069125,1.896942138671875,0.8403472900390625,-0.9275970458984375,1,0.94
2020-05-16 12:57:11.513 -0400,11940.593921125,1.095870971679688,0.3262176513671875,-0.484710693359375,1,0.94
2020-05-16 12:57:11.583 -0400,11940.663774125,0.6282196044921875,-0.0891265869140625,-0.35333251953125,1,0.94
2020-05-16 12:57:11.653 -0400,11940.733625125,0.5461578369140625,0.651885986328125,-0.3353424072265625,1,0.94
2020-05-16 12:57:11.722 -0400,11940.803477125,0.644317626953125,0.9081878662109375,-0.4997711181640625,1,0.94
2020-05-16 12:57:11.792 -0400,11940.873329125,1.01678466796875,0.6584014892578125,-0.550384521484375,1,0.94
2020-05-16 12:57:11.862 -0400,11940.943180125,1.88702392578125,0.527313232421875,-0.5013885498046875,1,0.94
2020-05-16 12:57:11.932 -0400,11941.013031125,1.5655517578125,0.4578704833984375,-0.413909912109375,1,0.94
2020-05-16 12:57:12.002 -0400,11941.082883125,1.54022216796875,0.3286590576171875,-0.2557830810546875,1,0.94
2020-05-16 12:57:12.071 -0400,11941.152729125,0.7339324951171875,0.2557830810546875,-0.2125244140625,1,0.94
2020-05-16 12:57:12.142 -0400,11941.222577125,0.47808837890625,0.29461669921875,-0.058807373046875,1,0.94
2020-05-16 12:57:12.211 -0400,11941.292424125,0.602996826171875,0.2369842529296875,-0.0854034423828125,1,0.94
2020-05-16 12:57:12.281 -0400,11941.362271625,0.9131927490234375,0.15875244140625,-0.061370849609375,1,0.94
2020-05-16 12:57:12.351 -0400,11941.432118625,0.785797119140625,0.1832122802734375,-0.185577392578125,1,0.94
2020-05-16 12:57:12.421 -0400,11941.501971625,1.162979125976562,0.388824462890625,-0.3294525146484375,1,0.94
2020-05-16 12:57:12.491 -0400,11941.571823625,1.592193603515625,0.35699462890625,-0.505706787109375,1,0.94
2020-05-16 12:57:12.561 -0400,11941.641674625,1.269378662109375,0.3267364501953125,-0.4327392578125,1,0.94
2020-05-16 12:57:12.630 -0400,11941.711527625,0.866607666015625,0.405242919921875,-0.2884368896484375,1,0.94
2020-05-16 12:57:12.700 -0400,11941.781378625,0.772125244140625,0.7238922119140625,-0.30609130859375,1,0.94
2020-05-16 12:57:12.770 -0400,11941.851228625,0.747161865234375,0.7493743896484375,-0.365966796875,1,0.94
2020-05-16 12:57:12.840 -0400,11941.921078625,1.01275634765625,0.8723602294921875,-0.3538665771484375,1,0.94
2020-05-16 12:57:12.910 -0400,11941.990926625,1.424331665039062,0.6490631103515625,-0.55816650390625,1,0.94
2020-05-16 12:57:12.980 -0400,11942.060775625,1.893325805664062,0.2803802490234375,-0.3012847900390625,1,0.94
2020-05-16 12:57:13.050 -0400,11942.130621625,1.420669555664062,0.2583465576171875,-0.3418731689453125,1,0.94
2020-05-16 12:57:13.120 -0400,11942.200468625,0.78802490234375,0.318939208984375,-0.253753662109375,1,0.94
2020-05-16 12:57:13.189 -0400,11942.270320625,0.7103424072265625,0.2127685546875,-0.1119232177734375,1,0.94
2020-05-16 12:57:13.259 -0400,11942.340174625,0.6910858154296875,0.05767822265625,-0.0530242919921875,1,0.94
2020-05-16 12:57:13.329 -0400,11942.4100275,0.7179718017578125,0.08099365234375,0.0437469482421875,1,0.94
2020-05-16 12:57:13.399 -0400,11942.4798775,0.9424591064453125,0.296478271484375,0.0189208984375,1,0.94
2020-05-16 12:57:13.469 -0400,11942.5497225,1.53594970703125,0.86834716796875,-0.4675140380859375,1,0.94
2020-05-16 12:57:13.538 -0400,11942.6195725,1.6614990234375,0.693328857421875,-0.3402099609375,1,0.94
2020-05-16 12:57:13.608 -0400,11942.6894235,0.7837982177734375,0.3528900146484375,-0.3336334228515625,1,0.94
2020-05-16 12:57:13.679 -0400,11942.7592685,0.7284088134765625,0.440643310546875,-0.2143707275390625,1,0.94
2020-05-16 12:57:13.748 -0400,11942.8291125,0.8622589111328125,0.934356689453125,-0.546295166015625,1,0.94
2020-05-16 12:57:13.818 -0400,11942.8989595,0.84686279296875,0.893951416015625,-0.75543212890625,1,0.94
2020-05-16 12:57:13.888 -0400,11942.9688055,1.528793334960938,0.451080322265625,-0.5347747802734375,1,0.94
2020-05-16 12:57:13.957 -0400,11943.0386555,1.791778564453125,0.3670196533203125,-0.38323974609375,1,0.94
2020-05-16 12:57:14.027 -0400,11943.1085015,1.851348876953125,0.3445587158203125,-0.26715087890625,1,0.94
2020-05-16 12:57:14.097 -0400,11943.1783425,0.8553009033203125,0.3660125732421875,-0.237518310546875,1,0.94
2020-05-16 12:57:14.167 -0400,11943.2481835,0.5093536376953125,0.3812255859375,0.020904541015625,1,0.94
2020-05-16 12:57:14.237 -0400,11943.3180275,0.7097625732421875,0.2855224609375,0.020477294921875,1,0.94
2020-05-16 12:57:14.307 -0400,11943.38787266667,1.013687133789062,0.1291961669921875,0.0975341796875,1,0.94
2020-05-16 12:57:14.376 -0400,11943.45771866667,0.753692626953125,0.15850830078125,0.0272216796875,1,0.94
2020-05-16 12:57:14.446 -0400,11943.52756866667,0.830963134765625,0.467803955078125,-0.0850372314453125,1,0.94
2020-05-16 12:57:14.516 -0400,11943.59741966667,1.6715087890625,0.750579833984375,-0.579071044921875,1,0.94
2020-05-16 12:57:14.586 -0400,11943.66726866667,1.335281372070312,0.3577728271484375,-0.2795867919921875,1,0.94
2020-05-16 12:57:14.661 -0400,11943.73711666667,0.8199920654296875,0.43353271484375,-0.5004425048828125,1,0.94
2020-05-16 12:57:14.726 -0400,11943.80696266667,0.7259674072265625,0.744476318359375,-0.36248779296875,1,0.94
2020-05-16 12:57:14.796 -0400,11943.87680866667,0.96044921875,0.93548583984375,-0.415618896484375,1,0.94
2020-05-16 12:57:14.865 -0400,11943.94665566667,1.113174438476562,0.961395263671875,-0.5211639404296875,1,0.94
2020-05-16 12:57:14.935 -0400,11944.01650166667,1.411895751953125,0.5569915771484375,-0.427703857421875,1,0.94
2020-05-16 12:57:15.005 -0400,11944.08634966667,1.721893310546875,0.50860595703125,-0.2555389404296875,1,0.94
2020-05-16 12:57:15.075 -0400,11944.15620066667,1.42864990234375,0.5037689208984375,-0.3041839599609375,1,0.94
2020-05-16 12:57:15.145 -0400,11944.22605366667,0.8094940185546875,0.3632354736328125,-0.220703125,1,0.94
2020-05-16 12:57:15.215 -0400,11944.29590666667,0.6317901611328125,0.2424468994140625,-0.0591583251953125,1,0.94
2020-05-16 12:57:15.285 -0400,11944.365762125,0.6295928955078125,0.16107177734375,-0.0622711181640625,1,0.94
2020-05-16 12:57:15.355 -0400,11944.435617125,0.768707275390625,0.138946533203125,0.0415496826171875,1,0.94
2020-05-16 12:57:15.424 -0400,11944.505467125,0.6396636962890625,0.2862396240234375,-0.0550079345703125,1,0.94
2020-05-16 12:57:15.494 -0400,11944.575320125,1.141403198242188,0.5733795166015625,-0.1443939208984375,1,0.94
2020-05-16 12:57:15.564 -0400,11944.645170125,2.077850341796875,0.83673095703125,-0.6445465087890625,1,0.94
2020-05-16 12:57:15.634 -0400,11944.715018125,0.796966552734375,0.3156890869140625,-0.318084716796875,1,0.94
2020-05-16 12:57:15.704 -0400,11944.784866125,0.616912841796875,0.2054443359375,-0.21514892578125,1,0.94
2020-05-16 12:57:15.774 -0400,11944.854712125,0.7336578369140625,0.792083740234375,-0.3779754638671875,1,0.94
2020-05-16 12:57:15.844 -0400,11944.924557125,0.8388824462890625,0.85699462890625,-0.63970947265625,1,0.94
2020-05-16 12:57:15.913 -0400,11944.994403125,1.18084716796875,0.47979736328125,-0.4373626708984375,1,0.94
2020-05-16 12:57:15.983 -0400,11945.064252125,1.177230834960938,0.3622283935546875,-0.2786102294921875,1,0.94
2020-05-16 12:57:16.053 -0400,11945.134104125,1.70989990234375,0.8126983642578125,-0.3221893310546875,1,0.94
2020-05-16 12:57:16.123 -0400,11945.203953125,1.077713012695312,0.48614501953125,-0.28778076171875,1,0.94
2020-05-16 12:57:16.193 -0400,11945.273805125,0.715118408203125,0.37384033203125,-0.1407928466796875,1,0.94
2020-05-16 12:57:16.263 -0400,11945.343660125,0.795318603515625,0.270416259765625,-0.01373291015625,1,0.94
2020-05-16 12:57:16.333 -0400,11945.41351691667,0.9246673583984375,0.127593994140625,-0.044189453125,1,0.94
2020-05-16 12:57:16.402 -0400,11945.48337391667,0.9547119140625,0.19268798828125,0.0507049560546875,1,0.94
2020-05-16 12:57:16.472 -0400,11945.55322991667,0.74420166015625,0.358123779296875,-0.1446075439453125,1,0.94
2020-05-16 12:57:16.542 -0400,11945.62308791667,0.990081787109375,0.42724609375,-0.27044677734375,1,0.94
2020-05-16 12:57:16.612 -0400,11945.69294191667,1.537322998046875,0.4443359375,-0.51513671875,1,0.94
2020-05-16 12:57:16.682 -0400,11945.76279591667,0.9432373046875,0.0986785888671875,-0.1459503173828125,1,0.94
2020-05-16 12:57:16.752 -0400,11945.83264891667,0.703948974609375,0.346099853515625,-0.2281341552734375,1,0.94
2020-05-16 12:57:16.821 -0400,11945.90249691667,0.697418212890625,0.7717437744140625,-0.1831207275390625,1,0.94
2020-05-16 12:57:16.891 -0400,11945.97234491667,0.8399505615234375,0.8224029541015625,-0.434417724609375,1,0.94
2020-05-16 12:57:16.961 -0400,11946.04219291667,1.10888671875,0.8177490234375,-0.4634552001953125,1,0.94
2020-05-16 12:57:17.031 -0400,11946.11204091667,1.464736938476562,0.560516357421875,-0.404327392578125,1,0.94
2020-05-16 12:57:17.101 -0400,11946.18188691667,1.407638549804688,0.6062164306640625,-0.3687286376953125,1,0.94
2020-05-16 12:57:17.170 -0400,11946.25173491667,1.589462280273438,0.544647216796875,-0.273895263671875,1,0.94
2020-05-16 12:57:17.270 -0400,11946.31662791667,0.91204833984375,0.31744384765625,-0.2017364501953125,1,0.94
2020-05-16 12:57:17.301 -0400,11946.38160525,0.6745147705078125,0.3337249755859375,-0.090576171875,1,0.94
2020-05-16 12:57:17.366 -0400,11946.44658025,0.6563568115234375,0.2277984619140625,-0.02252197265625,1,0.94
2020-05-16 12:57:17.431 -0400,11946.51155525,0.778778076171875,0.1848907470703125,-0.0045318603515625,1,0.94
2020-05-16 12:57:17.495 -0400,11946.57653025,0.9141693115234375,0.2113800048828125,0.0666656494140625,1,0.94
2020-05-16 12:57:17.560 -0400,11946.64150625,0.9154205322265625,0.3608551025390625,-0.0863800048828125,1,0.94
2020-05-16 12:57:17.625 -0400,11946.70648125,0.91668701171875,0.5870208740234375,-0.3470611572265625,1,0.94
2020-05-16 12:57:17.690 -0400,11946.77145625,1.815032958984375,0.53729248046875,-0.586944580078125,1,0.94
2020-05-16 12:57:17.756 -0400,11946.83643125,0.921875,-0.0242462158203125,-0.3951263427734375,1,0.94
2020-05-16 12:57:17.820 -0400,11946.90140725,0.6396331787109375,0.224517822265625,-0.366241455078125,1,0.94
2020-05-16 12:57:17.886 -0400,11946.96638225,0.616851806640625,0.7360382080078125,-0.31744384765625,1,0.94
2020-05-16 12:57:17.950 -0400,11947.03135725,0.718109130859375,0.8202972412109375,-0.404327392578125,1,0.94
2020-05-16 12:57:18.015 -0400,11947.09633225,0.879486083984375,0.8029937744140625,-0.4486236572265625,1,0.94
2020-05-16 12:57:18.080 -0400,11947.16130825,1.284500122070312,0.9821624755859375,-0.2889556884765625,1,0.94
2020-05-16 12:57:18.145 -0400,11947.22628325,1.1365966796875,0.931182861328125,-0.3799896240234375,1,0.94
2020-05-16 12:57:18.210 -0400,11947.29125825,1.92681884765625,1.229522705078125,-0.350830078125,1,0.94
2020-05-16 12:57:18.275 -0400,11947.3562345,1.744491577148438,0.66888427734375,-0.449676513671875,1,0.94
2020-05-16 12:57:18.340 -0400,11947.4212095,1.031829833984375,0.436920166015625,-0.2227783203125,1,0.94
2020-05-16 12:57:18.405 -0400,11947.4861845,0.7579193115234375,0.2861480712890625,-0.23968505859375,1,0.94
2020-05-16 12:57:18.470 -0400,11947.5511595,0.399444580078125,0.14776611328125,-0.1951751708984375,1,0.94
2020-05-16 12:57:18.535 -0400,11947.6161355,0.165802001953125,-0.228363037109375,-0.2633819580078125,1,0.94
2020-05-16 12:57:18.600 -0400,11947.6811105,0.05364990234375,-0.34857177734375,-0.666900634765625,1,0.94
2020-05-16 12:57:18.665 -0400,11947.7460855,-0.007232666015625,-0.2807769775390625,-1.180892944335938,1,0.94
2020-05-16 12:57:18.751 -0400,11947.8110615,0.0780181884765625,-0.2398681640625,-1.160614013671875,1,0.94
2020-05-16 12:57:18.800 -0400,11947.8810345,0.115509033203125,-0.331787109375,-1.116287231445312,1,0.94
2020-05-16 12:57:18.870 -0400,11947.9510075,-0.0811767578125,-0.2478179931640625,-0.7889404296875,1,0.94
2020-05-16 12:57:18.940 -0400,11948.0209815,-0.270965576171875,-0.1297760009765625,-0.539764404296875,1,0.94
2020-05-16 12:57:19.010 -0400,11948.0909545,-0.2023773193359375,-0.31634521484375,-0.73101806640625,1,0.94
2020-05-16 12:57:19.080 -0400,11948.1609285,-0.243408203125,-0.33551025390625,-1.0079345703125,1,0.94
2020-05-16 12:57:19.150 -0400,11948.2309015,-0.2476654052734375,-0.252197265625,-1.016357421875,1,0.94
2020-05-16 12:57:19.220 -0400,11948.3008755,-0.3238983154296875,-0.37542724609375,-1.140823364257812,1,0.94
