loggingTime(txt),accelerometerTimestamp_sinceReboot(s),accelerometerAccelerationX(G),accelerometerAccelerationY(G),accelerometerAccelerationZ(G),batteryState,batteryLevel
2020-05-16 12:12:39.215 -0400,9589.391247041667,0.33380126953125,-0.101715087890625,-1.247116088867188,1,0.99
2020-05-16 12:12:39.335 -0400,9589.510977041668,0.1512451171875,0.0072174072265625,-1.184097290039062,1,0.99
2020-05-16 12:12:39.454 -0400,9589.630697041668,0.1153717041015625,0.0323486328125,-0.649658203125,1,0.99
2020-05-16 12:12:39.574 -0400,9589.750423041667,0.21661376953125,-0.05596923828125,-0.5780029296875,1,0.99
2020-05-16 12:12:39.694 -0400,9589.870147041667,0.7359771728515625,0.118316650390625,-0.6177978515625,1,0.99
2020-05-16 12:12:39.814 -0400,9589.989871041667,1.0653076171875,0.9109039306640625,-1.217544555664062,1,0.99
2020-05-16 12:12:39.934 -0400,9590.109604041667,0.398468017578125,0.9505462646484375,-0.9015655517578125,1,0.99
2020-05-16 12:12:40.053 -0400,9590.229329041667,0.120391845703125,0.5706939697265625,-0.4593658447265625,1,0.99
2020-05-16 12:12:40.213 -0400,9590.388960041668,0.3133544921875,0.7147369384765625,-0.604339599609375,1,0.99
2020-05-16 12:12:40.284 -0400,9590.458802041667,0.4307098388671875,0.78338623046875,-0.780670166015625,1,0.99
2020-05-16 12:12:40.353 -0400,9590.528646041666,0.6374969482421875,1.282470703125,-1.068008422851562,1,0.99
2020-05-16 12:12:40.422 -0400,9590.598487041667,0.7767791748046875,-0.5809783935546875,-0.98577880859375,1,0.99
2020-05-16 12:12:40.492 -0400,9590.668329041668,1.106842041015625,0.574066162109375,-1.250656127929688,1,0.99
2020-05-16 12:12:40.562 -0400,9590.738173041667,0.470306396484375,0.7520599365234375,-0.9088592529296875,1,0.99
2020-05-16 12:12:40.632 -0400,9590.808013041667,0.06719970703125,0.3461151123046875,-0.417083740234375,1,0.99
2020-05-16 12:12:40.702 -0400,9590.877852875001,0.0030975341796875,0.099090576171875,-0.1617889404296875,1,0.99
2020-05-16 12:12:40.772 -0400,9590.947693875001,0.0395660400390625,0.23223876953125,-0.0956268310546875,1,0.99
2020-05-16 12:12:40.841 -0400,9591.017535875,0.1228179931640625,0.2486114501953125,-0.0862579345703125,1,0.99
2020-05-16 12:12:40.911 -0400,9591.087378875001,0.3559417724609375,0.5828704833984375,-0.16131591796875,1,0.99
2020-05-16 12:12:40.981 -0400,9591.157223875001,0.4857330322265625,0.49481201171875,-0.144683837890625,1,0.99
2020-05-16 12:12:41.051 -0400,9591.227071875001,0.6039276123046875,1.009063720703125,-0.4706268310546875,1,0.99
2020-05-16 12:12:41.121 -0400,9591.296919875,2.155502319335938,1.741622924804688,-0.6958770751953125,1,0.99
2020-05-16 12:12:41.191 -0400,9591.366764875,1.128662109375,1.27593994140625,-0.9898834228515625,1,0.99
2020-05-16 12:12:41.260 -0400,9591.436603875001,0.6548004150390625,0.793121337890625,-0.487640380859375,1,0.99
2020-05-16 12:12:41.330 -0400,9591.506438875,0.3453521728515625,0.429412841796875,0.035980224609375,1,0.99
2020-05-16 12:12:41.400 -0400,9591.576278875,0.34161376953125,0.6436004638671875,-0.161285400390625,1,0.99
2020-05-16 12:12:41.470 -0400,9591.646114875,0.193206787109375,0.622650146484375,-0.164276123046875,1,0.99
2020-05-16 12:12:41.540 -0400,9591.715947875,0.1741790771484375,0.3535308837890625,-0.3026580810546875,1,0.99
2020-05-16 12:12:41.610 -0400,9591.785781875,0.1671142578125,0.62359619140625,-0.162017822265625,1,0.99
2020-05-16 12:12:41.679 -0400,9591.855615875,0.2568511962890625,1.900238037109375,0.4076690673828125,1,0.99
2020-05-16 12:12:41.749 -0400,9591.925450875,0.974365234375,1.739028930664062,0.032012939453125,1,0.99
2020-05-16 12:12:41.819 -0400,9591.995284875,0.8060760498046875,1.410415649414062,-0.0957794189453125,1,0.99
2020-05-16 12:12:41.889 -0400,9592.065118875,0.499481201171875,0.79278564453125,-0.23382568359375,1,0.99
2020-05-16 12:12:41.959 -0400,9592.134952875,0.3623046875,0.4075927734375,-0.1158599853515625,1,0.99
2020-05-16 12:12:42.029 -0400,9592.204789875001,0.2682952880859375,0.2611541748046875,-0.142608642578125,1,0.99
2020-05-16 12:12:42.098 -0400,9592.274626875,0.271453857421875,0.1865692138671875,-0.1905975341796875,1,0.99
2020-05-16 12:12:42.168 -0400,9592.344457875,0.63116455078125,0.1942291259765625,-0.2125091552734375,1,0.99
2020-05-16 12:12:42.238 -0400,9592.414291875,1.703475952148438,0.5821380615234375,-0.6091461181640625,1,0.99
2020-05-16 12:12:42.308 -0400,9592.484126875001,1.835098266601562,0.6715240478515625,-0.4595184326171875,1,0.99
2020-05-16 12:12:42.378 -0400,9592.553964875,1.412261962890625,0.5485687255859375,-0.600006103515625,1,0.99
2020-05-16 12:12:42.448 -0400,9592.623800875001,0.897216796875,0.69720458984375,-0.1846923828125,1,0.99
2020-05-16 12:12:42.518 -0400,9592.693639875,0.5054168701171875,0.4566802978515625,-0.1554412841796875,1,0.99
2020-05-16 12:12:42.587 -0400,9592.763473875,0.3735809326171875,0.46197509765625,-0.143310546875,1,0.99
2020-05-16 12:12:42.657 -0400,9592.833310875001,0.4610595703125,0.474456787109375,-0.1598663330078125,1,0.99
2020-05-16 12:12:42.727 -0400,9592.903147916668,0.6888885498046875,0.560821533203125,-0.2273406982421875,1,0.99
2020-05-16 12:12:42.797 -0400,9592.972982916668,0.7654571533203125,0.52410888671875,-0.338623046875,1,0.99
2020-05-16 12:12:42.867 -0400,9593.042819916667,2.363540649414062,1.116378784179688,-0.6520538330078125,1,0.99
2020-05-16 12:12:42.936 -0400,9593.112653916667,1.673843383789062,0.836029052734375,-0.8010406494140625,1,0.99
2020-05-16 12:12:43.006 -0400,9593.182487916667,1.243698120117188,0.1767730712890625,-0.4592742919921875,1,0.99
2020-05-16 12:12:43.076 -0400,9593.252318916668,0.671356201171875,0.14111328125,-0.2790374755859375,1,0.99
2020-05-16 12:12:43.146 -0400,9593.322154916666,0.5934600830078125,0.2014617919921875,-0.205474853515625,1,0.99
2020-05-16 12:12:43.216 -0400,9593.391989916667,0.545989990234375,0.198089599609375,-0.1409454345703125,1,0.99
2020-05-16 12:12:43.286 -0400,9593.461825916667,0.496978759765625,0.181915283203125,-0.108489990234375,1,0.99
2020-05-16 12:12:43.367 -0400,9593.531662916666,0.66107177734375,0.29254150390625,-0.2736053466796875,1,0.99
2020-05-16 12:12:43.425 -0400,9593.601502916667,1.203887939453125,0.8423919677734375,-0.417755126953125,1,0.99
2020-05-16 12:12:43.495 -0400,9593.671339916667,1.221786499023438,0.9488983154296875,-0.9662017822265625,1,0.99
2020-05-16 12:12:43.565 -0400,9593.741174916668,1.211013793945312,0.4651641845703125,-0.5658111572265625,1,0.99
2020-05-16 12:12:43.635 -0400,9593.811009916668,0.7630462646484375,0.59423828125,-0.4423980712890625,1,0.99
2020-05-16 12:12:43.705 -0400,9593.880846125001,0.37603759765625,0.5587005615234375,-0.4144287109375,1,0.99
2020-05-16 12:12:43.775 -0400,9593.950681125001,0.2675628662109375,0.588592529296875,-0.3044281005859375,1,0.99
2020-05-16 12:12:43.845 -0400,9594.020515125001,0.663909912109375,0.897918701171875,-0.275390625,1,0.99
2020-05-16 12:12:43.914 -0400,9594.090345125001,1.299423217773438,0.7991485595703125,-0.3019866943359375,1,0.99
2020-05-16 12:12:43.984 -0400,9594.160177125001,2.253677368164062,0.58282470703125,-0.010406494140625,1,0.99
2020-05-16 12:12:44.054 -0400,9594.230012125001,1.829864501953125,0.5105438232421875,-0.3656158447265625,1,0.99
2020-05-16 12:12:44.124 -0400,9594.299853125001,1.064208984375,0.419036865234375,-0.2806549072265625,1,0.99
2020-05-16 12:12:44.193 -0400,9594.369690125,0.746551513671875,0.3159027099609375,-0.0747222900390625,1,0.99
2020-05-16 12:12:44.263 -0400,9594.439529125,0.522918701171875,0.1635589599609375,-0.0248260498046875,1,0.99
2020-05-16 12:12:44.333 -0400,9594.509372125001,0.5433197021484375,0.054931640625,-0.05426025390625,1,0.99
2020-05-16 12:12:44.403 -0400,9594.579212125,0.4926300048828125,0.029327392578125,-0.10894775390625,1,0.99
2020-05-16 12:12:44.473 -0400,9594.649048125,0.837982177734375,1.435821533203125,-0.3814849853515625,1,0.99
2020-05-16 12:12:44.543 -0400,9594.718889125001,1.042984008789062,1.299819946289062,-0.9453277587890625,1,0.99
2020-05-16 12:12:44.613 -0400,9594.788730125001,1.028884887695312,0.1462554931640625,-0.463134765625,1,0.99
2020-05-16 12:12:44.682 -0400,9594.858574125001,1.025894165039062,0.860931396484375,-0.1829681396484375,1,0.99
2020-05-16 12:12:44.752 -0400,9594.928413291667,0.60784912109375,0.9864501953125,-0.0523681640625,1,0.99
2020-05-16 12:12:44.822 -0400,9594.998249291668,0.5136566162109375,0.7872772216796875,0.1062164306640625,1,0.99
2020-05-16 12:12:44.892 -0400,9595.068091291667,0.53509521484375,0.9622650146484375,0.335784912109375,1,0.99
2020-05-16 12:12:44.962 -0400,9595.137930291667,1.712188720703125,1.724258422851562,0.083892822265625,1,0.99
2020-05-16 12:12:45.032 -0400,9595.207764291667,2.484405517578125,0.6674652099609375,-0.0816497802734375,1,0.99
2020-05-16 12:12:45.101 -0400,9595.277600291667,1.887664794921875,0.6110076904296875,-0.057403564453125,1,0.99
2020-05-16 12:12:45.172 -0400,9595.347436291668,1.253753662109375,0.5671539306640625,-0.07275390625,1,0.99
2020-05-16 12:12:45.241 -0400,9595.417276291668,0.7890472412109375,0.136688232421875,0.0680389404296875,1,0.99
2020-05-16 12:12:45.311 -0400,9595.487116291668,0.5501251220703125,0.006317138671875,0.0660552978515625,1,0.99
2020-05-16 12:12:45.381 -0400,9595.556959291667,0.537017822265625,0.0137786865234375,0.0665740966796875,1,0.99
2020-05-16 12:12:45.451 -0400,9595.626799291667,0.4414215087890625,0.238861083984375,-0.032073974609375,1,0.99
2020-05-16 12:12:45.521 -0400,9595.696639291667,0.633575439453125,1.084075927734375,-0.499786376953125,1,0.99
2020-05-16 12:12:45.591 -0400,9595.766478291667,0.8778839111328125,1.039260864257812,-0.7621307373046875,1,0.99
2020-05-16 12:12:45.660 -0400,9595.836315291668,1.04718017578125,0.6792144775390625,-0.5126953125,1,0.99
2020-05-16 12:12:45.730 -0400,9595.90615325,0.903594970703125,0.755706787109375,-0.3647003173828125,1,0.99
2020-05-16 12:12:45.800 -0400,9595.975991250001,0.7074127197265625,1.033935546875,-0.1562652587890625,1,0.99
2020-05-16 12:12:45.870 -0400,9596.045830250001,0.2908477783203125,0.9155426025390625,-0.13232421875,1,0.99
2020-05-16 12:12:45.940 -0400,9596.115669250001,-0.308135986328125,0.7753753662109375,-0.1273193359375,1,0.99
2020-05-16 12:12:46.009 -0400,9596.185509250001,0.9562225341796875,2.091629028320312,-0.41455078125,1,0.99
2020-05-16 12:12:46.079 -0400,9596.255349250001,2.517303466796875,1.182952880859375,-0.167633056640625,1,0.99
2020-05-16 12:12:46.149 -0400,9596.325190250001,2.57177734375,0.299102783203125,0.040252685546875,1,0.99
2020-05-16 12:12:46.219 -0400,9596.395029250001,1.1419677734375,0.2491302490234375,0.219635009765625,1,0.99
2020-05-16 12:12:46.289 -0400,9596.46487025,0.49822998046875,-0.15655517578125,0.4290008544921875,1,0.99
2020-05-16 12:12:46.359 -0400,9596.534709250001,0.3736419677734375,-0.384918212890625,0.3288116455078125,1,0.99
2020-05-16 12:12:46.428 -0400,9596.60454425,0.2021636962890625,-0.5233001708984375,-0.21392822265625,1,0.99
2020-05-16 12:12:46.498 -0400,9596.674382250001,1.314651489257812,2.2135009765625,-0.0155029296875,1,0.99
2020-05-16 12:12:46.568 -0400,9596.744221250001,1.169265747070312,2.7552490234375,-1.289138793945312,1,0.99
2020-05-16 12:12:46.638 -0400,9596.81405725,0.3353271484375,1.285232543945312,0.03509521484375,1,0.99
2020-05-16 12:12:46.708 -0400,9596.883892875001,0.1131134033203125,1.0960693359375,-0.0455474853515625,1,0.99
2020-05-16 12:12:46.778 -0400,9596.953729875,-0.190216064453125,0.4858551025390625,-0.114959716796875,1,0.99
2020-05-16 12:12:46.847 -0400,9597.023567875001,-0.3211669921875,-0.28240966796875,-0.370452880859375,1,0.99
2020-05-16 12:12:46.917 -0400,9597.093402875,-0.521148681640625,0.4095611572265625,0.0120849609375,1,0.99
2020-05-16 12:12:46.987 -0400,9597.163240875001,0.76043701171875,2.744644165039062,-0.57147216796875,1,0.99
2020-05-16 12:12:47.057 -0400,9597.233078875001,1.939849853515625,1.880386352539062,-0.3495330810546875,1,0.99
2020-05-16 12:12:47.127 -0400,9597.302920875001,0.7350311279296875,0.6981048583984375,-0.330657958984375,1,0.99
2020-05-16 12:12:47.197 -0400,9597.372759875001,0.424224853515625,0.1382293701171875,-0.154327392578125,1,0.99
2020-05-16 12:12:47.267 -0400,9597.442598875001,0.214385986328125,0.0637359619140625,-0.01715087890625,1,0.99
2020-05-16 12:12:47.336 -0400,9597.512432875001,0.218048095703125,0.0029296875,-0.0912322998046875,1,0.99
2020-05-16 12:12:47.406 -0400,9597.582274875,0.3297119140625,-0.12371826171875,-0.0025482177734375,1,0.99
2020-05-16 12:12:47.476 -0400,9597.652119875,3.115203857421875,3.003433227539062,0.5484771728515625,1,0.99
2020-05-16 12:12:47.546 -0400,9597.721963875001,2.118240356445312,0.492523193359375,-1.087005615234375,1,0.99
2020-05-16 12:12:47.616 -0400,9597.791806875,1.504669189453125,1.261978149414062,-0.2864990234375,1,0.99
2020-05-16 12:12:47.685 -0400,9597.861646875001,0.523040771484375,0.205169677734375,-0.1746368408203125,1,0.99
2020-05-16 12:12:47.755 -0400,9597.93148725,0.1859130859375,0.19415283203125,-0.349395751953125,1,0.99
2020-05-16 12:12:47.825 -0400,9598.001329250001,0.2777252197265625,0.8667144775390625,-0.361358642578125,1,0.99
2020-05-16 12:12:47.895 -0400,9598.07117125,1.412033081054688,1.208877563476562,-0.2973175048828125,1,0.99
2020-05-16 12:12:47.965 -0400,9598.14100725,1.877166748046875,0.2751312255859375,-0.0286102294921875,1,0.99
2020-05-16 12:12:48.035 -0400,9598.21084025,2.157241821289062,0.470123291015625,-0.12762451171875,1,0.99
2020-05-16 12:12:48.104 -0400,9598.28067625,1.537063598632812,0.8442840576171875,0.0008544921875,1,0.99
2020-05-16 12:12:48.175 -0400,9598.350508250001,1.146148681640625,0.1926116943359375,0.049896240234375,1,0.99
2020-05-16 12:12:48.244 -0400,9598.420340250001,0.7542572021484375,-0.1511383056640625,0.1153717041015625,1,0.99
2020-05-16 12:12:48.314 -0400,9598.49017725,0.326690673828125,-0.093292236328125,0.060638427734375,1,0.99
2020-05-16 12:12:48.384 -0400,9598.560015250001,-0.0428009033203125,0.0476531982421875,-0.0062103271484375,1,0.99
2020-05-16 12:12:48.454 -0400,9598.629854250001,-0.1259918212890625,0.0444183349609375,-0.0541839599609375,1,0.99
2020-05-16 12:12:48.524 -0400,9598.699690250001,2.97308349609375,1.771896362304688,-0.086639404296875,1,0.99
2020-05-16 12:12:48.593 -0400,9598.76952525,2.512451171875,0.6224365234375,-0.97711181640625,1,0.99
2020-05-16 12:12:48.663 -0400,9598.839362250001,1.050537109375,1.191619873046875,-0.3202667236328125,1,0.99
2020-05-16 12:12:48.733 -0400,9598.909202416668,0.5298004150390625,0.5776824951171875,-0.4327850341796875,1,0.99
2020-05-16 12:12:48.803 -0400,9598.979035416667,0.191986083984375,0.6237640380859375,-0.2869415283203125,1,0.99
2020-05-16 12:12:48.873 -0400,9599.048873416667,0.4060516357421875,0.6873931884765625,-0.430694580078125,1,0.99
2020-05-16 12:12:48.943 -0400,9599.118708416667,0.861572265625,0.433807373046875,-0.358978271484375,1,0.99
2020-05-16 12:12:49.012 -0400,9599.188540416668,1.007415771484375,0.358184814453125,-0.1840057373046875,1,0.99
2020-05-16 12:12:49.082 -0400,9599.258377416667,3.187149047851562,0.533294677734375,-0.0489654541015625,1,0.99
2020-05-16 12:12:49.152 -0400,9599.328211416667,2.045700073242188,0.4592742919921875,-0.6068572998046875,1,0.99
2020-05-16 12:12:49.222 -0400,9599.398052416667,1.086715698242188,0.56964111328125,0.0353546142578125,1,0.99
2020-05-16 12:12:49.292 -0400,9599.467887416668,0.45977783203125,0.332244873046875,-0.01361083984375,1,0.99
2020-05-16 12:12:49.362 -0400,9599.537724416667,0.2894134521484375,0.0675048828125,0.06549072265625,1,0.99
2020-05-16 12:12:49.431 -0400,9599.607562416668,0.224334716796875,0.0545501708984375,0.0758209228515625,1,0.99
2020-05-16 12:12:49.501 -0400,9599.677399416667,0.145660400390625,0.1368560791015625,0.036224365234375,1,0.99
2020-05-16 12:12:49.571 -0400,9599.747235416668,0.311981201171875,0.366668701171875,0.045562744140625,1,0.99
2020-05-16 12:12:49.641 -0400,9599.817071416668,1.680740356445312,0.8373565673828125,-0.372100830078125,1,0.99
2020-05-16 12:12:49.711 -0400,9599.886906,1.71710205078125,0.5910797119140625,-0.9676055908203125,1,0.99
2020-05-16 12:12:49.781 -0400,9599.956741,1.48699951171875,0.337158203125,-0.5259246826171875,1,0.99
2020-05-16 12:12:49.850 -0400,9600.026577000001,0.993499755859375,0.3102874755859375,-0.41693115234375,1,0.99
2020-05-16 12:12:49.920 -0400,9600.096415,0.5302276611328125,0.5296630859375,-0.460418701171875,1,0.99
2020-05-16 12:12:49.990 -0400,9600.166251000001,0.277801513671875,0.5709991455078125,-0.5089569091796875,1,0.99
2020-05-16 12:12:50.060 -0400,9600.236092000001,0.3819580078125,0.4944915771484375,-0.4405670166015625,1,0.99
2020-05-16 12:12:50.130 -0400,9600.305933000001,1.195541381835938,0.35791015625,-0.29034423828125,1,0.99
2020-05-16 12:12:50.199 -0400,9600.375773,1.816604614257812,0.6985321044921875,0.130126953125,1,0.99
2020-05-16 12:12:50.270 -0400,9600.445612000001,2.003677368164062,0.3272705078125,-0.2654571533203125,1,0.99
2020-05-16 12:12:50.339 -0400,9600.515449,1.169509887695312,0.5975341796875,-0.0477294921875,1,0.99
2020-05-16 12:12:50.409 -0400,9600.585288,0.716339111328125,0.391815185546875,0.1243743896484375,1,0.99
2020-05-16 12:12:50.479 -0400,9600.655127,0.428466796875,0.052764892578125,0.14984130859375,1,0.99
2020-05-16 12:12:50.549 -0400,9600.724963000001,0.29345703125,-0.02777099609375,0.12957763671875,1,0.99
2020-05-16 12:12:50.618 -0400,9600.794802,0.52728271484375,0.0447540283203125,0.13818359375,1,0.99
2020-05-16 12:12:50.688 -0400,9600.864641,1.330245971679688,1.33013916015625,-0.291229248046875,1,0.99
2020-05-16 12:12:50.758 -0400,9600.934481291668,1.420242309570312,0.49554443359375,-0.84783935546875,1,0.99
2020-05-16 12:12:50.828 -0400,9601.004323291667,1.292160034179688,0.0540618896484375,-0.0683135986328125,1,0.99
2020-05-16 12:12:50.898 -0400,9601.074168291667,0.62939453125,0.550384521484375,-0.261749267578125,1,0.99
2020-05-16 12:12:50.968 -0400,9601.144011291668,0.589263916015625,0.5318603515625,-0.37310791015625,1,0.99
2020-05-16 12:12:51.038 -0400,9601.213851291668,0.4825592041015625,0.645233154296875,-0.394622802734375,1,0.99
2020-05-16 12:12:51.108 -0400,9601.283688291667,0.572052001953125,0.7064971923828125,-0.3666839599609375,1,0.99
2020-05-16 12:12:51.177 -0400,9601.353529291668,0.8607330322265625,0.482025146484375,-0.2821197509765625,1,0.99
2020-05-16 12:12:51.247 -0400,9601.423372291667,2.977951049804688,0.65814208984375,-0.281280517578125,1,0.99
2020-05-16 12:12:51.317 -0400,9601.493216291667,1.901123046875,0.101837158203125,-0.4980010986328125,1,0.99
2020-05-16 12:12:51.387 -0400,9601.563059291668,1.234054565429688,0.7451934814453125,-0.2162322998046875,1,0.99
2020-05-16 12:12:51.457 -0400,9601.632902291667,0.8048095703125,0.316162109375,-0.151885986328125,1,0.99
2020-05-16 12:12:51.526 -0400,9601.702747291667,0.5219879150390625,-0.108306884765625,0.0336456298828125,1,0.99
2020-05-16 12:12:51.596 -0400,9601.772592291667,0.274017333984375,-0.1228179931640625,0.029815673828125,1,0.99
2020-05-16 12:12:51.666 -0400,9601.842439291668,0.09869384765625,0.0460205078125,0.0677642822265625,1,0.99
2020-05-16 12:12:51.736 -0400,9601.912278791668,1.054489135742188,1.30413818359375,-0.0716094970703125,1,0.99
2020-05-16 12:12:51.806 -0400,9601.982124791668,1.60845947265625,0.6106719970703125,-0.852935791015625,1,0.99
2020-05-16 12:12:51.876 -0400,9602.051968791668,1.331008911132812,0.795989990234375,-0.0608367919921875,1,0.99
2020-05-16 12:12:51.945 -0400,9602.121809791668,0.8867645263671875,0.6322174072265625,-0.3228302001953125,1,0.99
2020-05-16 12:12:52.015 -0400,9602.191649791666,0.796112060546875,0.44158935546875,-0.3848724365234375,1,0.99
2020-05-16 12:12:52.085 -0400,9602.261488791668,0.57086181640625,0.514678955078125,-0.3041534423828125,1,0.99
2020-05-16 12:12:52.155 -0400,9602.331330791667,0.5010986328125,0.6235809326171875,-0.259246826171875,1,0.99
2020-05-16 12:12:52.225 -0400,9602.401169791667,0.88629150390625,0.6073455810546875,-0.377532958984375,1,0.99
2020-05-16 12:12:52.295 -0400,9602.471009791667,1.647216796875,0.4972686767578125,-0.443084716796875,1,0.99
2020-05-16 12:12:52.365 -0400,9602.540850791667,1.437255859375,0.7625732421875,-0.836395263671875,1,0.99
2020-05-16 12:12:52.435 -0400,9602.610691791668,1.520111083984375,-0.7487335205078125,-0.1185150146484375,1,0.99
2020-05-16 12:12:52.504 -0400,9602.680526791668,0.7294921875,0.3513641357421875,0.000762939453125,1,0.99
2020-05-16 12:12:52.574 -0400,9602.750364791667,0.5607452392578125,0.6235198974609375,0.0925750732421875,1,0.99
2020-05-16 12:12:52.644 -0400,9602.820204791667,0.5061798095703125,0.315155029296875,0.0835418701171875,1,0.99
2020-05-16 12:12:52.714 -0400,9602.890045666667,0.4041595458984375,0.0667572021484375,0.021820068359375,1,0.99
2020-05-16 12:12:52.784 -0400,9602.959885666667,0.84033203125,0.26556396484375,0.02764892578125,1,0.99
2020-05-16 12:12:52.854 -0400,9603.029727666668,1.637863159179688,0.9515228271484375,-0.2691497802734375,1,0.99
2020-05-16 12:12:52.924 -0400,9603.099564666667,1.491744995117188,0.6977386474609375,-0.7003326416015625,1,0.99
2020-05-16 12:12:52.993 -0400,9603.169404666667,0.9678497314453125,0.3060150146484375,-0.45074462890625,1,0.99
2020-05-16 12:12:53.063 -0400,9603.239242666667,0.7064056396484375,0.1575469970703125,-0.4176788330078125,1,0.99
2020-05-16 12:12:53.133 -0400,9603.309079666667,0.3785858154296875,0.475067138671875,-0.5328521728515625,1,0.99
2020-05-16 12:12:53.203 -0400,9603.378915666668,0.278839111328125,0.5967559814453125,-0.4371795654296875,1,0.99
2020-05-16 12:12:53.273 -0400,9603.448753666667,1.06414794921875,0.6118621826171875,-0.3664398193359375,1,0.99
2020-05-16 12:12:53.350 -0400,9603.518590666667,1.83441162109375,0.4568634033203125,0.197174072265625,1,0.99
2020-05-16 12:12:53.412 -0400,9603.588426666667,1.557754516601562,0.2131195068359375,-0.38055419921875,1,0.99
2020-05-16 12:12:53.482 -0400,9603.658261666667,1.088287353515625,0.840179443359375,-0.0465240478515625,1,0.99
2020-05-16 12:12:53.552 -0400,9603.728098666666,0.6464080810546875,0.3216552734375,0.0543212890625,1,0.99
2020-05-16 12:12:53.622 -0400,9603.797935666667,0.3530731201171875,0.07574462890625,0.0455322265625,1,0.99
2020-05-16 12:12:53.692 -0400,9603.867769666667,0.2785186767578125,0.1805419921875,-0.0001373291015625,1,0.99
2020-05-16 12:12:53.762 -0400,9603.937606291667,0.5214996337890625,0.2117767333984375,0.02777099609375,1,0.99
2020-05-16 12:12:53.831 -0400,9604.007443291668,1.051177978515625,0.1835174560546875,0.0587005615234375,1,0.99
2020-05-16 12:12:53.901 -0400,9604.077276291668,1.721221923828125,0.9576416015625,-0.2268524169921875,1,0.99
2020-05-16 12:12:53.971 -0400,9604.147110291668,1.962814331054688,1.066558837890625,-1.146514892578125,1,0.99
2020-05-16 12:12:54.041 -0400,9604.216945291668,1.029464721679688,0.07012939453125,-0.4284210205078125,1,0.99
2020-05-16 12:12:54.111 -0400,9604.286783291667,0.7598419189453125,0.2797088623046875,-0.2702789306640625,1,0.99
2020-05-16 12:12:54.181 -0400,9604.356624291668,0.4297637939453125,0.589599609375,-0.359344482421875,1,0.99
2020-05-16 12:12:54.250 -0400,9604.426465291668,0.30615234375,0.6707763671875,-0.3638458251953125,1,0.99
2020-05-16 12:12:54.320 -0400,9604.496308291667,0.757965087890625,0.7357177734375,-0.308807373046875,1,0.99
2020-05-16 12:12:54.390 -0400,9604.566150291666,2.426116943359375,0.5401611328125,-0.188812255859375,1,0.99
2020-05-16 12:12:54.460 -0400,9604.635991291667,1.96331787109375,0.3875579833984375,-0.2836761474609375,1,0.99
2020-05-16 12:12:54.530 -0400,9604.705834291668,1.5615234375,0.697052001953125,-0.1948394775390625,1,0.99
2020-05-16 12:12:54.600 -0400,9604.775674291668,0.99468994140625,0.3500823974609375,-0.035369873046875,1,0.99
2020-05-16 12:12:54.669 -0400,9604.845510291667,0.598663330078125,0.1277313232421875,0.043975830078125,1,0.99
2020-05-16 12:12:54.739 -0400,9604.915346625001,0.4497528076171875,0.0670166015625,0.0314178466796875,1,0.99
2020-05-16 12:12:54.809 -0400,9604.985187625001,0.454742431640625,0.0816192626953125,0.03009033203125,1,0.99
2020-05-16 12:12:54.879 -0400,9605.055029625,0.5281829833984375,0.2143402099609375,0.008087158203125,1,0.99
2020-05-16 12:12:54.949 -0400,9605.124876625001,1.281478881835938,1.008193969726562,-0.2938690185546875,1,0.99
2020-05-16 12:12:55.019 -0400,9605.194720625001,1.81988525390625,0.6854095458984375,-0.7850494384765625,1,0.99
2020-05-16 12:12:55.088 -0400,9605.264559625,1.177459716796875,0.4057464599609375,-0.167449951171875,1,0.99
2020-05-16 12:12:55.158 -0400,9605.334397625,0.6032562255859375,0.7116241455078125,-0.2359619140625,1,0.99
2020-05-16 12:12:55.228 -0400,9605.404238625,0.4874420166015625,0.5746307373046875,-0.3743743896484375,1,0.99
2020-05-16 12:12:55.298 -0400,9605.474079625001,0.28411865234375,0.5965728759765625,-0.233062744140625,1,0.99
2020-05-16 12:12:55.368 -0400,9605.543923625,0.2879486083984375,0.6377716064453125,-0.154296875,1,0.99
2020-05-16 12:12:55.438 -0400,9605.613763625001,1.82073974609375,0.868560791015625,-0.3775177001953125,1,0.99
2020-05-16 12:12:55.507 -0400,9605.683606625,1.877593994140625,0.711517333984375,-0.047119140625,1,0.99
2020-05-16 12:12:55.577 -0400,9605.753448625001,1.751953125,0.5117340087890625,-0.295318603515625,1,0.99
2020-05-16 12:12:55.647 -0400,9605.823294625001,1.144180297851562,0.564453125,-0.1490631103515625,1,0.99
2020-05-16 12:12:55.717 -0400,9605.893141166667,0.650665283203125,0.1737823486328125,-0.004669189453125,1,0.99
2020-05-16 12:12:55.787 -0400,9605.962986166667,0.4158172607421875,0.1833953857421875,0.013946533203125,1,0.99
2020-05-16 12:12:55.857 -0400,9606.032830166667,0.4286346435546875,0.0408172607421875,-0.0186920166015625,1,0.99
2020-05-16 12:12:55.927 -0400,9606.102673166668,0.4521636962890625,0.07708740234375,0.0620574951171875,1,0.99
2020-05-16 12:12:55.996 -0400,9606.172517166668,1.017379760742188,0.59173583984375,0.148590087890625,1,0.99
2020-05-16 12:12:56.066 -0400,9606.242363166668,1.21966552734375,1.014617919921875,-0.831207275390625,1,0.99
2020-05-16 12:12:56.136 -0400,9606.312208166668,1.835693359375,1.133163452148438,-0.3803253173828125,1,0.99
2020-05-16 12:12:56.206 -0400,9606.382056166667,0.857635498046875,0.2161865234375,-0.32501220703125,1,0.99
2020-05-16 12:12:56.276 -0400,9606.451902166667,0.6119537353515625,0.2601318359375,-0.3392791748046875,1,0.99
2020-05-16 12:12:56.351 -0400,9606.521746166667,0.55133056640625,0.784515380859375,-0.3606414794921875,1,0.99
2020-05-16 12:12:56.415 -0400,9606.591591166667,0.61614990234375,0.882415771484375,-0.45953369140625,1,0.99
2020-05-16 12:12:56.485 -0400,9606.661432166668,0.7445068359375,0.5725555419921875,-0.416229248046875,1,0.99
2020-05-16 12:12:56.555 -0400,9606.731275166667,2.034027099609375,0.8255462646484375,-0.7184600830078125,1,0.99
2020-05-16 12:12:56.625 -0400,9606.801116166667,2.26812744140625,0.5226898193359375,0.0190887451171875,1,0.99
2020-05-16 12:12:56.695 -0400,9606.870956166667,1.695602416992188,0.4137725830078125,-0.23895263671875,1,0.99
2020-05-16 12:12:56.765 -0400,9606.940801375,0.97930908203125,0.47021484375,-0.1758270263671875,1,0.99
2020-05-16 12:12:56.834 -0400,9607.010645375001,0.746490478515625,0.22369384765625,0.0222015380859375,1,0.99
2020-05-16 12:12:56.905 -0400,9607.080485375001,0.4231414794921875,-0.08929443359375,0.0657806396484375,1,0.99
2020-05-16 12:12:56.974 -0400,9607.150329375001,0.2740631103515625,-0.0846710205078125,0.0312652587890625,1,0.99
2020-05-16 12:12:57.044 -0400,9607.220173375001,0.006500244140625,0.0217132568359375,0.0956573486328125,1,0.99
2020-05-16 12:12:57.114 -0400,9607.290018375001,0.4164276123046875,1.070266723632812,0.2149658203125,1,0.99
2020-05-16 12:12:57.184 -0400,9607.359865375001,1.452590942382812,0.989715576171875,-0.6493377685546875,1,0.99
2020-05-16 12:12:57.254 -0400,9607.429709375001,2.023193359375,1.039749145507812,-0.7753753662109375,1,0.99
2020-05-16 12:12:57.324 -0400,9607.499553375001,0.8591766357421875,0.2212371826171875,-0.30169677734375,1,0.99
2020-05-16 12:12:57.393 -0400,9607.569389375001,0.5552825927734375,0.2694091796875,-0.152740478515625,1,0.99
2020-05-16 12:12:57.463 -0400,9607.639226375,0.4313201904296875,0.513275146484375,-0.39630126953125,1,0.99
2020-05-16 12:12:57.533 -0400,9607.709067375001,0.639678955078125,0.87255859375,-0.4354705810546875,1,0.99
2020-05-16 12:12:57.603 -0400,9607.778911375,0.746185302734375,0.818878173828125,-0.238037109375,1,0.99
2020-05-16 12:12:57.673 -0400,9607.848755375,1.9688720703125,0.686126708984375,-0.5880584716796875,1,0.99
2020-05-16 12:12:57.742 -0400,9607.918594500001,1.884307861328125,0.3824920654296875,-0.1959228515625,1,0.99
2020-05-16 12:12:57.812 -0400,9607.988433500001,1.779678344726562,0.4869232177734375,-0.2429046630859375,1,0.99
2020-05-16 12:12:57.882 -0400,9608.058275500001,1.1376953125,0.4691925048828125,-0.278656005859375,1,0.99
2020-05-16 12:12:57.952 -0400,9608.128114500001,0.764434814453125,0.06060791015625,-0.0492401123046875,1,0.99
2020-05-16 12:12:58.022 -0400,9608.1979565,0.318603515625,-0.131134033203125,0.0240325927734375,1,0.99
2020-05-16 12:12:58.092 -0400,9608.2678005,0.0955352783203125,-0.0161590576171875,-0.02203369140625,1,0.99
2020-05-16 12:12:58.162 -0400,9608.337643500001,0.08331298828125,0.096405029296875,0.07330322265625,1,0.99
2020-05-16 12:12:58.240 -0400,9608.407484500001,1.05682373046875,1.053298950195312,0.282928466796875,1,0.99
2020-05-16 12:12:58.301 -0400,9608.4773265,2.371810913085938,1.194244384765625,-1.326736450195312,1,0.99
2020-05-16 12:12:58.371 -0400,9608.5471715,1.81646728515625,0.7694091796875,-0.093475341796875,1,0.99
2020-05-16 12:12:58.441 -0400,9608.617017500001,0.8014678955078125,0.3463287353515625,-0.284576416015625,1,0.99
2020-05-16 12:12:58.511 -0400,9608.686863500001,0.520782470703125,0.2510223388671875,-0.3676300048828125,1,0.99
2020-05-16 12:12:58.581 -0400,9608.756713500001,0.3731536865234375,0.506439208984375,-0.478302001953125,1,0.99
2020-05-16 12:12:58.654 -0400,9608.826563500001,0.51226806640625,0.3943023681640625,-0.3984375,1,0.99
2020-05-16 12:12:58.720 -0400,9608.896416875001,0.87548828125,0.3053741455078125,-0.295867919921875,1,0.99
2020-05-16 12:12:58.790 -0400,9608.966273875001,0.8730926513671875,0.3369903564453125,-0.273193359375,1,0.99
2020-05-16 12:12:58.860 -0400,9609.036126875,2.1512451171875,0.664947509765625,-0.343841552734375,1,0.99
2020-05-16 12:12:58.930 -0400,9609.105975875,1.775115966796875,0.4211578369140625,-0.334930419921875,1,0.99
2020-05-16 12:12:59.000 -0400,9609.175821875,1.038314819335938,0.516387939453125,-0.165374755859375,1,0.99
2020-05-16 12:12:59.070 -0400,9609.245669875001,0.785980224609375,0.312835693359375,-0.0734100341796875,1,0.99
2020-05-16 12:12:59.139 -0400,9609.315514875001,0.52655029296875,0.2050018310546875,0.0410308837890625,1,0.99
2020-05-16 12:12:59.209 -0400,9609.385360875001,0.3962860107421875,0.22808837890625,-0.0013427734375,1,0.99
2020-05-16 12:12:59.279 -0400,9609.455202875,0.3612213134765625,0.2216796875,0.053680419921875,1,0.99
2020-05-16 12:12:59.349 -0400,9609.525044875001,0.420379638671875,0.272003173828125,0.082122802734375,1,0.99
2020-05-16 12:12:59.419 -0400,9609.594881875,1.82330322265625,0.551483154296875,-0.120758056640625,1,0.99
2020-05-16 12:12:59.489 -0400,9609.664716875001,1.749191284179688,0.8906707763671875,-0.781524658203125,1,0.99
2020-05-16 12:12:59.558 -0400,9609.734553875001,1.084121704101562,0.1848602294921875,-0.2328338623046875,1,0.99
2020-05-16 12:12:59.628 -0400,9609.804392875001,0.6973724365234375,0.3060760498046875,-0.4431304931640625,1,0.99
2020-05-16 12:12:59.699 -0400,9609.874228875,0.3568267822265625,0.49951171875,-0.422332763671875,1,0.99
2020-05-16 12:12:59.768 -0400,9609.944066666667,0.3425140380859375,0.39886474609375,-0.4454803466796875,1,0.99
2020-05-16 12:12:59.838 -0400,9610.013901666667,0.4562835693359375,0.308319091796875,-0.33770751953125,1,0.99
2020-05-16 12:12:59.908 -0400,9610.083740666667,0.7709808349609375,0.376953125,-0.2621002197265625,1,0.99
2020-05-16 12:12:59.977 -0400,9610.153578666666,2.14727783203125,0.773468017578125,-0.1903076171875,1,0.99
2020-05-16 12:13:00.047 -0400,9610.223415666667,1.947982788085938,0.186370849609375,-0.5477294921875,1,0.99
2020-05-16 12:13:00.117 -0400,9610.293254666667,1.2259521484375,0.7035064697265625,-0.0845947265625,1,0.99
2020-05-16 12:13:00.187 -0400,9610.363093666667,0.8720245361328125,0.335723876953125,-0.0137176513671875,1,0.99
2020-05-16 12:13:00.257 -0400,9610.432927666667,0.5762939453125,0.1123046875,0.093353271484375,1,0.99
2020-05-16 12:13:00.327 -0400,9610.502764666668,0.419586181640625,0.11669921875,0.0498046875,1,0.99
2020-05-16 12:13:00.397 -0400,9610.572604666668,0.3411712646484375,0.107177734375,0.0609893798828125,1,0.99
2020-05-16 12:13:00.466 -0400,9610.642442666667,0.221343994140625,0.08648681640625,0.10540771484375,1,0.99
2020-05-16 12:13:00.536 -0400,9610.712282666667,1.346847534179688,1.018264770507812,0.4018402099609375,1,0.99
2020-05-16 12:13:00.606 -0400,9610.782120666667,1.955291748046875,1.077224731445312,-1.161483764648438,1,0.99
2020-05-16 12:13:00.676 -0400,9610.851956666667,1.424072265625,0.6732025146484375,-0.28131103515625,1,0.99
2020-05-16 12:13:00.746 -0400,9610.921794875001,0.7841033935546875,0.283966064453125,-0.4000396728515625,1,0.99
2020-05-16 12:13:00.816 -0400,9610.991634875001,0.376983642578125,0.5226287841796875,-0.4755706787109375,1,0.99
2020-05-16 12:13:00.885 -0400,9611.061472875001,0.293182373046875,0.574188232421875,-0.4211273193359375,1,0.99
2020-05-16 12:13:00.955 -0400,9611.131310875,0.5367431640625,0.499969482421875,-0.31329345703125,1,0.99
2020-05-16 12:13:01.025 -0400,9611.201153875001,2.507369995117188,0.78228759765625,-0.4753265380859375,1,0.99
2020-05-16 12:13:01.095 -0400,9611.270998875001,1.907058715820312,0.4114837646484375,-0.1092681884765625,1,0.99
2020-05-16 12:13:01.165 -0400,9611.340844875,1.463653564453125,0.541107177734375,-0.3932647705078125,1,0.99
2020-05-16 12:13:01.235 -0400,9611.410687875001,0.85430908203125,0.427459716796875,-0.2331695556640625,1,0.99
2020-05-16 12:13:01.305 -0400,9611.480530875,0.68878173828125,0.1145782470703125,-0.0475006103515625,1,0.99
2020-05-16 12:13:01.374 -0400,9611.550373875001,0.390411376953125,-0.0323486328125,0.0325164794921875,1,0.99
2020-05-16 12:13:01.444 -0400,9611.620211875001,0.3198394775390625,0.1034088134765625,0.0089874267578125,1,0.99
2020-05-16 12:13:01.514 -0400,9611.690044875,0.3831939697265625,0.3114166259765625,-0.022186279296875,1,0.99
2020-05-16 12:13:01.584 -0400,9611.759880875001,0.7890625,0.7477569580078125,-0.237945556640625,1,0.99
2020-05-16 12:13:01.655 -0400,9611.829716875001,1.617034912109375,0.5132293701171875,-0.45068359375,1,0.99
2020-05-16 12:13:01.723 -0400,9611.899551041668,1.611557006835938,0.8511810302734375,-0.497314453125,1,0.99
2020-05-16 12:13:01.793 -0400,9611.969384041668,0.644805908203125,0.2121124267578125,-0.286346435546875,1,0.99
2020-05-16 12:13:01.863 -0400,9612.039220041666,0.5314178466796875,0.2021484375,-0.3143310546875,1,0.99
2020-05-16 12:13:01.933 -0400,9612.109055041667,0.350860595703125,0.4254302978515625,-0.4565887451171875,1,0.99
2020-05-16 12:13:02.003 -0400,9612.178893041668,0.40643310546875,0.35650634765625,-0.372344970703125,1,0.99
2020-05-16 12:13:02.073 -0400,9612.248730041667,0.5867919921875,0.1373748779296875,-0.190460205078125,1,0.99
2020-05-16 12:13:02.142 -0400,9612.318564041667,4.942184448242188,1.189041137695312,-0.1570892333984375,1,0.99
2020-05-16 12:13:02.212 -0400,9612.388401041668,1.802505493164062,0.5457611083984375,-1.029342651367188,1,0.99
2020-05-16 12:13:02.282 -0400,9612.458238041667,0.950958251953125,0.4348297119140625,-0.1170806884765625,1,0.99
2020-05-16 12:13:02.352 -0400,9612.528072041667,0.5430908203125,0.4184417724609375,0.04376220703125,1,0.99
2020-05-16 12:13:02.422 -0400,9612.597910041668,0.3166656494140625,0.0556640625,0.0055389404296875,1,0.99
2020-05-16 12:13:02.492 -0400,9612.667745041666,0.4478302001953125,-0.069183349609375,0.27508544921875,1,0.99
2020-05-16 12:13:02.561 -0400,9612.737579041668,0.9921112060546875,0.1615142822265625,0.2626953125,1,0.99
2020-05-16 12:13:02.631 -0400,9612.807416041667,1.455459594726562,1.493942260742188,-0.4474029541015625,1,0.99
2020-05-16 12:13:02.701 -0400,9612.877252041668,1.460174560546875,0.5384979248046875,-0.882110595703125,1,0.99
2020-05-16 12:13:02.771 -0400,9612.947086791668,1.168838500976562,0.2339935302734375,-0.11859130859375,1,0.99
2020-05-16 12:13:02.841 -0400,9613.016923791667,0.490936279296875,0.4678955078125,-0.226318359375,1,0.99
2020-05-16 12:13:02.911 -0400,9613.086758791667,0.4277496337890625,0.427581787109375,-0.303955078125,1,0.99
2020-05-16 12:13:02.980 -0400,9613.156595791666,0.5114898681640625,0.609466552734375,-0.16375732421875,1,0.99
2020-05-16 12:13:03.050 -0400,9613.226435791667,0.7877197265625,0.8058013916015625,-0.09814453125,1,0.99
2020-05-16 12:13:03.120 -0400,9613.296274791668,1.9288330078125,0.996856689453125,-0.4259490966796875,1,0.99
2020-05-16 12:13:03.190 -0400,9613.366109791667,2.179214477539062,0.2846527099609375,-0.2855682373046875,1,0.99
2020-05-16 12:13:03.260 -0400,9613.435946791667,1.66082763671875,0.4637908935546875,-0.1820526123046875,1,0.99
2020-05-16 12:13:03.339 -0400,9613.505781791668,0.953948974609375,0.427093505859375,-0.2648162841796875,1,0.99
2020-05-16 12:13:03.400 -0400,9613.575618791667,0.6290740966796875,0.1814727783203125,-0.0590972900390625,1,0.99
2020-05-16 12:13:03.469 -0400,9613.645452791667,0.3549652099609375,-0.02191162109375,-0.0100860595703125,1,0.99
2020-05-16 12:13:03.539 -0400,9613.715292791667,0.13592529296875,0.004150390625,-0.0019378662109375,1,0.99
2020-05-16 12:13:03.609 -0400,9613.785130791668,0.185943603515625,0.3537445068359375,-0.001068115234375,1,0.99
2020-05-16 12:13:03.679 -0400,9613.854969791668,0.9322509765625,0.9547576904296875,-0.100738525390625,1,0.99
2020-05-16 12:13:03.749 -0400,9613.924807375,1.747177124023438,0.7816925048828125,-0.6869964599609375,1,0.99
2020-05-16 12:13:03.818 -0400,9613.994640375,1.247100830078125,0.9656982421875,-0.49578857421875,1,0.99
2020-05-16 12:13:03.888 -0400,9614.064472375001,0.7467498779296875,0.70379638671875,-0.3171234130859375,1,0.99
2020-05-16 12:13:03.958 -0400,9614.134305375001,0.5417327880859375,0.4409942626953125,-0.2358856201171875,1,0.99
2020-05-16 12:13:04.028 -0400,9614.204137375,0.5299835205078125,0.530670166015625,-0.2583465576171875,1,0.99
2020-05-16 12:13:04.098 -0400,9614.273972375,0.8796539306640625,0.8961181640625,-0.245361328125,1,0.99
2020-05-16 12:13:04.168 -0400,9614.343804375001,2.041732788085938,1.11529541015625,-0.41961669921875,1,0.99
2020-05-16 12:13:04.239 -0400,9614.413638375001,1.84210205078125,0.3460540771484375,-0.256622314453125,1,0.99
2020-05-16 12:13:04.307 -0400,9614.483472375001,1.293853759765625,0.456573486328125,-0.2068328857421875,1,0.99
2020-05-16 12:13:04.377 -0400,9614.553306375001,0.8147430419921875,0.3105926513671875,-0.1280517578125,1,0.99
2020-05-16 12:13:04.447 -0400,9614.623141375001,0.620635986328125,0.185089111328125,0.04705810546875,1,0.99
2020-05-16 12:13:04.517 -0400,9614.692977375,0.4303436279296875,0.0689697265625,0.11248779296875,1,0.99
2020-05-16 12:13:04.587 -0400,9614.762813375,0.191497802734375,0.0840606689453125,0.1190643310546875,1,0.99
2020-05-16 12:13:04.656 -0400,9614.832646375,0.1856689453125,0.22161865234375,0.1348876953125,1,0.99
2020-05-16 12:13:04.726 -0400,9614.902477625001,1.671615600585938,0.9319915771484375,0.199432373046875,1,0.99
2020-05-16 12:13:04.796 -0400,9614.972312625001,1.398605346679688,0.882659912109375,-0.930999755859375,1,0.99
2020-05-16 12:13:04.866 -0400,9615.042144625,1.366546630859375,1.091751098632812,-0.3567962646484375,1,0.99
2020-05-16 12:13:04.936 -0400,9615.111974625001,0.8282318115234375,0.2050933837890625,-0.66754150390625,1,0.99
2020-05-16 12:13:05.006 -0400,9615.181805625001,0.3194427490234375,0.448394775390625,-0.434051513671875,1,0.99
2020-05-16 12:13:05.076 -0400,9615.251642625,0.2978057861328125,0.4626312255859375,-0.4750213623046875,1,0.99
2020-05-16 12:13:05.145 -0400,9615.321481625,0.64715576171875,0.276031494140625,-0.4748992919921875,1,0.99
2020-05-16 12:13:05.215 -0400,9615.391321625,3.306869506835938,0.7147064208984375,-0.4511871337890625,1,0.99
2020-05-16 12:13:05.285 -0400,9615.461155625,2.0018310546875,0.7207183837890625,-0.118865966796875,1,0.99
2020-05-16 12:13:05.355 -0400,9615.530993625001,1.178955078125,0.40362548828125,-0.2164154052734375,1,0.99
2020-05-16 12:13:05.425 -0400,9615.600829625,0.804931640625,0.6667938232421875,0.138702392578125,1,0.99
2020-05-16 12:13:05.494 -0400,9615.670664625,0.611358642578125,0.2158203125,0.1506805419921875,1,0.99
2020-05-16 12:13:05.564 -0400,9615.740503625,0.409576416015625,-0.0010986328125,0.0970001220703125,1,0.99
2020-05-16 12:13:05.634 -0400,9615.810344625001,0.1947479248046875,0.03155517578125,0.113128662109375,1,0.99
2020-05-16 12:13:05.704 -0400,9615.880182625,0.41619873046875,0.481048583984375,0.087066650390625,1,0.99
2020-05-16 12:13:05.774 -0400,9615.950021500001,1.015350341796875,0.9679107666015625,-0.4088897705078125,1,0.99
2020-05-16 12:13:05.844 -0400,9616.0198585,1.516006469726562,0.7344512939453125,-0.81329345703125,1,0.99
2020-05-16 12:13:05.913 -0400,9616.0896925,1.272476196289062,1.120941162109375,-0.5422515869140625,1,0.99
2020-05-16 12:13:05.983 -0400,9616.1595275,0.71923828125,0.18572998046875,-0.3867645263671875,1,0.99
2020-05-16 12:13:06.053 -0400,9616.2293625,0.490997314453125,0.700042724609375,-0.43865966796875,1,0.99
2020-05-16 12:13:06.123 -0400,9616.2991955,0.377899169921875,0.84844970703125,-0.4889068603515625,1,0.99
2020-05-16 12:13:06.193 -0400,9616.369029500001,0.9676055908203125,0.801483154296875,-0.5165863037109375,1,0.99
2020-05-16 12:13:06.263 -0400,9616.438862500001,2.090896606445312,0.2063140869140625,0.0209197998046875,1,0.99
2020-05-16 12:13:06.333 -0400,9616.5086985,2.013885498046875,0.054473876953125,-0.222198486328125,1,0.99
2020-05-16 12:13:06.402 -0400,9616.578531500001,0.9167022705078125,0.9711761474609375,-0.136932373046875,1,0.99
2020-05-16 12:13:06.472 -0400,9616.648364500001,0.9444580078125,0.4625701904296875,-0.0472564697265625,1,0.99
2020-05-16 12:13:06.542 -0400,9616.718193500001,0.6663360595703125,0.201202392578125,0.1526947021484375,1,0.99
2020-05-16 12:13:06.612 -0400,9616.788023500001,0.359710693359375,0.34228515625,0.0834503173828125,1,0.99
2020-05-16 12:13:06.682 -0400,9616.8578505,-0.0982818603515625,0.3502655029296875,-0.43231201171875,1,0.99
2020-05-16 12:13:06.751 -0400,9616.927682125001,-0.4599151611328125,0.4046478271484375,-0.828826904296875,1,0.99
2020-05-16 12:13:06.821 -0400,9616.997517125001,0.0460968017578125,0.547821044921875,-1.383392333984375,1,0.99
2020-05-16 12:13:06.891 -0400,9617.067350125,0.0711822509765625,0.153839111328125,-1.14495849609375,1,0.99
2020-05-16 12:13:06.961 -0400,9617.137188125,0.1425323486328125,-0.143280029296875,-0.7352752685546875,1,0.99
2020-05-16 12:13:07.031 -0400,9617.207026125001,0.0577239990234375,-0.1119232177734375,-0.5725250244140625,1,0.99
2020-05-16 12:13:07.150 -0400,9617.326741125,0.1411895751953125,-0.1864471435546875,-0.7350006103515625,1,0.99
2020-05-16 12:13:07.270 -0400,9617.446457125001,0.3800048828125,0.1376495361328125,-1.504425048828125,1,0.99
2020-05-16 12:13:07.390 -0400,9617.566180125001,0.24835205078125,0.1671295166015625,-1.170852661132812,1,0.99
2020-05-16 12:13:07.510 -0400,9617.685902125,0.3284454345703125,0.0817718505859375,-0.716156005859375,1,0.99
2020-05-16 12:13:07.630 -0400,9617.805621125,0.2054901123046875,0.1058349609375,-0.5811920166015625,1,0.99
2020-05-16 12:13:07.749 -0400,9617.925340375001,0.695587158203125,0.473236083984375,-1.564727783203125,1,0.99
2020-05-16 12:13:07.869 -0400,9618.045058375001,0.658203125,0.2954864501953125,-1.082183837890625,1,0.99
2020-05-16 12:13:07.989 -0400,9618.164777375001,0.199554443359375,0.1026153564453125,-0.5549774169921875,1,0.99
2020-05-16 12:13:08.109 -0400,9618.284502375001,0.1035614013671875,0.0665283203125,-0.500274658203125,1,0.99
2020-05-16 12:13:08.228 -0400,9618.404225375001,0.1029815673828125,0.2317657470703125,-0.951202392578125,1,0.99
2020-05-16 12:13:08.348 -0400,9618.523942375001,0.6168670654296875,0.57086181640625,-0.8839874267578125,1,0.99
2020-05-16 12:13:08.468 -0400,9618.643659375,0.6548004150390625,0.779876708984375,-0.476043701171875,1,0.99
2020-05-16 12:13:08.596 -0400,9618.763384375001,0.1517181396484375,0.287353515625,-0.1629180908203125,1,0.99
2020-05-16 12:13:08.707 -0400,9618.883107375001,0.55242919921875,0.342010498046875,-0.1498260498046875,1,0.99
2020-05-16 12:13:08.837 -0400,9619.012805875,2.003952026367188,0.574615478515625,0.1519317626953125,1,0.99
2020-05-16 12:13:08.910 -0400,9619.082646875,1.132369995117188,1.138336181640625,-0.4605255126953125,1,0.99
2020-05-16 12:13:08.977 -0400,9619.152485875,1.144393920898438,0.5236358642578125,-0.3021392822265625,1,0.99
2020-05-16 12:13:09.046 -0400,9619.222323875001,0.5314788818359375,0.35626220703125,-0.1197967529296875,1,0.99
2020-05-16 12:13:09.116 -0400,9619.292161875001,0.2765045166015625,0.3345947265625,-0.253143310546875,1,0.99
2020-05-16 12:13:09.186 -0400,9619.361997875001,0.358734130859375,0.51165771484375,-0.3603668212890625,1,0.99
2020-05-16 12:13:09.256 -0400,9619.431834875,0.8270416259765625,0.553375244140625,-0.4241943359375,1,0.99
2020-05-16 12:13:09.326 -0400,9619.501673875,1.498992919921875,0.736480712890625,-0.585113525390625,1,0.99
2020-05-16 12:13:09.395 -0400,9619.571514875001,1.532867431640625,0.378387451171875,-0.269927978515625,1,0.99
2020-05-16 12:13:09.465 -0400,9619.641353875,1.54254150390625,0.254119873046875,-0.1682586669921875,1,0.99
2020-05-16 12:13:09.535 -0400,9619.711197875,0.9375762939453125,0.463287353515625,-0.0648956298828125,1,0.99
2020-05-16 12:13:09.605 -0400,9619.781040875001,0.513641357421875,0.33160400390625,-0.0485382080078125,1,0.99
2020-05-16 12:13:09.675 -0400,9619.850882875,0.5948944091796875,0.3361968994140625,0.0800018310546875,1,0.99
2020-05-16 12:13:09.745 -0400,9619.920724166668,0.6777496337890625,0.2094879150390625,0.0955047607421875,1,0.99
2020-05-16 12:13:09.814 -0400,9619.990563166668,0.7978668212890625,0.266571044921875,0.0767669677734375,1,0.99
2020-05-16 12:13:09.884 -0400,9620.060409166666,0.6999664306640625,0.4212188720703125,-0.103118896484375,1,0.99
2020-05-16 12:13:09.954 -0400,9620.130253166668,1.56475830078125,1.051437377929688,-0.4884490966796875,1,0.99
2020-05-16 12:13:10.024 -0400,9620.200092166668,1.188262939453125,0.705322265625,-0.64794921875,1,0.99
2020-05-16 12:13:10.094 -0400,9620.269935166667,0.5851593017578125,0.268585205078125,-0.365936279296875,1,0.99
2020-05-16 12:13:10.164 -0400,9620.339775166667,0.4842987060546875,0.8960723876953125,-0.3607940673828125,1,0.99
2020-05-16 12:13:10.233 -0400,9620.409614166667,0.4112396240234375,0.76885986328125,-0.2925262451171875,1,0.99
2020-05-16 12:13:10.303 -0400,9620.479456166668,0.759033203125,0.5128936767578125,-0.401092529296875,1,0.99
2020-05-16 12:13:10.373 -0400,9620.549296166668,1.126449584960938,0.795379638671875,-0.341094970703125,1,0.99
2020-05-16 12:13:10.443 -0400,9620.619137166666,1.98333740234375,1.027145385742188,-0.5922088623046875,1,0.99
2020-05-16 12:13:10.513 -0400,9620.688978166667,1.42529296875,0.385650634765625,-0.30206298828125,1,0.99
2020-05-16 12:13:10.583 -0400,9620.758823166667,1.379837036132812,0.4303436279296875,-0.1886138916015625,1,0.99
2020-05-16 12:13:10.652 -0400,9620.828661166668,0.854949951171875,0.3265228271484375,-0.185882568359375,1,0.99
2020-05-16 12:13:10.722 -0400,9620.898502166667,0.7926177978515625,0.2669830322265625,-0.02197265625,1,0.99
2020-05-16 12:13:10.792 -0400,9620.968343916667,0.635040283203125,0.132171630859375,0.0639801025390625,1,0.99
2020-05-16 12:13:10.862 -0400,9621.038186916667,0.4603118896484375,0.122222900390625,0.063079833984375,1,0.99
2020-05-16 12:13:10.932 -0400,9621.108027916667,0.28729248046875,0.2315673828125,0.0023040771484375,1,0.99
2020-05-16 12:13:11.002 -0400,9621.177864916668,1.115890502929688,0.66387939453125,0.06787109375,1,0.99
2020-05-16 12:13:11.072 -0400,9621.247702916668,1.59100341796875,1.611312866210938,-0.2160797119140625,1,0.99
2020-05-16 12:13:11.141 -0400,9621.317536916667,1.035507202148438,1.411453247070312,-0.22784423828125,1,0.99
2020-05-16 12:13:11.211 -0400,9621.387374916667,0.4185028076171875,-0.682098388671875,-0.59844970703125,1,0.99
2020-05-16 12:13:11.281 -0400,9621.457211916668,0.416534423828125,0.3520050048828125,-0.2671661376953125,1,0.99
2020-05-16 12:13:11.351 -0400,9621.527050916668,0.52301025390625,0.69677734375,-0.2001953125,1,0.99
2020-05-16 12:13:11.421 -0400,9621.596889916667,0.89886474609375,1.0216064453125,-0.458831787109375,1,0.99
2020-05-16 12:13:11.491 -0400,9621.666731916668,1.841812133789062,0.93182373046875,-0.6026153564453125,1,0.99
2020-05-16 12:13:11.560 -0400,9621.736570916668,1.801010131835938,0.283203125,-0.214447021484375,1,0.99
2020-05-16 12:13:11.630 -0400,9621.806410916668,1.99920654296875,0.507537841796875,-0.1575469970703125,1,0.99
2020-05-16 12:13:11.700 -0400,9621.876249916668,1.181259155273438,0.4574432373046875,-0.200347900390625,1,0.99
2020-05-16 12:13:11.770 -0400,9621.946088500001,0.758056640625,0.25665283203125,-0.0356292724609375,1,0.99
2020-05-16 12:13:11.840 -0400,9622.015933500001,0.491973876953125,0.091796875,0.053802490234375,1,0.99
2020-05-16 12:13:11.910 -0400,9622.085773500001,0.2577667236328125,-0.021453857421875,0.00421142578125,1,0.99
2020-05-16 12:13:11.980 -0400,9622.1556115,0.1237335205078125,-0.02520751953125,0.0653076171875,1,0.99
2020-05-16 12:13:12.049 -0400,9622.2254505,0.4208221435546875,0.4769134521484375,0.0080413818359375,1,0.99
2020-05-16 12:13:12.119 -0400,9622.295283500001,1.232101440429688,1.411422729492188,-0.13055419921875,1,0.99
2020-05-16 12:13:12.189 -0400,9622.365115500001,1.960205078125,1.161544799804688,-0.6457366943359375,1,0.99
2020-05-16 12:13:12.259 -0400,9622.434949500001,1.043060302734375,0.9279022216796875,-0.1613922119140625,1,0.99
2020-05-16 12:13:12.329 -0400,9622.504785500001,0.6717376708984375,0.5506134033203125,-0.218658447265625,1,0.99
2020-05-16 12:13:12.399 -0400,9622.574625500001,0.4431304931640625,0.58245849609375,-0.2306671142578125,1,0.99
2020-05-16 12:13:12.468 -0400,9622.644463500001,0.520782470703125,0.78033447265625,-0.2783050537109375,1,0.99
2020-05-16 12:13:12.538 -0400,9622.7143015,0.9962005615234375,0.7445068359375,-0.14471435546875,1,0.99
2020-05-16 12:13:12.608 -0400,9622.784137500001,2.006332397460938,0.8618927001953125,-0.5155487060546875,1,0.99
2020-05-16 12:13:12.678 -0400,9622.8539755,1.948074340820312,0.3274383544921875,-0.325836181640625,1,0.99
2020-05-16 12:13:12.748 -0400,9622.92381925,1.312820434570312,0.5259552001953125,-0.2643280029296875,1,0.99
2020-05-16 12:13:12.817 -0400,9622.993663250001,0.89984130859375,0.2628326416015625,-0.1629638671875,1,0.99
2020-05-16 12:13:12.887 -0400,9623.06350525,0.664337158203125,0.1676483154296875,0.01373291015625,1,0.99
2020-05-16 12:13:12.957 -0400,9623.133343250001,0.4539947509765625,0.062896728515625,0.0417633056640625,1,0.99
2020-05-16 12:13:13.027 -0400,9623.20318525,0.3793182373046875,0.0102996826171875,0.089508056640625,1,0.99
2020-05-16 12:13:13.097 -0400,9623.27302925,0.27197265625,0.3516845703125,0.15496826171875,1,0.99
2020-05-16 12:13:13.167 -0400,9623.34287325,0.8665771484375,1.21319580078125,-0.332733154296875,1,0.99
2020-05-16 12:13:13.237 -0400,9623.412717250001,1.520034790039062,0.7779693603515625,-0.705841064453125,1,0.99
2020-05-16 12:13:13.306 -0400,9623.48256425,1.39617919921875,0.9168853759765625,-0.358001708984375,1,0.99
2020-05-16 12:13:13.376 -0400,9623.55241025,0.751434326171875,0.2115478515625,-0.5045318603515625,1,0.99
2020-05-16 12:13:13.446 -0400,9623.62225425,0.484527587890625,0.2710723876953125,-0.4883575439453125,1,0.99
2020-05-16 12:13:13.516 -0400,9623.692102250001,0.4820098876953125,0.7548675537109375,-0.514739990234375,1,0.99
2020-05-16 12:13:13.586 -0400,9623.76195125,0.6225128173828125,0.5924835205078125,-0.3584136962890625,1,0.99
2020-05-16 12:13:13.656 -0400,9623.831797250001,2.085052490234375,0.5966033935546875,-0.6623687744140625,1,0.99
2020-05-16 12:13:13.725 -0400,9623.901642250001,1.969696044921875,0.6076812744140625,-0.1999664306640625,1,0.99
2020-05-16 12:13:13.795 -0400,9623.971485125001,1.415390014648438,0.344268798828125,-0.1581268310546875,1,0.99
2020-05-16 12:13:13.865 -0400,9624.041328125,0.8763885498046875,0.5368804931640625,-0.0660552978515625,1,0.99
2020-05-16 12:13:13.935 -0400,9624.111172125,0.7009429931640625,0.236724853515625,0.086090087890625,1,0.99
2020-05-16 12:13:14.009 -0400,9624.181015125001,0.5017547607421875,0.097503662109375,0.1061553955078125,1,0.99
2020-05-16 12:13:14.075 -0400,9624.250861125001,0.4936981201171875,0.0774078369140625,0.0861053466796875,1,0.99
2020-05-16 12:13:14.145 -0400,9624.320707125,0.340301513671875,0.1638641357421875,0.0546417236328125,1,0.99
2020-05-16 12:13:14.215 -0400,9624.390555125001,1.079360961914062,1.4515380859375,-0.0421600341796875,1,0.99
2020-05-16 12:13:14.284 -0400,9624.460407125001,1.150253295898438,0.6034698486328125,-0.895263671875,1,0.99
2020-05-16 12:13:14.354 -0400,9624.530258125,1.288040161132812,1.04840087890625,-0.623870849609375,1,0.99
2020-05-16 12:13:14.424 -0400,9624.600104125,0.5024566650390625,0.51116943359375,-0.7515716552734375,1,0.99
2020-05-16 12:13:14.494 -0400,9624.669957125001,0.2376708984375,0.4095001220703125,-0.3678436279296875,1,0.99
2020-05-16 12:13:14.564 -0400,9624.739806125001,0.3076171875,0.4837188720703125,-0.2386016845703125,1,0.99
2020-05-16 12:13:14.633 -0400,9624.809650125,0.6698455810546875,0.724334716796875,-0.2174072265625,1,0.99
2020-05-16 12:13:14.703 -0400,9624.879498125001,2.091567993164062,0.76666259765625,-0.2987823486328125,1,0.99
2020-05-16 12:13:14.773 -0400,9624.949346041667,1.582931518554688,0.6464996337890625,-0.1548919677734375,1,0.99
2020-05-16 12:13:14.843 -0400,9625.019195041667,1.274093627929688,0.5465545654296875,-0.3740081787109375,1,0.99
2020-05-16 12:13:14.913 -0400,9625.089047041667,0.8852691650390625,0.2744598388671875,-0.296966552734375,1,0.99
2020-05-16 12:13:14.983 -0400,9625.158899041668,0.54254150390625,0.140655517578125,-0.1407318115234375,1,0.99
2020-05-16 12:13:15.053 -0400,9625.228748041667,0.27618408203125,0.1059722900390625,-0.1974639892578125,1,0.99
2020-05-16 12:13:15.122 -0400,9625.298598041667,0.1234283447265625,0.0745391845703125,-0.1216888427734375,1,0.99
2020-05-16 12:13:15.192 -0400,9625.368451041668,0.086273193359375,0.120941162109375,-0.074493408203125,1,0.99
2020-05-16 12:13:15.262 -0400,9625.438299041667,1.120101928710938,1.42169189453125,-0.3212432861328125,1,0.99
2020-05-16 12:13:15.340 -0400,9625.508147041668,1.568069458007812,1.060638427734375,-0.595703125,1,0.99
2020-05-16 12:13:15.402 -0400,9625.577996041668,0.954315185546875,0.833343505859375,-0.635467529296875,1,0.99
2020-05-16 12:13:15.472 -0400,9625.647848041668,0.5145416259765625,0.8531341552734375,-0.46319580078125,1,0.99
2020-05-16 12:13:15.541 -0400,9625.717700041667,0.0878448486328125,0.53436279296875,-0.1967926025390625,1,0.99
2020-05-16 12:13:15.611 -0400,9625.787552041667,0.105438232421875,0.52520751953125,-0.1440582275390625,1,0.99
2020-05-16 12:13:15.681 -0400,9625.857403041668,0.32208251953125,0.5747528076171875,-0.09088134765625,1,0.99
2020-05-16 12:13:15.751 -0400,9625.927250375,1.4925537109375,0.8648223876953125,-0.133209228515625,1,0.99
2020-05-16 12:13:15.821 -0400,9625.997100375,1.620758056640625,0.8116455078125,0.0723114013671875,1,0.99
2020-05-16 12:13:15.891 -0400,9626.066944375001,1.468246459960938,0.393524169921875,-0.3075714111328125,1,0.99
2020-05-16 12:13:15.961 -0400,9626.136791375,0.8376617431640625,0.6175384521484375,-0.22100830078125,1,0.99
2020-05-16 12:13:16.031 -0400,9626.206641375,0.4828033447265625,0.2285614013671875,-0.1200714111328125,1,0.99
2020-05-16 12:13:16.100 -0400,9626.276496375001,0.38531494140625,0.100860595703125,-0.0761566162109375,1,0.99
2020-05-16 12:13:16.170 -0400,9626.346351375001,0.522674560546875,0.0595550537109375,-0.1134185791015625,1,0.99
2020-05-16 12:13:16.241 -0400,9626.416204375,0.4280242919921875,0.2488861083984375,-0.1208343505859375,1,0.99
2020-05-16 12:13:16.310 -0400,9626.486056375001,1.014572143554688,1.125167846679688,-0.2434844970703125,1,0.99
2020-05-16 12:13:16.380 -0400,9626.555910375,1.133926391601562,0.6158447265625,-0.6397552490234375,1,0.99
2020-05-16 12:13:16.450 -0400,9626.625760375,1.292633056640625,0.96240234375,-0.406463623046875,1,0.99
2020-05-16 12:13:16.519 -0400,9626.695612375001,0.6378021240234375,0.720977783203125,-0.3345947265625,1,0.99
2020-05-16 12:13:16.589 -0400,9626.765462375,0.3098602294921875,0.5286102294921875,-0.313201904296875,1,0.99
2020-05-16 12:13:16.659 -0400,9626.835310375001,0.199920654296875,0.414276123046875,-0.2023773193359375,1,0.99
2020-05-16 12:13:16.729 -0400,9626.905155375001,0.26214599609375,0.444610595703125,-0.105499267578125,1,0.99
2020-05-16 12:13:16.799 -0400,9626.975002125,1.232696533203125,0.6907501220703125,-0.114044189453125,1,0.99
2020-05-16 12:13:16.869 -0400,9627.044853125,1.938186645507812,0.8381805419921875,0.18084716796875,1,0.99
2020-05-16 12:13:16.939 -0400,9627.114704125001,1.416427612304688,0.5923614501953125,-0.524200439453125,1,0.99
2020-05-16 12:13:17.008 -0400,9627.184556125001,0.9788665771484375,0.70184326171875,-0.1298065185546875,1,0.99
2020-05-16 12:13:17.078 -0400,9627.254405125001,0.6331024169921875,0.144317626953125,-0.092315673828125,1,0.99
2020-05-16 12:13:17.148 -0400,9627.324254125,0.3375396728515625,0.0934295654296875,-0.133331298828125,1,0.99
2020-05-16 12:13:17.218 -0400,9627.394105125,0.3924713134765625,0.2069244384765625,-0.188934326171875,1,0.99
2020-05-16 12:13:17.292 -0400,9627.463953125001,0.661224365234375,0.438262939453125,-0.1336212158203125,1,0.99
2020-05-16 12:13:17.358 -0400,9627.533803125001,1.540512084960938,1.273330688476562,-0.1900482177734375,1,0.99
2020-05-16 12:13:17.428 -0400,9627.603652125001,1.196426391601562,0.7585906982421875,-0.771087646484375,1,0.99
2020-05-16 12:13:17.497 -0400,9627.673503125001,0.6589508056640625,0.771728515625,-0.4073028564453125,1,0.99
2020-05-16 12:13:17.567 -0400,9627.743352125,0.2369232177734375,0.503997802734375,-0.2622222900390625,1,0.99
2020-05-16 12:13:17.637 -0400,9627.813202125,0.1573333740234375,0.60711669921875,-0.2441864013671875,1,0.99
2020-05-16 12:13:17.707 -0400,9627.883055125001,0.1558074951171875,0.5298309326171875,-0.15325927734375,1,0.99
2020-05-16 12:13:17.777 -0400,9627.952905875001,0.4921417236328125,0.6353302001953125,-0.0958251953125,1,0.99
2020-05-16 12:13:17.847 -0400,9628.022756875,2.329345703125,0.9756011962890625,-0.1406707763671875,1,0.99
2020-05-16 12:13:17.916 -0400,9628.092606875001,1.984939575195312,0.894073486328125,-0.4117584228515625,1,0.99
2020-05-16 12:13:17.986 -0400,9628.162452875,0.93927001953125,0.3440093994140625,-0.43853759765625,1,0.99
2020-05-16 12:13:18.056 -0400,9628.232304875,0.5943603515625,0.2406768798828125,-0.2320404052734375,1,0.99
2020-05-16 12:13:18.126 -0400,9628.302161875001,0.3819732666015625,0.124664306640625,-0.2387237548828125,1,0.99
2020-05-16 12:13:18.196 -0400,9628.372015875,0.2686614990234375,0.0747222900390625,-0.20587158203125,1,0.99
2020-05-16 12:13:18.266 -0400,9628.441871875,0.30548095703125,0.080169677734375,-0.1102294921875,1,0.99
2020-05-16 12:13:18.336 -0400,9628.511727875,0.5147552490234375,0.5082855224609375,-0.3542633056640625,1,0.99
2020-05-16 12:13:18.406 -0400,9628.581580875001,1.437652587890625,1.109817504882812,-0.3943023681640625,1,0.99
2020-05-16 12:13:18.475 -0400,9628.651436875001,0.8845367431640625,1.007217407226562,-0.900604248046875,1,0.99
2020-05-16 12:13:18.545 -0400,9628.721290875001,0.77117919921875,0.7591400146484375,-0.4269866943359375,1,0.99
2020-05-16 12:13:18.615 -0400,9628.791142875001,0.479644775390625,0.7484283447265625,-0.3552703857421875,1,0.99
2020-05-16 12:13:18.685 -0400,9628.860992875001,0.2836761474609375,0.8489532470703125,-0.2971954345703125,1,0.99
2020-05-16 12:13:18.755 -0400,9628.930845500001,0.38800048828125,0.6086578369140625,-0.1896820068359375,1,0.99
2020-05-16 12:13:18.825 -0400,9629.0006945,1.019378662109375,0.8040313720703125,-0.21923828125,1,0.99
2020-05-16 12:13:18.894 -0400,9629.0705485,2.039764404296875,0.721099853515625,-0.0721435546875,1,0.99
2020-05-16 12:13:18.964 -0400,9629.1403995,1.631790161132812,0.5130767822265625,-0.2656707763671875,1,0.99
2020-05-16 12:13:19.034 -0400,9629.210248500001,1.177871704101562,0.3704986572265625,-0.11065673828125,1,0.99
2020-05-16 12:13:19.104 -0400,9629.2800945,0.6662445068359375,0.1926422119140625,-0.1152191162109375,1,0.99
2020-05-16 12:13:19.174 -0400,9629.349938500001,0.478729248046875,0.1801910400390625,-0.116119384765625,1,0.99
2020-05-16 12:13:19.244 -0400,9629.419786500001,0.4673004150390625,0.155181884765625,-0.152008056640625,1,0.99
2020-05-16 12:13:19.314 -0400,9629.489632500001,0.4736175537109375,0.14111328125,-0.1163330078125,1,0.99
2020-05-16 12:13:19.383 -0400,9629.559476500001,0.924041748046875,0.67987060546875,-0.3605194091796875,1,0.99
2020-05-16 12:13:19.453 -0400,9629.6293195,1.374649047851562,0.7794952392578125,-0.5955963134765625,1,0.99
2020-05-16 12:13:19.523 -0400,9629.699167500001,1.442123413085938,1.076507568359375,-0.5915069580078125,1,0.99
2020-05-16 12:13:19.593 -0400,9629.7690115,0.8304443359375,0.701995849609375,-0.3573455810546875,1,0.99
2020-05-16 12:13:19.663 -0400,9629.8388615,0.42767333984375,0.7540130615234375,-0.2323760986328125,1,0.99
2020-05-16 12:13:19.733 -0400,9629.908712,0.34722900390625,0.7511138916015625,-0.1392822265625,1,0.99
2020-05-16 12:13:19.802 -0400,9629.978558000001,0.6383056640625,0.7595367431640625,-0.1352081298828125,1,0.99
2020-05-16 12:13:19.872 -0400,9630.048401,0.6750946044921875,0.6600799560546875,-0.1954803466796875,1,0.99
2020-05-16 12:13:19.942 -0400,9630.118245000001,0.875579833984375,0.79608154296875,-0.2486572265625,1,0.99
2020-05-16 12:13:20.012 -0400,9630.188089000001,2.110275268554688,1.091659545898438,-0.3157958984375,1,0.99
2020-05-16 12:13:20.082 -0400,9630.257936,1.402755737304688,0.6085662841796875,-0.25103759765625,1,0.99
2020-05-16 12:13:20.152 -0400,9630.327789000001,1.027755737304688,0.4641876220703125,-0.2619781494140625,1,0.99
2020-05-16 12:13:20.222 -0400,9630.397642,0.6978912353515625,0.253875732421875,-0.2489013671875,1,0.99
2020-05-16 12:13:20.291 -0400,9630.467493,0.5171356201171875,0.2002410888671875,-0.20245361328125,1,0.99
2020-05-16 12:13:20.361 -0400,9630.537340000001,0.4723968505859375,0.3169708251953125,-0.1952056884765625,1,0.99
2020-05-16 12:13:20.431 -0400,9630.607185000001,0.215972900390625,1.055740356445312,-0.3180084228515625,1,0.99
2020-05-16 12:13:20.501 -0400,9630.677032000001,-0.75640869140625,1.09271240234375,-0.352142333984375,1,0.99
2020-05-16 12:13:20.571 -0400,9630.746879,0.0531005859375,1.52288818359375,-0.2156219482421875,1,0.99
2020-05-16 12:13:20.641 -0400,9630.816726000001,0.0965576171875,1.281341552734375,-0.542327880859375,1,0.99
2020-05-16 12:13:20.710 -0400,9630.886574,-0.2643280029296875,0.9488372802734375,-0.4992828369140625,1,0.99
2020-05-16 12:13:20.780 -0400,9630.956416625,-0.430633544921875,0.51849365234375,-0.3566741943359375,1,0.99
2020-05-16 12:13:20.850 -0400,9631.026258625001,-0.626617431640625,0.4043731689453125,-0.24853515625,1,0.99
2020-05-16 12:13:20.920 -0400,9631.096097625001,-0.9528961181640625,0.63275146484375,-0.2429962158203125,1,0.99
2020-05-16 12:13:20.990 -0400,9631.165942625001,-1.002883911132812,0.615997314453125,-0.27056884765625,1,0.99
2020-05-16 12:13:21.060 -0400,9631.235783625001,-0.819976806640625,0.368682861328125,-0.2092742919921875,1,0.99
2020-05-16 12:13:21.129 -0400,9631.305623625001,-0.880584716796875,0.27984619140625,-0.0819091796875,1,0.99
2020-05-16 12:13:21.199 -0400,9631.375466625001,-1.378875732421875,0.39056396484375,-0.3008880615234375,1,0.99
2020-05-16 12:13:21.280 -0400,9631.445306625001,-0.8998870849609375,1.118637084960938,-0.5733489990234375,1,0.99
2020-05-16 12:13:21.339 -0400,9631.515149625,-0.7453460693359375,0.2017974853515625,-0.2215728759765625,1,0.99
2020-05-16 12:13:21.409 -0400,9631.584987625001,-0.507904052734375,0.26568603515625,-0.1874237060546875,1,0.99
2020-05-16 12:13:21.479 -0400,9631.654826625001,-0.3676910400390625,0.5567474365234375,-0.064300537109375,1,0.99
2020-05-16 12:13:21.548 -0400,9631.724666625001,-0.517913818359375,0.234375,-0.27239990234375,1,0.99
2020-05-16 12:13:21.618 -0400,9631.794508625,-0.528167724609375,0.00909423828125,-0.4490966796875,1,0.99
2020-05-16 12:13:21.688 -0400,9631.864350625001,-0.667877197265625,-0.81072998046875,-1.412979125976562,1,0.99
2020-05-16 12:13:21.758 -0400,9631.934193625,-0.83978271484375,-0.561553955078125,-0.50799560546875,1,0.99
2020-05-16 12:13:21.828 -0400,9632.004039625001,-0.47906494140625,-0.0777435302734375,-0.587158203125,1,0.99
2020-05-16 12:13:21.898 -0400,9632.073885625001,-0.336669921875,-0.110260009765625,-0.229034423828125,1,0.99
2020-05-16 12:13:21.968 -0400,9632.143728625,-0.2429656982421875,-0.2651824951171875,-0.208465576171875,1,0.99
2020-05-16 12:13:22.060 -0400,9632.213569625001,-0.5251312255859375,-0.901947021484375,-0.197601318359375,1,0.99
2020-05-16 12:13:22.122 -0400,9632.293391625,-0.92987060546875,-1.06170654296875,-0.6171875,1,0.99
2020-05-16 12:13:22.237 -0400,9632.413125625,-1.493423461914062,-1.175125122070312,-0.5492706298828125,1,0.99
2020-05-16 12:13:22.357 -0400,9632.532865625,-0.43695068359375,-0.4185943603515625,-0.3018035888671875,1,0.99
2020-05-16 12:13:22.476 -0400,9632.652602625001,0.137176513671875,-0.37249755859375,-0.848968505859375,1,0.99
2020-05-16 12:13:22.596 -0400,9632.772329625001,-0.456695556640625,-0.853485107421875,-0.23809814453125,1,0.99
2020-05-16 12:13:22.716 -0400,9632.892055625001,-0.82342529296875,-1.697647094726562,-0.5797882080078125,1,0.99
2020-05-16 12:13:22.836 -0400,9633.011785750001,-0.4734039306640625,-0.7277679443359375,-0.5652923583984375,1,0.99
2020-05-16 12:13:22.955 -0400,9633.131514750001,-0.118408203125,-0.3490447998046875,0.02862548828125,1,0.99
2020-05-16 12:13:23.083 -0400,9633.251238750001,0.1183929443359375,-0.355743408203125,0.1459197998046875,1,0.99
2020-05-16 12:13:23.195 -0400,9633.370962750001,-0.48779296875,-0.2042083740234375,0.43890380859375,1,0.99
2020-05-16 12:13:23.315 -0400,9633.49069375,0.115936279296875,2.409835815429688,-0.005523681640625,1,0.99
2020-05-16 12:13:23.434 -0400,9633.610425750001,0.483001708984375,1.872695922851562,-1.233795166015625,1,0.99
2020-05-16 12:13:23.554 -0400,9633.73015675,0.2110595703125,0.1238861083984375,-0.5025787353515625,1,0.99
2020-05-16 12:13:23.654 -0400,9633.82993575,0.5019073486328125,0.2870635986328125,-0.2772369384765625,1,0.99
2020-05-16 12:13:23.724 -0400,9633.89978175,1.264816284179688,0.25531005859375,0.1884765625,1,0.99
2020-05-16 12:13:23.801 -0400,9633.96962675,2.398590087890625,1.729019165039062,-0.488067626953125,1,0.99
2020-05-16 12:13:23.864 -0400,9634.039472750001,1.268524169921875,0.343292236328125,-0.010162353515625,1,0.99
2020-05-16 12:13:23.933 -0400,9634.10931675,0.6576690673828125,0.4418792724609375,-0.0945281982421875,1,0.99
2020-05-16 12:13:24.003 -0400,9634.17916075,0.223175048828125,0.0867919921875,-0.2867431640625,1,0.99
2020-05-16 12:13:24.073 -0400,9634.24899975,-0.027191162109375,0.40924072265625,-0.1213836669921875,1,0.99
2020-05-16 12:13:24.143 -0400,9634.31884075,0.0148773193359375,0.477752685546875,-0.109344482421875,1,0.99
2020-05-16 12:13:24.213 -0400,9634.388683750001,0.9814605712890625,1.033859252929688,0.068878173828125,1,0.99
2020-05-16 12:13:24.283 -0400,9634.45852475,2.384963989257812,0.9221343994140625,0.045166015625,1,0.99
2020-05-16 12:13:24.352 -0400,9634.528361750001,1.331985473632812,0.4526214599609375,-0.3723602294921875,1,0.99
2020-05-16 12:13:24.422 -0400,9634.59819875,1.153976440429688,0.7831878662109375,-0.1206207275390625,1,0.99
2020-05-16 12:13:24.492 -0400,9634.668040750001,0.81591796875,0.0857391357421875,-0.070892333984375,1,0.99
2020-05-16 12:13:24.562 -0400,9634.73787875,0.37237548828125,-0.0572509765625,-0.01177978515625,1,0.99
2020-05-16 12:13:24.632 -0400,9634.807719750001,0.3378143310546875,0.0334014892578125,-0.03167724609375,1,0.99
2020-05-16 12:13:24.701 -0400,9634.87755775,0.4341278076171875,-0.01715087890625,0.0509490966796875,1,0.99
2020-05-16 12:13:24.771 -0400,9634.947400875,1.617950439453125,1.76092529296875,-0.52197265625,1,0.99
2020-05-16 12:13:24.841 -0400,9635.017243875001,1.241226196289062,0.09722900390625,-0.9554901123046875,1,0.99
2020-05-16 12:13:24.911 -0400,9635.087086875001,1.572372436523438,1.311630249023438,-0.65814208984375,1,0.99
2020-05-16 12:13:24.981 -0400,9635.156927875001,0.824066162109375,0.3649444580078125,-0.5626068115234375,1,0.99
2020-05-16 12:13:25.051 -0400,9635.226770875001,0.4268341064453125,0.7963104248046875,-0.4879913330078125,1,0.99
2020-05-16 12:13:25.120 -0400,9635.296610875001,0.20050048828125,0.972625732421875,-0.3355255126953125,1,0.99
2020-05-16 12:13:25.190 -0400,9635.366452875001,0.5356903076171875,0.8316650390625,-0.1083526611328125,1,0.99
2020-05-16 12:13:25.260 -0400,9635.436297875001,3.313400268554688,1.841232299804688,-0.2745513916015625,1,0.99
2020-05-16 12:13:25.330 -0400,9635.506139875,2.31689453125,0.0547637939453125,-0.210235595703125,1,0.99
2020-05-16 12:13:25.400 -0400,9635.575979875,1.546615600585938,0.82061767578125,-0.0577239990234375,1,0.99
2020-05-16 12:13:25.470 -0400,9635.645822875,1.53277587890625,0.4702301025390625,0.018707275390625,1,0.99
2020-05-16 12:13:25.540 -0400,9635.715665875001,1.009872436523438,0.00726318359375,0.087890625,1,0.99
2020-05-16 12:13:25.609 -0400,9635.785513875,0.6336669921875,-0.51849365234375,0.166229248046875,1,0.99
2020-05-16 12:13:25.679 -0400,9635.855361875001,0.215972900390625,-0.33233642578125,-0.212860107421875,1,0.99
2020-05-16 12:13:25.749 -0400,9635.925209541667,0.328857421875,1.055892944335938,-0.0800933837890625,1,0.99
2020-05-16 12:13:25.819 -0400,9635.995054541667,1.550277709960938,0.5354461669921875,-0.697052001953125,1,0.99
2020-05-16 12:13:25.889 -0400,9636.064901541667,1.247634887695312,1.512420654296875,-0.2905731201171875,1,0.99
2020-05-16 12:13:25.958 -0400,9636.134749541667,0.2888336181640625,0.757049560546875,-0.2717742919921875,1,0.99
2020-05-16 12:13:26.029 -0400,9636.204588541666,-0.2205963134765625,0.7537689208984375,-0.037078857421875,1,0.99
2020-05-16 12:13:26.098 -0400,9636.274427541668,-0.0623779296875,0.8026275634765625,0.0721893310546875,1,0.99
2020-05-16 12:13:26.168 -0400,9636.344268541667,3.6185302734375,2.298248291015625,0.4930877685546875,1,0.99
2020-05-16 12:13:26.238 -0400,9636.414110541667,1.751785278320312,0.26885986328125,-0.1208648681640625,1,0.99
2020-05-16 12:13:26.308 -0400,9636.483955541667,1.527999877929688,0.4232025146484375,-0.085601806640625,1,0.99
2020-05-16 12:13:26.378 -0400,9636.553803541667,0.9483642578125,0.3323974609375,-0.2498016357421875,1,0.99
2020-05-16 12:13:26.447 -0400,9636.623648541667,0.625640869140625,0.1416778564453125,-0.074371337890625,1,0.99
2020-05-16 12:13:26.517 -0400,9636.693493541667,0.5077056884765625,-0.0047607421875,-0.0606536865234375,1,0.99
2020-05-16 12:13:26.587 -0400,9636.763334541667,0.382049560546875,-0.0338592529296875,-0.079681396484375,1,0.99
2020-05-16 12:13:26.657 -0400,9636.833177541666,0.4299163818359375,0.274658203125,0.0404205322265625,1,0.99
2020-05-16 12:13:26.727 -0400,9636.903024541667,1.548370361328125,2.4339599609375,-0.0159759521484375,1,0.99
2020-05-16 12:13:26.797 -0400,9636.972875125,1.98590087890625,0.8924713134765625,-0.7042694091796875,1,0.99
2020-05-16 12:13:26.867 -0400,9637.042722125001,1.325637817382812,1.178176879882812,0.1534271240234375,1,0.99
2020-05-16 12:13:26.936 -0400,9637.112571125001,0.6190185546875,0.6358184814453125,-0.0222930908203125,1,0.99
2020-05-16 12:13:27.006 -0400,9637.182423125001,0.3717803955078125,0.704315185546875,0.0175933837890625,1,0.99
2020-05-16 12:13:27.076 -0400,9637.252272125001,0.8108673095703125,0.910308837890625,0.15594482421875,1,0.99
2020-05-16 12:13:27.146 -0400,9637.322120125,0.9949798583984375,1.123565673828125,0.3684234619140625,1,0.99
2020-05-16 12:13:27.216 -0400,9637.391969125001,1.367263793945312,1.045150756835938,-0.25823974609375,1,0.99
2020-05-16 12:13:27.286 -0400,9637.461814125001,1.54425048828125,1.177490234375,-0.2541656494140625,1,0.99
2020-05-16 12:13:27.356 -0400,9637.531663125001,1.886123657226562,0.5990142822265625,-0.0624847412109375,1,0.99
2020-05-16 12:13:27.425 -0400,9637.601512125,1.462234497070312,-0.0278472900390625,-0.2080078125,1,0.99
2020-05-16 12:13:27.496 -0400,9637.671358125001,1.07763671875,0.2833709716796875,-0.1860198974609375,1,0.99
2020-05-16 12:13:27.565 -0400,9637.741207125,0.7784271240234375,0.26336669921875,-0.1065826416015625,1,0.99
2020-05-16 12:13:27.635 -0400,9637.811059125001,0.432586669921875,0.0965576171875,-0.0417938232421875,1,0.99
2020-05-16 12:13:27.705 -0400,9637.880911125001,0.2715911865234375,0.0860595703125,-0.085174560546875,1,0.99
2020-05-16 12:13:27.775 -0400,9637.950763000001,0.5251007080078125,0.3226776123046875,-0.1361083984375,1,0.99
2020-05-16 12:13:27.844 -0400,9638.020610000001,0.6551513671875,1.254913330078125,-0.5630645751953125,1,0.99
2020-05-16 12:13:27.914 -0400,9638.090459000001,1.754837036132812,0.65704345703125,-0.391998291015625,1,0.99
2020-05-16 12:13:27.984 -0400,9638.160307,1.647705078125,1.018585205078125,-0.3478240966796875,1,0.99
2020-05-16 12:13:28.054 -0400,9638.230159000001,0.631561279296875,0.568084716796875,-0.1519775390625,1,0.99
2020-05-16 12:13:28.124 -0400,9638.300011000001,0.6100921630859375,0.647003173828125,-0.13031005859375,1,0.99
2020-05-16 12:13:28.194 -0400,9638.369858,0.6747894287109375,0.769561767578125,-0.056793212890625,1,0.99
2020-05-16 12:13:28.263 -0400,9638.439700000001,0.8880767822265625,0.9545745849609375,-0.1781005859375,1,0.99
2020-05-16 12:13:28.334 -0400,9638.509545000001,1.738189697265625,1.26763916015625,-0.27825927734375,1,0.99
2020-05-16 12:13:28.403 -0400,9638.579389,1.696670532226562,0.51495361328125,-0.3564300537109375,1,0.99
2020-05-16 12:13:28.473 -0400,9638.649232,1.839874267578125,0.5068817138671875,-0.177154541015625,1,0.99
2020-05-16 12:13:28.543 -0400,9638.719073,0.9522552490234375,0.2702789306640625,-0.2696533203125,1,0.99
2020-05-16 12:13:28.613 -0400,9638.788915000001,0.6535797119140625,0.3317718505859375,-0.087860107421875,1,0.99
2020-05-16 12:13:28.683 -0400,9638.858755000001,0.66534423828125,0.261962890625,-0.07696533203125,1,0.99
2020-05-16 12:13:28.752 -0400,9638.928599875,0.767730712890625,0.1666259765625,-0.0372314453125,1,0.99
2020-05-16 12:13:28.822 -0400,9638.998439875,0.5824737548828125,0.1282958984375,-0.0167999267578125,1,0.99
2020-05-16 12:13:28.892 -0400,9639.068280875001,0.9997406005859375,0.5592193603515625,-0.105010986328125,1,0.99
2020-05-16 12:13:28.962 -0400,9639.138121875001,1.467193603515625,0.99700927734375,-0.5402984619140625,1,0.99
2020-05-16 12:13:29.032 -0400,9639.207961875001,1.44293212890625,0.60400390625,-0.3645782470703125,1,0.99
2020-05-16 12:13:29.102 -0400,9639.277800875001,0.9619903564453125,0.462646484375,-0.253570556640625,1,0.99
2020-05-16 12:13:29.171 -0400,9639.347641875,0.681396484375,0.6449127197265625,-0.0581512451171875,1,0.99
2020-05-16 12:13:29.242 -0400,9639.417484875001,0.82611083984375,0.8449859619140625,-0.1839599609375,1,0.99
2020-05-16 12:13:29.311 -0400,9639.487325875001,1.073898315429688,1.338607788085938,-0.2318267822265625,1,0.99
2020-05-16 12:13:29.382 -0400,9639.557165875001,1.451873779296875,0.6746063232421875,-0.3295745849609375,1,0.99
2020-05-16 12:13:29.451 -0400,9639.627013875001,1.73760986328125,0.72869873046875,-0.3836822509765625,1,0.99
2020-05-16 12:13:29.521 -0400,9639.696854875001,2.022659301757812,0.4509429931640625,-0.2855682373046875,1,0.99
2020-05-16 12:13:29.591 -0400,9639.766691875,1.050323486328125,0.2606964111328125,-0.21484375,1,0.99
2020-05-16 12:13:29.660 -0400,9639.836533875001,0.767181396484375,0.340301513671875,-0.0533294677734375,1,0.99
2020-05-16 12:13:29.730 -0400,9639.906370875,0.748046875,0.246429443359375,0.0273284912109375,1,0.99
2020-05-16 12:13:29.800 -0400,9639.976208291668,0.9311676025390625,0.1773681640625,0.0150909423828125,1,0.99
2020-05-16 12:13:29.870 -0400,9640.046047291667,0.6851043701171875,0.1923065185546875,-0.0887298583984375,1,0.99
2020-05-16 12:13:29.940 -0400,9640.115886291667,0.85162353515625,0.3931732177734375,-0.083251953125,1,0.99
2020-05-16 12:13:30.009 -0400,9640.185729291667,1.4140625,0.848297119140625,-0.708038330078125,1,0.99
2020-05-16 12:13:30.080 -0400,9640.255571291667,1.490554809570312,0.4611968994140625,-0.1378631591796875,1,0.99
2020-05-16 12:13:30.149 -0400,9640.325412291668,1.084609985351562,0.5975341796875,-0.325653076171875,1,0.99
2020-05-16 12:13:30.219 -0400,9640.395252291668,0.817840576171875,0.7438507080078125,-0.2049407958984375,1,0.99
2020-05-16 12:13:30.289 -0400,9640.465092291668,0.7787628173828125,0.907928466796875,-0.27508544921875,1,0.99
2020-05-16 12:13:30.359 -0400,9640.534935291667,1.175735473632812,1.170761108398438,-0.5635833740234375,1,0.99
2020-05-16 12:13:30.429 -0400,9640.604779291667,1.5570068359375,0.6303558349609375,-0.573486328125,1,0.99
2020-05-16 12:13:30.498 -0400,9640.674625291667,1.203765869140625,0.563323974609375,-0.4483795166015625,1,0.99
2020-05-16 12:13:30.568 -0400,9640.744470291667,1.944488525390625,0.4514923095703125,-0.2936553955078125,1,0.99
2020-05-16 12:13:30.638 -0400,9640.814314291667,1.307022094726562,0.310546875,-0.20135498046875,1,0.99
2020-05-16 12:13:30.708 -0400,9640.884153291667,0.7499237060546875,0.35137939453125,-0.073394775390625,1,0.99
2020-05-16 12:13:30.778 -0400,9640.953991916667,0.6014862060546875,0.37725830078125,-0.04327392578125,1,0.99
2020-05-16 12:13:30.848 -0400,9641.023833916668,0.7751922607421875,0.2965087890625,-0.0306243896484375,1,0.99
2020-05-16 12:13:30.917 -0400,9641.093672916668,0.954986572265625,0.1259307861328125,-0.062408447265625,1,0.99
2020-05-16 12:13:30.987 -0400,9641.163514916667,0.83221435546875,0.175811767578125,-0.1351776123046875,1,0.99
2020-05-16 12:13:31.057 -0400,9641.233357916668,0.930999755859375,0.538330078125,-0.3696746826171875,1,0.99
2020-05-16 12:13:31.127 -0400,9641.303204916667,1.333358764648438,0.6231231689453125,-0.4281005859375,1,0.99
2020-05-16 12:13:31.197 -0400,9641.373049916667,1.155807495117188,0.3162994384765625,-0.3392486572265625,1,0.99
2020-05-16 12:13:31.270 -0400,9641.442893916666,0.9236602783203125,0.4578094482421875,-0.355072021484375,1,0.99
2020-05-16 12:13:31.337 -0400,9641.512740916667,0.9164886474609375,0.6812744140625,-0.3511199951171875,1,0.99
2020-05-16 12:13:31.407 -0400,9641.582588916668,0.9962921142578125,0.6821441650390625,-0.5224456787109375,1,0.99
2020-05-16 12:13:31.476 -0400,9641.652434916667,1.179290771484375,0.6445159912109375,-0.61859130859375,1,0.99
2020-05-16 12:13:31.546 -0400,9641.722281916667,1.329879760742188,0.64312744140625,-0.511138916015625,1,0.99
2020-05-16 12:13:31.616 -0400,9641.792126916667,1.084808349609375,0.462493896484375,-0.3963623046875,1,0.99
2020-05-16 12:13:31.686 -0400,9641.861972916668,1.438735961914062,0.4797821044921875,-0.172515869140625,1,0.99
2020-05-16 12:13:31.756 -0400,9641.931818000001,1.079010009765625,0.28564453125,-0.1101837158203125,1,0.99
2020-05-16 12:13:31.825 -0400,9642.001663000001,0.8219757080078125,0.3549041748046875,-0.054473876953125,1,0.99
2020-05-16 12:13:31.895 -0400,9642.07151,0.759429931640625,0.3584136962890625,-0.0280609130859375,1,0.99
2020-05-16 12:13:31.965 -0400,9642.141354000001,0.9447174072265625,0.267913818359375,-0.0067901611328125,1,0.99
2020-05-16 12:13:32.035 -0400,9642.211198000001,0.997802734375,0.2829132080078125,-0.1280670166015625,1,0.99
2020-05-16 12:13:32.105 -0400,9642.281049000001,0.95538330078125,0.29034423828125,-0.1537322998046875,1,0.99
2020-05-16 12:13:32.175 -0400,9642.350895000001,1.085891723632812,0.4306793212890625,-0.525115966796875,1,0.99
2020-05-16 12:13:32.244 -0400,9642.420745000001,1.316177368164062,0.2857666015625,-0.1477203369140625,1,0.99
2020-05-16 12:13:32.315 -0400,9642.490595000001,0.949066162109375,0.312835693359375,-0.3601226806640625,1,0.99
2020-05-16 12:13:32.384 -0400,9642.560444000001,0.7718658447265625,0.5623931884765625,-0.2646636962890625,1,0.99
2020-05-16 12:13:32.454 -0400,9642.630291000001,0.89263916015625,0.56292724609375,-0.2434539794921875,1,0.99
2020-05-16 12:13:32.524 -0400,9642.700136000001,1.01806640625,0.548614501953125,-0.3623504638671875,1,0.99
2020-05-16 12:13:32.594 -0400,9642.769981000001,1.4486083984375,0.621917724609375,-0.410491943359375,1,0.99
2020-05-16 12:13:32.664 -0400,9642.839822,1.211837768554688,0.602508544921875,-0.4934234619140625,1,0.99
2020-05-16 12:13:32.733 -0400,9642.909667,1.457809448242188,0.39141845703125,-0.3217010498046875,1,0.99
2020-05-16 12:13:32.803 -0400,9642.979510250001,1.438522338867188,0.216522216796875,-0.1376800537109375,1,0.99
2020-05-16 12:13:32.873 -0400,9643.049356250001,0.839935302734375,0.3628387451171875,-0.158782958984375,1,0.99
2020-05-16 12:13:32.943 -0400,9643.11920225,0.582275390625,0.36572265625,0.01800537109375,1,0.99
2020-05-16 12:13:33.013 -0400,9643.18904325,0.6330413818359375,0.2998809814453125,0.05133056640625,1,0.99
2020-05-16 12:13:33.083 -0400,9643.258884250001,0.9373626708984375,0.2678070068359375,0.0577239990234375,1,0.99
2020-05-16 12:13:33.153 -0400,9643.32872725,1.04229736328125,0.3057861328125,-0.0916900634765625,1,0.99
2020-05-16 12:13:33.222 -0400,9643.398569250001,1.23895263671875,0.3015899658203125,-0.105499267578125,1,0.99
2020-05-16 12:13:33.292 -0400,9643.468410250001,1.295364379882812,0.4844512939453125,-0.4193572998046875,1,0.99
2020-05-16 12:13:33.362 -0400,9643.53825725,1.506744384765625,0.3485870361328125,-0.3400115966796875,1,0.99
2020-05-16 12:13:33.432 -0400,9643.60810125,0.9313507080078125,0.149200439453125,-0.3728790283203125,1,0.99
2020-05-16 12:13:33.502 -0400,9643.67794725,0.6941375732421875,0.351715087890625,-0.2452850341796875,1,0.99
2020-05-16 12:13:33.572 -0400,9643.747793250001,0.53057861328125,0.520660400390625,-0.1924285888671875,1,0.99
2020-05-16 12:13:33.641 -0400,9643.817639250001,0.66156005859375,0.616912841796875,-0.3283843994140625,1,0.99
2020-05-16 12:13:33.712 -0400,9643.88748225,1.332122802734375,0.79656982421875,-0.4974822998046875,1,0.99
2020-05-16 12:13:33.781 -0400,9643.957324500001,1.233367919921875,0.6475372314453125,-0.5189056396484375,1,0.99
2020-05-16 12:13:33.851 -0400,9644.027164500001,1.591552734375,0.4467315673828125,-0.411407470703125,1,0.99
2020-05-16 12:13:33.921 -0400,9644.097008500001,1.639968872070312,0.2049713134765625,-0.140869140625,1,0.99
2020-05-16 12:13:33.991 -0400,9644.1668515,0.9049072265625,0.282684326171875,-0.220489501953125,1,0.99
2020-05-16 12:13:34.061 -0400,9644.236694500001,0.6412353515625,0.4133453369140625,0.00213623046875,1,0.99
2020-05-16 12:13:34.130 -0400,9644.306533500001,0.85498046875,0.3368988037109375,0.057342529296875,1,0.99
2020-05-16 12:13:34.200 -0400,9644.376377500001,1.034622192382812,0.2199554443359375,0.005889892578125,1,0.99
2020-05-16 12:13:34.270 -0400,9644.446219500001,0.8637237548828125,0.182586669921875,-0.03387451171875,1,0.99
2020-05-16 12:13:34.340 -0400,9644.5160605,0.777862548828125,0.33447265625,-0.0955352783203125,1,0.99
2020-05-16 12:13:34.410 -0400,9644.5859055,1.31890869140625,0.4985504150390625,-0.4366607666015625,1,0.99
2020-05-16 12:13:34.480 -0400,9644.6557555,1.41619873046875,0.4505462646484375,-0.17669677734375,1,0.99
2020-05-16 12:13:34.549 -0400,9644.725602500001,0.8738861083984375,0.3592071533203125,-0.3742828369140625,1,0.99
2020-05-16 12:13:34.619 -0400,9644.7954465,0.7374114990234375,0.559173583984375,-0.252471923828125,1,0.99
2020-05-16 12:13:34.689 -0400,9644.865294500001,0.8267822265625,0.6668548583984375,-0.4541778564453125,1,0.99
2020-05-16 12:13:34.759 -0400,9644.935143500001,0.988037109375,0.5561981201171875,-0.552703857421875,1,0.99
2020-05-16 12:13:34.829 -0400,9645.0049925,1.608642578125,0.7036285400390625,-0.6401519775390625,1,0.99
2020-05-16 12:13:34.899 -0400,9645.0748415,1.18524169921875,0.3860626220703125,-0.5229949951171875,1,0.99
2020-05-16 12:13:34.969 -0400,9645.1446885,1.777908325195312,0.3734893798828125,-0.1764984130859375,1,0.99
2020-05-16 12:13:35.038 -0400,9645.2145385,1.244049072265625,0.383148193359375,-0.155181884765625,1,0.99
2020-05-16 12:13:35.108 -0400,9645.284389500001,0.766021728515625,0.3791656494140625,-0.055145263671875,1,0.99
2020-05-16 12:13:35.178 -0400,9645.3542395,0.631256103515625,0.391876220703125,0.0738372802734375,1,0.99
2020-05-16 12:13:35.248 -0400,9645.424085500001,0.6671600341796875,0.2834014892578125,0.0653076171875,1,0.99
2020-05-16 12:13:35.318 -0400,9645.4939345,0.782073974609375,0.2176055908203125,0.0508575439453125,1,0.99
2020-05-16 12:13:35.388 -0400,9645.563782500001,0.81597900390625,0.232757568359375,-0.08843994140625,1,0.99
2020-05-16 12:13:35.457 -0400,9645.633633500001,0.87335205078125,0.40362548828125,-0.1684722900390625,1,0.99
2020-05-16 12:13:35.528 -0400,9645.7034805,1.551437377929688,0.6171722412109375,-0.64947509765625,1,0.99
2020-05-16 12:13:35.597 -0400,9645.773322500001,1.306900024414062,0.3328704833984375,-0.318603515625,1,0.99
2020-05-16 12:13:35.667 -0400,9645.843161500001,0.8946990966796875,0.16143798828125,-0.3590240478515625,1,0.99
2020-05-16 12:13:35.737 -0400,9645.9130045,0.8486785888671875,0.6875152587890625,-0.285919189453125,1,0.99
2020-05-16 12:13:35.807 -0400,9645.982847625,0.6705169677734375,0.759033203125,-0.4185638427734375,1,0.99
2020-05-16 12:13:35.876 -0400,9646.052690625,0.9760284423828125,0.6769561767578125,-0.4507598876953125,1,0.99
2020-05-16 12:13:35.946 -0400,9646.122529625001,1.309402465820312,0.7216339111328125,-0.4641876220703125,1,0.99
2020-05-16 12:13:36.016 -0400,9646.192372625001,1.650070190429688,0.6561279296875,-0.50860595703125,1,0.99
2020-05-16 12:13:36.086 -0400,9646.262213625001,1.82501220703125,0.30560302734375,-0.2675628662109375,1,0.99
2020-05-16 12:13:36.156 -0400,9646.332061625,1.051620483398438,0.379364013671875,-0.31658935546875,1,0.99
2020-05-16 12:13:36.226 -0400,9646.401907625001,0.731170654296875,0.363861083984375,-0.1026153564453125,1,0.99
2020-05-16 12:13:36.296 -0400,9646.471755625,0.617462158203125,0.2322998046875,-0.013763427734375,1,0.99
2020-05-16 12:13:36.366 -0400,9646.541598625001,0.6541290283203125,0.1520233154296875,-0.026763916015625,1,0.99
2020-05-16 12:13:36.435 -0400,9646.611442625001,0.620849609375,0.12921142578125,0.007171630859375,1,0.99
2020-05-16 12:13:36.505 -0400,9646.681283625001,0.8178863525390625,0.30694580078125,-0.062530517578125,1,0.99
2020-05-16 12:13:36.575 -0400,9646.751130625,1.428909301757812,0.639434814453125,-0.4970703125,1,0.99
2020-05-16 12:13:36.645 -0400,9646.820972625001,1.621185302734375,0.55548095703125,-0.285400390625,1,0.99
2020-05-16 12:13:36.715 -0400,9646.890813625001,1.068603515625,0.4353485107421875,-0.5406646728515625,1,0.99
2020-05-16 12:13:36.784 -0400,9646.960658916667,0.9059295654296875,0.52362060546875,-0.2563018798828125,1,0.99
2020-05-16 12:13:36.854 -0400,9647.030505916668,0.740142822265625,0.522369384765625,-0.40460205078125,1,0.99
2020-05-16 12:13:36.924 -0400,9647.100349916667,0.69879150390625,0.7554473876953125,-0.457916259765625,1,0.99
2020-05-16 12:13:36.994 -0400,9647.170191916668,1.435333251953125,0.9323577880859375,-0.53009033203125,1,0.99
2020-05-16 12:13:37.064 -0400,9647.240034916667,1.637649536132812,0.381683349609375,-0.5429534912109375,1,0.99
2020-05-16 12:13:37.134 -0400,9647.309871916666,1.896469116210938,0.263885498046875,-0.1920928955078125,1,0.99
2020-05-16 12:13:37.204 -0400,9647.379713916667,1.260589599609375,0.48223876953125,-0.2987518310546875,1,0.99
2020-05-16 12:13:37.273 -0400,9647.449555916668,0.6923828125,0.3240203857421875,-0.0860748291015625,1,0.99
2020-05-16 12:13:37.344 -0400,9647.519394916668,0.6611328125,0.2979888916015625,0.0190887451171875,1,0.99
2020-05-16 12:13:37.413 -0400,9647.589233916668,0.7227935791015625,0.1751556396484375,0.02947998046875,1,0.99
2020-05-16 12:13:37.483 -0400,9647.659073916668,0.7554473876953125,0.11328125,0.0584259033203125,1,0.99
2020-05-16 12:13:37.553 -0400,9647.728916916667,0.743133544921875,0.2901458740234375,-0.064910888671875,1,0.99
2020-05-16 12:13:37.623 -0400,9647.798762916667,1.15753173828125,0.6738739013671875,-0.2954254150390625,1,0.99
2020-05-16 12:13:37.692 -0400,9647.868607916667,1.635055541992188,0.6033935546875,-0.3397064208984375,1,0.99
2020-05-16 12:13:37.762 -0400,9647.93845125,1.08935546875,0.4740447998046875,-0.4277801513671875,1,0.99
2020-05-16 12:13:37.832 -0400,9648.008294250001,0.9570770263671875,0.511962890625,-0.3588409423828125,1,0.99
2020-05-16 12:13:37.902 -0400,9648.07813625,0.8227996826171875,0.6289825439453125,-0.47552490234375,1,0.99
2020-05-16 12:13:37.972 -0400,9648.147979250001,0.843017578125,0.8436279296875,-0.628387451171875,1,0.99
2020-05-16 12:13:38.042 -0400,9648.21782525,1.24871826171875,0.717193603515625,-0.5532379150390625,1,0.99
2020-05-16 12:13:38.117 -0400,9648.28767125,1.545700073242188,0.6554107666015625,-0.581207275390625,1,0.99
2020-05-16 12:13:38.182 -0400,9648.357514250001,2.003524780273438,0.433502197265625,-0.2579345703125,1,0.99
2020-05-16 12:13:38.251 -0400,9648.427358250001,1.20977783203125,0.2904815673828125,-0.1918182373046875,1,0.99
2020-05-16 12:13:38.321 -0400,9648.497202250001,0.74261474609375,0.4333648681640625,-0.037994384765625,1,0.99
2020-05-16 12:13:38.391 -0400,9648.56704125,0.758758544921875,0.3903350830078125,0.0743865966796875,1,0.99
2020-05-16 12:13:38.461 -0400,9648.63688525,1.02227783203125,0.2400054931640625,0.093475341796875,1,0.99
2020-05-16 12:13:38.531 -0400,9648.706729250001,0.746002197265625,0.1553192138671875,0.0225372314453125,1,0.99
2020-05-16 12:13:38.600 -0400,9648.776572250001,0.8097381591796875,0.283782958984375,-0.0962371826171875,1,0.99
2020-05-16 12:13:38.670 -0400,9648.846413250001,1.011367797851562,0.41162109375,-0.4389190673828125,1,0.99
2020-05-16 12:13:38.740 -0400,9648.91625525,1.394729614257812,0.356536865234375,-0.4012451171875,1,0.99
2020-05-16 12:13:38.811 -0400,9648.986096125,1.16033935546875,0.297119140625,-0.34698486328125,1,0.99
2020-05-16 12:13:38.880 -0400,9649.055938125,1.140701293945312,0.7659912109375,-0.5561370849609375,1,0.99
2020-05-16 12:13:38.949 -0400,9649.125782125,0.975555419921875,0.52728271484375,-0.5015106201171875,1,0.99
2020-05-16 12:13:39.019 -0400,9649.195627125,0.989410400390625,0.6602325439453125,-0.5678558349609375,1,0.99
2020-05-16 12:13:39.089 -0400,9649.265474125001,1.365768432617188,0.7408294677734375,-0.5806427001953125,1,0.99
2020-05-16 12:13:39.159 -0400,9649.335323125,1.31915283203125,0.4900970458984375,-0.5700836181640625,1,0.99
2020-05-16 12:13:39.229 -0400,9649.405172125,1.69952392578125,0.3499298095703125,-0.1558074951171875,1,0.99
2020-05-16 12:13:39.299 -0400,9649.475019125,1.172637939453125,0.370086669921875,-0.2392730712890625,1,0.99
2020-05-16 12:13:39.369 -0400,9649.544866125001,0.7767181396484375,0.366943359375,-0.0820159912109375,1,0.99
2020-05-16 12:13:39.439 -0400,9649.614712125001,0.88543701171875,0.39849853515625,0.0208282470703125,1,0.99
2020-05-16 12:13:39.508 -0400,9649.684557125001,1.125396728515625,0.2592926025390625,0.007080078125,1,0.99
2020-05-16 12:13:39.578 -0400,9649.754406125001,0.8343658447265625,0.1453094482421875,0.0269775390625,1,0.99
2020-05-16 12:13:39.648 -0400,9649.824253125,0.744873046875,0.245452880859375,-0.0855255126953125,1,0.99
2020-05-16 12:13:39.718 -0400,9649.894100125,0.9386138916015625,0.466644287109375,-0.4249725341796875,1,0.99
2020-05-16 12:13:39.788 -0400,9649.963948125001,1.470046997070312,0.46368408203125,-0.4809417724609375,1,0.99
2020-05-16 12:13:39.858 -0400,9650.033796125001,0.9409027099609375,0.1323089599609375,-0.3025360107421875,1,0.99
2020-05-16 12:13:39.928 -0400,9650.103645125,1.020950317382812,0.5761260986328125,-0.36724853515625,1,0.99
2020-05-16 12:13:39.997 -0400,9650.173492125001,0.931488037109375,0.837005615234375,-0.5266265869140625,1,0.99
2020-05-16 12:13:40.067 -0400,9650.243336125,0.8119964599609375,0.660919189453125,-0.6507415771484375,1,0.99
2020-05-16 12:13:40.137 -0400,9650.313180125,1.082015991210938,0.6332550048828125,-0.4928741455078125,1,0.99
2020-05-16 12:13:40.207 -0400,9650.383026125,1.652923583984375,0.681915283203125,-0.6499176025390625,1,0.99
2020-05-16 12:13:40.277 -0400,9650.452869125,1.921096801757812,0.111724853515625,-0.2528228759765625,1,0.99
2020-05-16 12:13:40.347 -0400,9650.522711125001,1.584671020507812,0.4829254150390625,-0.2115325927734375,1,0.99
2020-05-16 12:13:40.417 -0400,9650.592552125001,0.999725341796875,0.432159423828125,-0.13140869140625,1,0.99
2020-05-16 12:13:40.486 -0400,9650.662399125,0.80511474609375,0.3033905029296875,0.0733795166015625,1,0.99
2020-05-16 12:13:40.556 -0400,9650.732248125001,0.570098876953125,0.1080474853515625,0.0565643310546875,1,0.99
2020-05-16 12:13:40.626 -0400,9650.802096125,0.5903167724609375,0.128814697265625,0.018341064453125,1,0.99
2020-05-16 12:13:40.696 -0400,9650.871944125001,0.619384765625,0.1414642333984375,-0.010284423828125,1,0.99
2020-05-16 12:13:40.766 -0400,9650.941792791667,0.9306488037109375,0.8529052734375,-0.2028961181640625,1,0.99
2020-05-16 12:13:40.835 -0400,9651.011639791668,1.124404907226562,0.4817352294921875,-0.4244232177734375,1,0.99
2020-05-16 12:13:40.905 -0400,9651.081484791668,1.767715454101562,0.7627410888671875,-0.5315093994140625,1,0.99
2020-05-16 12:13:40.975 -0400,9651.151331791667,1.024383544921875,0.8040618896484375,-0.5041046142578125,1,0.99
2020-05-16 12:13:41.045 -0400,9651.221174791668,0.76190185546875,0.199249267578125,-0.4974365234375,1,0.99
2020-05-16 12:13:41.115 -0400,9651.291021791667,0.7225189208984375,0.6340484619140625,-0.5386505126953125,1,0.99
2020-05-16 12:13:41.185 -0400,9651.360868791668,0.943145751953125,0.7113037109375,-0.6680755615234375,1,0.99
2020-05-16 12:13:41.255 -0400,9651.430713791668,1.6593017578125,0.4888763427734375,-0.561737060546875,1,0.99
2020-05-16 12:13:41.324 -0400,9651.500560791666,1.50067138671875,0.3175048828125,-0.4499359130859375,1,0.99
2020-05-16 12:13:41.394 -0400,9651.570409791668,1.306533813476562,0.1906890869140625,-0.089813232421875,1,0.99
2020-05-16 12:13:41.464 -0400,9651.640257791667,1.3885498046875,0.463531494140625,-0.088165283203125,1,0.99
2020-05-16 12:13:41.534 -0400,9651.710106791666,1.068206787109375,0.431671142578125,-0.009521484375,1,0.99
2020-05-16 12:13:41.604 -0400,9651.779955791668,0.825164794921875,0.3351287841796875,0.0397491455078125,1,0.99
2020-05-16 12:13:41.674 -0400,9651.849802791667,0.6446075439453125,0.2137298583984375,0.0806121826171875,1,0.99
2020-05-16 12:13:41.743 -0400,9651.919648791667,0.3660430908203125,0.184417724609375,0.0461578369140625,1,0.99
2020-05-16 12:13:41.814 -0400,9651.98949,0.3882598876953125,0.225067138671875,-0.05145263671875,1,0.99
2020-05-16 12:13:41.883 -0400,9652.059333000001,0.5495758056640625,0.248626708984375,-0.0878753662109375,1,0.99
2020-05-16 12:13:41.953 -0400,9652.129178000001,1.765670776367188,0.5571746826171875,-0.3533935546875,1,0.99
2020-05-16 12:13:42.023 -0400,9652.199023000001,1.699569702148438,0.7633209228515625,-0.6748046875,1,0.99
2020-05-16 12:13:42.093 -0400,9652.268867000001,1.391448974609375,0.0735321044921875,-0.4047088623046875,1,0.99
2020-05-16 12:13:42.163 -0400,9652.338713000001,1.074798583984375,0.3012237548828125,-0.1844482421875,1,0.99
2020-05-16 12:13:42.232 -0400,9652.408561,0.62506103515625,0.8011322021484375,-0.1204376220703125,1,0.99
2020-05-16 12:13:42.302 -0400,9652.478407000001,0.49468994140625,0.760284423828125,-0.1893463134765625,1,0.99
2020-05-16 12:13:42.372 -0400,9652.548247000001,0.7186431884765625,0.6371307373046875,-0.2759857177734375,1,0.99
2020-05-16 12:13:42.442 -0400,9652.61809,1.071762084960938,0.5301055908203125,-0.352691650390625,1,0.99
2020-05-16 12:13:42.512 -0400,9652.687932000001,1.6307373046875,0.4425201416015625,-0.290740966796875,1,0.99
2020-05-16 12:13:42.582 -0400,9652.757778000001,1.487701416015625,0.30584716796875,-0.3232879638671875,1,0.99
2020-05-16 12:13:42.651 -0400,9652.82762,1.010757446289062,0.35540771484375,-0.208831787109375,1,0.99
2020-05-16 12:13:42.721 -0400,9652.897461,1.04290771484375,0.3821868896484375,-0.118621826171875,1,0.99
2020-05-16 12:13:42.791 -0400,9652.967302000001,0.9139251708984375,0.2989044189453125,-0.006927490234375,1,0.99
2020-05-16 12:13:42.876 -0400,9653.032208000001,0.718109130859375,0.2984619140625,-0.0049896240234375,1,0.99
2020-05-16 12:13:42.921 -0400,9653.097185000001,0.63897705078125,0.315582275390625,0.013214111328125,1,0.99
2020-05-16 12:13:42.993 -0400,9653.162161,0.65966796875,0.3466644287109375,0.008209228515625,1,0.99
2020-05-16 12:13:43.051 -0400,9653.227138,0.81610107421875,0.3726654052734375,-0.03564453125,1,0.99
2020-05-16 12:13:43.116 -0400,9653.292114,0.9802398681640625,0.4220428466796875,-0.115203857421875,1,0.99
2020-05-16 12:13:43.181 -0400,9653.357090000001,1.221343994140625,0.4010772705078125,-0.11407470703125,1,0.99
2020-05-16 12:13:43.246 -0400,9653.422067000001,1.572341918945312,0.609893798828125,-0.2597503662109375,1,0.99
2020-05-16 12:13:43.311 -0400,9653.487043000001,0.656982421875,0.31317138671875,-0.5039520263671875,1,0.99
2020-05-16 12:13:43.376 -0400,9653.552020000001,0.678070068359375,0.353668212890625,-0.4834442138671875,1,0.99
2020-05-16 12:13:43.441 -0400,9653.616996000001,0.7366180419921875,0.9562530517578125,-0.1507720947265625,1,0.99
2020-05-16 12:13:43.506 -0400,9653.681972,0.6004486083984375,0.5329437255859375,-0.0250244140625,1,0.99
2020-05-16 12:13:43.571 -0400,9653.746949,0.6478118896484375,0.8920440673828125,-0.172393798828125,1,0.99
2020-05-16 12:13:43.636 -0400,9653.811925,0.8299407958984375,0.6873321533203125,-0.2042694091796875,1,0.99
2020-05-16 12:13:43.701 -0400,9653.876902,1.179397583007812,0.6617279052734375,-0.2737579345703125,1,0.99
2020-05-16 12:13:43.766 -0400,9653.941878000001,1.144271850585938,0.82147216796875,-0.013763427734375,1,0.99
2020-05-16 12:13:43.831 -0400,9654.006855000001,0.92657470703125,0.4676361083984375,0.0008697509765625,1,0.99
2020-05-16 12:13:43.896 -0400,9654.071831000001,0.933837890625,0.4173736572265625,-0.2875823974609375,1,0.99
2020-05-16 12:13:43.961 -0400,9654.136808000001,1.005691528320312,0.6076812744140625,-0.3987274169921875,1,0.99
2020-05-16 12:13:44.026 -0400,9654.201784000001,0.8955078125,0.2571563720703125,-0.386260986328125,1,0.99
2020-05-16 12:13:44.091 -0400,9654.266761000001,0.4278106689453125,0.26873779296875,-0.3263397216796875,1,0.99
2020-05-16 12:13:44.155 -0400,9654.331737,0.27484130859375,0.12481689453125,-0.4498138427734375,1,0.99
2020-05-16 12:13:44.232 -0400,9654.396714,0.6909027099609375,-0.047027587890625,-0.3467559814453125,1,0.99
2020-05-16 12:13:44.286 -0400,9654.46169,0.77203369140625,0.0373992919921875,-0.159881591796875,1,0.99
2020-05-16 12:13:44.351 -0400,9654.526666,2.175216674804688,0.6129302978515625,-0.1458587646484375,1,0.99
2020-05-16 12:13:44.416 -0400,9654.591643,1.537872314453125,1.269866943359375,-0.2655792236328125,1,0.99
2020-05-16 12:13:44.481 -0400,9654.656619000001,1.025848388671875,0.55316162109375,-0.1928863525390625,1,0.99
2020-05-16 12:13:44.545 -0400,9654.721596000001,0.453521728515625,0.480926513671875,-0.4898223876953125,1,0.99
2020-05-16 12:13:44.611 -0400,9654.786572000001,0.2775421142578125,0.6139678955078125,-0.35113525390625,1,0.99
2020-05-16 12:13:44.675 -0400,9654.851549000001,0.558441162109375,0.3930511474609375,-0.3598175048828125,1,0.99
2020-05-16 12:13:44.740 -0400,9654.916525000001,0.7587127685546875,0.3517913818359375,-0.3948211669921875,1,0.99
2020-05-16 12:13:44.805 -0400,9654.981501916667,0.9848480224609375,0.134490966796875,-1.244918823242188,1,0.99
2020-05-16 12:13:44.870 -0400,9655.046477916667,0.8794708251953125,0.5255889892578125,-1.257644653320312,1,0.99
2020-05-16 12:13:44.935 -0400,9655.111454916667,1.050857543945312,0.23126220703125,-0.229248046875,1,0.99
2020-05-16 12:13:45.001 -0400,9655.176430916667,1.142288208007812,0.4564208984375,-0.1377716064453125,1,0.99
2020-05-16 12:13:45.066 -0400,9655.241407916667,1.222137451171875,0.6621551513671875,-0.2765960693359375,1,0.99
2020-05-16 12:13:45.130 -0400,9655.306383916668,1.278793334960938,0.5691375732421875,-0.2035675048828125,1,0.99
2020-05-16 12:13:45.195 -0400,9655.371360916668,0.976715087890625,0.6403961181640625,-0.1527557373046875,1,0.99
2020-05-16 12:13:45.260 -0400,9655.436336916668,0.544708251953125,0.4779052734375,-0.0853424072265625,1,0.99
2020-05-16 12:13:45.325 -0400,9655.501313916668,0.4063720703125,0.422271728515625,-0.0347137451171875,1,0.99
2020-05-16 12:13:45.391 -0400,9655.566289916667,0.4131317138671875,0.35345458984375,-0.0716400146484375,1,0.99
2020-05-16 12:13:45.455 -0400,9655.631266916667,0.69708251953125,0.391632080078125,-0.1079864501953125,1,0.99
2020-05-16 12:13:45.520 -0400,9655.696242916667,1.228805541992188,0.481842041015625,-0.14874267578125,1,0.99
2020-05-16 12:13:45.585 -0400,9655.761219916667,1.607391357421875,0.394683837890625,-0.0661773681640625,1,0.99
2020-05-16 12:13:45.650 -0400,9655.826195916667,1.661575317382812,0.45941162109375,-0.0326385498046875,1,0.99
2020-05-16 12:13:45.715 -0400,9655.891172916667,1.183242797851562,0.631072998046875,-0.2714385986328125,1,0.99
2020-05-16 12:13:45.780 -0400,9655.956149125001,0.83587646484375,0.2772979736328125,-0.08380126953125,1,0.99
2020-05-16 12:13:45.845 -0400,9656.021126125001,0.7272491455078125,0.1424407958984375,-0.0444488525390625,1,0.99
2020-05-16 12:13:45.910 -0400,9656.086102125,0.6683502197265625,0.210113525390625,-0.07293701171875,1,0.99
2020-05-16 12:13:45.975 -0400,9656.151079125,0.6600341796875,0.2574615478515625,-0.1367645263671875,1,0.99
2020-05-16 12:13:46.040 -0400,9656.216055125,0.6202545166015625,0.17724609375,-0.19305419921875,1,0.99
2020-05-16 12:13:46.105 -0400,9656.281032125,0.6638946533203125,0.020782470703125,-0.2560882568359375,1,0.99
2020-05-16 12:13:46.170 -0400,9656.346008125001,0.7942962646484375,0.2161407470703125,-0.2389373779296875,1,0.99
2020-05-16 12:13:46.235 -0400,9656.410985125001,0.862640380859375,0.432708740234375,-0.12713623046875,1,0.99
2020-05-16 12:13:46.300 -0400,9656.475961125001,0.961669921875,0.3734283447265625,-0.1723785400390625,1,0.99
2020-05-16 12:13:46.365 -0400,9656.540938125001,1.038543701171875,0.3566131591796875,-0.207427978515625,1,0.99
2020-05-16 12:13:46.430 -0400,9656.605914125001,1.063934326171875,0.3431396484375,-0.1956787109375,1,0.99
2020-05-16 12:13:46.495 -0400,9656.670891125001,1.385543823242188,0.436004638671875,-0.2673187255859375,1,0.99
2020-05-16 12:13:46.560 -0400,9656.735867125,1.226547241210938,0.4034423828125,-0.1613616943359375,1,0.99
2020-05-16 12:13:46.625 -0400,9656.800844125,1.157867431640625,0.4622802734375,-0.191314697265625,1,0.99
2020-05-16 12:13:46.690 -0400,9656.865820125,1.115859985351562,0.3845672607421875,-0.0613861083984375,1,0.99
2020-05-16 12:13:46.755 -0400,9656.930797125,1.112838745117188,0.2993621826171875,-0.0301666259765625,1,0.99
2020-05-16 12:13:46.820 -0400,9656.995773000001,0.91778564453125,0.3121185302734375,-0.0093231201171875,1,0.99
2020-05-16 12:13:46.885 -0400,9657.060750000001,0.7614593505859375,0.3261871337890625,-0.001953125,1,0.99
2020-05-16 12:13:46.950 -0400,9657.125726,0.6740570068359375,0.3431243896484375,-0.0289764404296875,1,0.99
2020-05-16 12:13:47.015 -0400,9657.190703,0.7601470947265625,0.29248046875,-0.0156707763671875,1,0.99
2020-05-16 12:13:47.080 -0400,9657.255679,0.7254486083984375,0.2435302734375,-0.01409912109375,1,0.99
2020-05-16 12:13:47.145 -0400,9657.320656,0.7183990478515625,0.3063201904296875,-0.0600128173828125,1,0.99
2020-05-16 12:13:47.210 -0400,9657.385632000001,0.8885040283203125,0.367218017578125,-0.1270599365234375,1,0.99
2020-05-16 12:13:47.274 -0400,9657.450609000001,1.069686889648438,0.415130615234375,-0.2203369140625,1,0.99
2020-05-16 12:13:47.340 -0400,9657.515585000001,1.5428466796875,0.465728759765625,-0.3018951416015625,1,0.99
2020-05-16 12:13:47.405 -0400,9657.580562000001,1.575332641601562,0.5872344970703125,-0.4634246826171875,1,0.99
2020-05-16 12:13:47.469 -0400,9657.645538000001,0.9896697998046875,0.3222198486328125,-0.22430419921875,1,0.99
2020-05-16 12:13:47.534 -0400,9657.710515000001,0.836669921875,0.3361968994140625,-0.2642822265625,1,0.99
2020-05-16 12:13:47.600 -0400,9657.775491,0.6584625244140625,0.4958953857421875,-0.2334136962890625,1,0.99
2020-05-16 12:13:47.664 -0400,9657.840468,0.600433349609375,0.4262542724609375,-0.1381988525390625,1,0.99
2020-05-16 12:13:47.730 -0400,9657.905444,0.6900787353515625,0.3752593994140625,-0.0975189208984375,1,0.99
2020-05-16 12:13:47.794 -0400,9657.970420791667,0.878875732421875,0.387725830078125,-0.060791015625,1,0.99
2020-05-16 12:13:47.860 -0400,9658.035396791667,1.046249389648438,0.43487548828125,-0.0011749267578125,1,0.99
2020-05-16 12:13:47.924 -0400,9658.100373791667,0.9609527587890625,0.418548583984375,-0.0037841796875,1,0.99
2020-05-16 12:13:47.989 -0400,9658.165349791667,0.805755615234375,0.3909759521484375,0.006927490234375,1,0.99
2020-05-16 12:13:48.054 -0400,9658.230326791667,0.818206787109375,0.423065185546875,0.0290069580078125,1,0.99
2020-05-16 12:13:48.119 -0400,9658.295302791666,1.353485107421875,1.154922485351562,-0.1666107177734375,1,0.99
2020-05-16 12:13:48.184 -0400,9658.360279791666,0.964813232421875,0.777587890625,0.12274169921875,1,0.99
2020-05-16 12:13:48.250 -0400,9658.425256791666,0.900604248046875,1.0262451171875,-0.060791015625,1,0.99
2020-05-16 12:13:48.314 -0400,9658.490232791668,0.82611083984375,0.7200164794921875,-0.3347930908203125,1,0.99
2020-05-16 12:13:48.379 -0400,9658.555209791668,0.7570648193359375,0.71514892578125,-0.4753570556640625,1,0.99
2020-05-16 12:13:48.444 -0400,9658.620185791668,0.7054290771484375,0.52349853515625,-0.5071258544921875,1,0.99
2020-05-16 12:13:48.509 -0400,9658.685162791668,0.4953460693359375,0.383331298828125,-0.538055419921875,1,0.99
2020-05-16 12:13:48.574 -0400,9658.750138791667,0.3663330078125,0.0641632080078125,-0.7579498291015625,1,0.99
2020-05-16 12:13:48.639 -0400,9658.815115791667,0.1970062255859375,0.147552490234375,-0.7831878662109375,1,0.99
2020-05-16 12:13:48.704 -0400,9658.880091791667,0.167724609375,0.242095947265625,-0.893157958984375,1,0.99
2020-05-16 12:13:48.769 -0400,9658.945069416668,0.09228515625,0.1725616455078125,-0.975830078125,1,0.99
2020-05-16 12:13:48.899 -0400,9659.075022416668,-0.0334320068359375,0.1211395263671875,-0.91925048828125,1,0.99
2020-05-16 12:13:48.969 -0400,9659.144997416668,-0.00018310546875,0.146636962890625,-1.009017944335938,1,0.99
2020-05-16 12:13:49.039 -0400,9659.214971416668,0.0338287353515625,0.1259613037109375,-0.9826202392578125,1,0.99
2020-05-16 12:13:49.110 -0400,9659.284946416667,0.0326995849609375,0.121673583984375,-0.9428863525390625,1,0.99
2020-05-16 12:13:49.179 -0400,9659.354921416667,0.01220703125,0.13458251953125,-0.9949951171875,1,0.99
2020-05-16 12:13:49.249 -0400,9659.424895416667,-0.005645751953125,0.12921142578125,-0.9958953857421875,1,0.99
2020-05-16 12:13:49.319 -0400,9659.494870416667,0.0351409912109375,0.162109375,-1.025772094726562,1,0.99
