loggingTime(txt),loggingSample(N),locationTimestamp_since1970(s),locationLatitude(WGS84),locationLongitude(WGS84),locationAltitude(m),locationSpeed(m/s),locationCourse(°),locationVerticalAccuracy(m),locationHorizontalAccuracy(m),locationFloor(Z),accelerometerTimestamp_sinceReboot(s),accelerometerAccelerationX(G),accelerometerAccelerationY(G),accelerometerAccelerationZ(G),batteryState,batteryLevel,label
2019-10-21 19:10:05.499 -0400,1,1571699405.003582,33.98990814478061,-81.02907680112241,58.19903,0.9688407,35.63200993719518,2.487381650890934,5.304810856284253,-9999,415565.2050626667,-0.1213226318359375,-0.051025390625,-1.024948120117188,1,0.84,5
2019-10-21 19:10:05.502 -0400,2,1571699405.003582,33.98990814478061,-81.02907680112241,58.19903,0.9688407,35.63200993719518,2.487381650890934,5.304810856284253,-9999,415565.2450476667,-0.1625518798828125,-0.08062744140625,-1.302413940429688,1,0.84,5
2019-10-21 19:10:05.529 -0400,3,1571699405.003582,33.98990814478061,-81.02907680112241,58.19903,0.9688407,35.63200993719518,2.487381650890934,5.304810856284253,-9999,415565.2850316667,-0.1805419921875,0.2873382568359375,-1.626617431640625,1,0.84,5
2019-10-21 19:10:05.569 -0400,4,1571699405.003582,33.98990814478061,-81.02907680112241,58.19903,0.9688407,35.63200993719518,2.487381650890934,5.304810856284253,-9999,415565.3250156667,-0.4448089599609375,0.3810577392578125,-1.157989501953125,1,0.84,5
2019-10-21 19:10:05.609 -0400,5,1571699405.003582,33.98990814478061,-81.02907680112241,58.19903,0.9688407,35.63200993719518,2.487381650890934,5.304810856284253,-9999,415565.3649996667,-0.2982025146484375,0.324798583984375,-0.9988250732421875,1,0.84,5
2019-10-21 19:10:05.649 -0400,6,1571699405.003582,33.98990814478061,-81.02907680112241,58.19903,0.9688407,35.63200993719518,2.487381650890934,5.304810856284253,-9999,415565.4049836667,-0.1684417724609375,0.259033203125,-1.044708251953125,1,0.84,5
2019-10-21 19:10:05.689 -0400,7,1571699405.003582,33.98990814478061,-81.02907680112241,58.19903,0.9688407,35.63200993719518,2.487381650890934,5.304810856284253,-9999,415565.4449676667,-0.1494293212890625,0.07672119140625,-0.8798370361328125,1,0.84,5
2019-10-21 19:10:05.729 -0400,8,1571699405.003582,33.98990814478061,-81.02907680112241,58.19903,0.9688407,35.63200993719518,2.487381650890934,5.304810856284253,-9999,415565.4849526667,-0.099945068359375,0.0475311279296875,-0.63128662109375,1,0.84,5
2019-10-21 19:10:05.770 -0400,9,1571699405.003582,33.98990814478061,-81.02907680112241,58.19903,0.9688407,35.63200993719518,2.487381650890934,5.304810856284253,-9999,415565.5249366667,0.0514068603515625,0.1378936767578125,-0.5026702880859375,1,0.84,5
2019-10-21 19:10:05.809 -0400,10,1571699405.003582,33.98990814478061,-81.02907680112241,58.19903,0.9688407,35.63200993719518,2.487381650890934,5.304810856284253,-9999,415565.5649206667,0.0308380126953125,-0.0289459228515625,-0.56890869140625,1,0.84,5
2019-10-21 19:10:05.849 -0400,11,1571699405.003582,33.98990814478061,-81.02907680112241,58.19903,0.9688407,35.63200993719518,2.487381650890934,5.304810856284253,-9999,415565.6049046667,0.138336181640625,-0.3170623779296875,-0.556304931640625,1,0.84,5
2019-10-21 19:10:05.889 -0400,12,1571699405.003582,33.98990814478061,-81.02907680112241,58.19903,0.9688407,35.63200993719518,2.487381650890934,5.304810856284253,-9999,415565.6448886667,-0.071319580078125,0.177825927734375,-0.6743927001953125,1,0.84,5
2019-10-21 19:10:05.929 -0400,13,1571699405.003582,33.98990814478061,-81.02907680112241,58.19903,0.9688407,35.63200993719518,2.487381650890934,5.304810856284253,-9999,415565.6848726667,0.1283721923828125,0.0616912841796875,-1.006332397460938,1,0.84,5
2019-10-21 19:10:05.969 -0400,14,1571699405.003582,33.98990814478061,-81.02907680112241,58.19903,0.9688407,35.63200993719518,2.487381650890934,5.304810856284253,-9999,415565.7248576667,0.2641754150390625,0.0504913330078125,-0.79730224609375,1,0.84,5
2019-10-21 19:10:06.009 -0400,15,1571699405.003582,33.98990814478061,-81.02907680112241,58.19903,0.9688407,35.63200993719518,2.487381650890934,5.304810856284253,-9999,415565.7648416667,0.254058837890625,0.659454345703125,-0.970306396484375,1,0.84,5
2019-10-21 19:10:06.049 -0400,16,1571699405.003582,33.98990814478061,-81.02907680112241,58.19903,0.9688407,35.63200993719518,2.487381650890934,5.304810856284253,-9999,415565.8048256667,0.161346435546875,1.030685424804688,-1.15869140625,1,0.84,5
2019-10-21 19:10:06.092 -0400,17,1571699405.003582,33.98990814478061,-81.02907680112241,58.19903,0.9688407,35.63200993719518,2.487381650890934,5.304810856284253,-9999,415565.8448096667,0.21466064453125,1.137649536132812,-1.082077026367188,1,0.84,5
2019-10-21 19:10:06.129 -0400,18,1571699405.003582,33.98990814478061,-81.02907680112241,58.19903,0.9688407,35.63200993719518,2.487381650890934,5.304810856284253,-9999,415565.8847936667,0.56292724609375,0.4746246337890625,-0.82470703125,1,0.84,5
2019-10-21 19:10:06.169 -0400,19,1571699405.003582,33.98990814478061,-81.02907680112241,58.19903,0.9688407,35.63200993719518,2.487381650890934,5.304810856284253,-9999,415565.9247786667,0.6870880126953125,0.253753662109375,-0.29425048828125,1,0.84,5
2019-10-21 19:10:06.209 -0400,20,1571699405.003582,33.98990814478061,-81.02907680112241,58.19903,0.9688407,35.63200993719518,2.487381650890934,5.304810856284253,-9999,415565.964763,0.6573638916015625,0.4677276611328125,-0.4658966064453125,1,0.84,5
2019-10-21 19:10:06.249 -0400,21,1571699405.003582,33.98990814478061,-81.02907680112241,58.19903,0.9688407,35.63200993719518,2.487381650890934,5.304810856284253,-9999,415566.004747,0.69464111328125,0.5491790771484375,-0.46490478515625,1,0.84,5
2019-10-21 19:10:06.288 -0400,22,1571699405.003582,33.98990814478061,-81.02907680112241,58.19903,0.9688407,35.63200993719518,2.487381650890934,5.304810856284253,-9999,415566.044731,0.645904541015625,0.6796875,-0.3883209228515625,1,0.84,5
2019-10-21 19:10:06.328 -0400,23,1571699405.003582,33.98990814478061,-81.02907680112241,58.19903,0.9688407,35.63200993719518,2.487381650890934,5.304810856284253,-9999,415566.084715,0.6706695556640625,0.9352264404296875,-0.4218292236328125,1,0.84,5
2019-10-21 19:10:06.369 -0400,24,1571699406.003582,33.98992266306365,-81.02908332940808,59.84547,0.9840937,18.5751789962875,2.630621133950612,5.186942209279108,-9999,415566.124699,0.7291717529296875,0.7827606201171875,-0.3030548095703125,1,0.84,5
2019-10-21 19:10:06.409 -0400,25,1571699406.003582,33.98992266306365,-81.02908332940808,59.84547,0.9840937,18.5751789962875,2.630621133950612,5.186942209279108,-9999,415566.164684,0.905609130859375,1.017074584960938,-0.281463623046875,1,0.84,5
2019-10-21 19:10:06.448 -0400,26,1571699406.003582,33.98992266306365,-81.02908332940808,59.84547,0.9840937,18.5751789962875,2.630621133950612,5.186942209279108,-9999,415566.204668,0.9537200927734375,1.041275024414062,-0.3011322021484375,1,0.84,5
2019-10-21 19:10:06.489 -0400,27,1571699406.003582,33.98992266306365,-81.02908332940808,59.84547,0.9840937,18.5751789962875,2.630621133950612,5.186942209279108,-9999,415566.244652,1.0965576171875,1.038619995117188,-0.3574676513671875,1,0.84,5
2019-10-21 19:10:06.528 -0400,28,1571699406.003582,33.98992266306365,-81.02908332940808,59.84547,0.9840937,18.5751789962875,2.630621133950612,5.186942209279108,-9999,415566.284636,1.073074340820312,1.021621704101562,-0.3589324951171875,1,0.84,5
2019-10-21 19:10:06.568 -0400,29,1571699406.003582,33.98992266306365,-81.02908332940808,59.84547,0.9840937,18.5751789962875,2.630621133950612,5.186942209279108,-9999,415566.32462,1.196319580078125,0.924163818359375,-0.2998199462890625,1,0.84,5
2019-10-21 19:10:06.608 -0400,30,1571699406.003582,33.98992266306365,-81.02908332940808,59.84547,0.9840937,18.5751789962875,2.630621133950612,5.186942209279108,-9999,415566.364604,1.28021240234375,0.8321990966796875,-0.1960296630859375,1,0.84,5
2019-10-21 19:10:06.648 -0400,31,1571699406.003582,33.98992266306365,-81.02908332940808,59.84547,0.9840937,18.5751789962875,2.630621133950612,5.186942209279108,-9999,415566.404588,1.272262573242188,0.536346435546875,-0.2716217041015625,1,0.84,5
2019-10-21 19:10:06.688 -0400,32,1571699406.003582,33.98992266306365,-81.02908332940808,59.84547,0.9840937,18.5751789962875,2.630621133950612,5.186942209279108,-9999,415566.444573,0.8574371337890625,0.2394561767578125,-0.2586517333984375,1,0.84,5
2019-10-21 19:10:06.728 -0400,33,1571699406.003582,33.98992266306365,-81.02908332940808,59.84547,0.9840937,18.5751789962875,2.630621133950612,5.186942209279108,-9999,415566.484557,0.6944122314453125,0.274993896484375,-0.2228240966796875,1,0.84,5
2019-10-21 19:10:06.768 -0400,34,1571699406.003582,33.98992266306365,-81.02908332940808,59.84547,0.9840937,18.5751789962875,2.630621133950612,5.186942209279108,-9999,415566.524541,0.7126007080078125,0.25909423828125,-0.160888671875,1,0.84,5
2019-10-21 19:10:06.808 -0400,35,1571699406.003582,33.98992266306365,-81.02908332940808,59.84547,0.9840937,18.5751789962875,2.630621133950612,5.186942209279108,-9999,415566.5645250001,0.761810302734375,0.2841644287109375,-0.14410400390625,1,0.84,5
2019-10-21 19:10:06.848 -0400,36,1571699406.003582,33.98992266306365,-81.02908332940808,59.84547,0.9840937,18.5751789962875,2.630621133950612,5.186942209279108,-9999,415566.604509,0.79296875,0.2387847900390625,-0.1377716064453125,1,0.84,5
2019-10-21 19:10:06.888 -0400,37,1571699406.003582,33.98992266306365,-81.02908332940808,59.84547,0.9840937,18.5751789962875,2.630621133950612,5.186942209279108,-9999,415566.644494,0.9628753662109375,0.2516632080078125,-0.13153076171875,1,0.84,5
2019-10-21 19:10:06.928 -0400,38,1571699406.003582,33.98992266306365,-81.02908332940808,59.84547,0.9840937,18.5751789962875,2.630621133950612,5.186942209279108,-9999,415566.684478,0.981842041015625,0.2910003662109375,-0.1260528564453125,1,0.84,5
2019-10-21 19:10:06.968 -0400,39,1571699406.003582,33.98992266306365,-81.02908332940808,59.84547,0.9840937,18.5751789962875,2.630621133950612,5.186942209279108,-9999,415566.724462,1.1539306640625,0.420928955078125,-0.136322021484375,1,0.84,5
2019-10-21 19:10:07.008 -0400,40,1571699406.003582,33.98992266306365,-81.02908332940808,59.84547,0.9840937,18.5751789962875,2.630621133950612,5.186942209279108,-9999,415566.764446,0.973175048828125,0.48468017578125,-0.2071075439453125,1,0.84,5
2019-10-21 19:10:07.049 -0400,41,1571699406.003582,33.98992266306365,-81.02908332940808,59.84547,0.9840937,18.5751789962875,2.630621133950612,5.186942209279108,-9999,415566.80443,1.225906372070312,0.5323333740234375,-0.3797149658203125,1,0.84,5
2019-10-21 19:10:07.088 -0400,42,1571699406.003582,33.98992266306365,-81.02908332940808,59.84547,0.9840937,18.5751789962875,2.630621133950612,5.186942209279108,-9999,415566.8444140001,1.22528076171875,0.3349609375,-0.29400634765625,1,0.84,5
2019-10-21 19:10:07.128 -0400,43,1571699406.003582,33.98992266306365,-81.02908332940808,59.84547,0.9840937,18.5751789962875,2.630621133950612,5.186942209279108,-9999,415566.884399,0.856414794921875,0.29608154296875,-0.2421722412109375,1,0.84,5
2019-10-21 19:10:07.170 -0400,44,1571699406.003582,33.98992266306365,-81.02908332940808,59.84547,0.9840937,18.5751789962875,2.630621133950612,5.186942209279108,-9999,415566.924383,0.6157379150390625,0.2312164306640625,-0.265625,1,0.84,5
2019-10-21 19:10:07.208 -0400,45,1571699406.003582,33.98992266306365,-81.02908332940808,59.84547,0.9840937,18.5751789962875,2.630621133950612,5.186942209279108,-9999,415566.964367375,0.4961090087890625,0.3508453369140625,-0.2848358154296875,1,0.84,5
2019-10-21 19:10:07.248 -0400,46,1571699406.003582,33.98992266306365,-81.02908332940808,59.84547,0.9840937,18.5751789962875,2.630621133950612,5.186942209279108,-9999,415567.004351375,0.5479888916015625,0.489227294921875,-0.3211822509765625,1,0.84,5
2019-10-21 19:10:07.288 -0400,47,1571699406.003582,33.98992266306365,-81.02908332940808,59.84547,0.9840937,18.5751789962875,2.630621133950612,5.186942209279108,-9999,415567.044335375,0.718414306640625,0.66058349609375,-0.3663787841796875,1,0.84,5
2019-10-21 19:10:07.328 -0400,48,1571699407.003582,33.98993113927845,-81.02908027244926,60.11502,1.089956,21.72539639580139,2.657537767869942,5.17320307402809,-9999,415567.084319375,0.87945556640625,0.6849365234375,-0.3958282470703125,1,0.84,5
2019-10-21 19:10:07.368 -0400,49,1571699407.003582,33.98993113927845,-81.02908027244926,60.11502,1.089956,21.72539639580139,2.657537767869942,5.17320307402809,-9999,415567.124304375,1.056564331054688,0.62384033203125,-0.3646240234375,1,0.84,5
2019-10-21 19:10:07.408 -0400,50,1571699407.003582,33.98993113927845,-81.02908027244926,60.11502,1.089956,21.72539639580139,2.657537767869942,5.17320307402809,-9999,415567.164288375,1.522506713867188,0.69134521484375,-0.416015625,1,0.84,5
2019-10-21 19:10:07.448 -0400,51,1571699407.003582,33.98993113927845,-81.02908027244926,60.11502,1.089956,21.72539639580139,2.657537767869942,5.17320307402809,-9999,415567.204272375,1.6820068359375,0.71441650390625,-0.4320526123046875,1,0.84,5
2019-10-21 19:10:07.488 -0400,52,1571699407.003582,33.98993113927845,-81.02908027244926,60.11502,1.089956,21.72539639580139,2.657537767869942,5.17320307402809,-9999,415567.244256375,1.116790771484375,0.4799957275390625,-0.2506561279296875,1,0.84,5
2019-10-21 19:10:07.528 -0400,53,1571699407.003582,33.98993113927845,-81.02908027244926,60.11502,1.089956,21.72539639580139,2.657537767869942,5.17320307402809,-9999,415567.284240375,0.970916748046875,0.457977294921875,-0.2615509033203125,1,0.84,5
2019-10-21 19:10:07.568 -0400,54,1571699407.003582,33.98993113927845,-81.02908027244926,60.11502,1.089956,21.72539639580139,2.657537767869942,5.17320307402809,-9999,415567.324224375,1.041275024414062,0.506134033203125,-0.2556915283203125,1,0.84,5
2019-10-21 19:10:07.608 -0400,55,1571699407.003582,33.98993113927845,-81.02908027244926,60.11502,1.089956,21.72539639580139,2.657537767869942,5.17320307402809,-9999,415567.364208375,0.90301513671875,0.3480072021484375,-0.1963653564453125,1,0.84,5
2019-10-21 19:10:07.648 -0400,56,1571699407.003582,33.98993113927845,-81.02908027244926,60.11502,1.089956,21.72539639580139,2.657537767869942,5.17320307402809,-9999,415567.404193375,0.6095733642578125,0.2314300537109375,-0.0976104736328125,1,0.84,5
2019-10-21 19:10:07.688 -0400,57,1571699407.003582,33.98993113927845,-81.02908027244926,60.11502,1.089956,21.72539639580139,2.657537767869942,5.17320307402809,-9999,415567.444177375,0.5306396484375,0.2382354736328125,-0.1066131591796875,1,0.84,5
2019-10-21 19:10:07.728 -0400,58,1571699407.003582,33.98993113927845,-81.02908027244926,60.11502,1.089956,21.72539639580139,2.657537767869942,5.17320307402809,-9999,415567.484161375,0.6239166259765625,0.27740478515625,-0.0906982421875,1,0.84,5
2019-10-21 19:10:07.768 -0400,59,1571699407.003582,33.98993113927845,-81.02908027244926,60.11502,1.089956,21.72539639580139,2.657537767869942,5.17320307402809,-9999,415567.524145375,0.89501953125,0.2764434814453125,-0.0837554931640625,1,0.84,5
2019-10-21 19:10:07.808 -0400,60,1571699407.003582,33.98993113927845,-81.02908027244926,60.11502,1.089956,21.72539639580139,2.657537767869942,5.17320307402809,-9999,415567.564129375,1.121658325195312,0.29248046875,-0.032806396484375,1,0.84,5
2019-10-21 19:10:07.848 -0400,61,1571699407.003582,33.98993113927845,-81.02908027244926,60.11502,1.089956,21.72539639580139,2.657537767869942,5.17320307402809,-9999,415567.604113375,1.222091674804688,0.3525543212890625,-0.050323486328125,1,0.84,5
2019-10-21 19:10:07.888 -0400,62,1571699407.003582,33.98993113927845,-81.02908027244926,60.11502,1.089956,21.72539639580139,2.657537767869942,5.17320307402809,-9999,415567.6440983751,1.120590209960938,0.36761474609375,-0.1241455078125,1,0.84,5
2019-10-21 19:10:07.928 -0400,63,1571699407.003582,33.98993113927845,-81.02908027244926,60.11502,1.089956,21.72539639580139,2.657537767869942,5.17320307402809,-9999,415567.684082375,1.054443359375,0.4517059326171875,-0.1280517578125,1,0.84,5
2019-10-21 19:10:07.968 -0400,64,1571699407.003582,33.98993113927845,-81.02908027244926,60.11502,1.089956,21.72539639580139,2.657537767869942,5.17320307402809,-9999,415567.724066375,1.076858520507812,0.3959503173828125,-0.2813568115234375,1,0.84,5
2019-10-21 19:10:08.008 -0400,65,1571699407.003582,33.98993113927845,-81.02908027244926,60.11502,1.089956,21.72539639580139,2.657537767869942,5.17320307402809,-9999,415567.764050375,1.368331909179688,0.4476776123046875,-0.306121826171875,1,0.84,5
2019-10-21 19:10:08.048 -0400,66,1571699407.003582,33.98993113927845,-81.02908027244926,60.11502,1.089956,21.72539639580139,2.657537767869942,5.17320307402809,-9999,415567.804034375,1.103729248046875,0.3558197021484375,-0.132568359375,1,0.84,5
2019-10-21 19:10:08.094 -0400,67,1571699407.003582,33.98993113927845,-81.02908027244926,60.11502,1.089956,21.72539639580139,2.657537767869942,5.17320307402809,-9999,415567.844018375,0.738128662109375,0.2882080078125,-0.1354522705078125,1,0.84,5
2019-10-21 19:10:08.128 -0400,68,1571699407.003582,33.98993113927845,-81.02908027244926,60.11502,1.089956,21.72539639580139,2.657537767869942,5.17320307402809,-9999,415567.884003375,0.623199462890625,0.3350830078125,-0.2508087158203125,1,0.84,5
2019-10-21 19:10:08.168 -0400,69,1571699407.003582,33.98993113927845,-81.02908027244926,60.11502,1.089956,21.72539639580139,2.657537767869942,5.17320307402809,-9999,415567.923987375,0.5648040771484375,0.4074554443359375,-0.256378173828125,1,0.84,5
2019-10-21 19:10:08.208 -0400,70,1571699407.003582,33.98993113927845,-81.02908027244926,60.11502,1.089956,21.72539639580139,2.657537767869942,5.17320307402809,-9999,415567.9639714167,0.75897216796875,0.413238525390625,-0.3499755859375,1,0.84,5
2019-10-21 19:10:08.248 -0400,71,1571699408.003581,33.98994764548252,-81.02907208564849,60.16389,1.426468,23.46519638723791,2.660979636664502,5.17143349624122,-9999,415568.0039554167,0.962860107421875,0.455657958984375,-0.463531494140625,1,0.84,5
2019-10-21 19:10:08.288 -0400,72,1571699408.003581,33.98994764548252,-81.02907208564849,60.16389,1.426468,23.46519638723791,2.660979636664502,5.17143349624122,-9999,415568.0439394167,1.004058837890625,0.4017486572265625,-0.455810546875,1,0.84,5
2019-10-21 19:10:08.328 -0400,73,1571699408.003581,33.98994764548252,-81.02907208564849,60.16389,1.426468,23.46519638723791,2.660979636664502,5.17143349624122,-9999,415568.0839234167,1.031158447265625,0.431884765625,-0.4823455810546875,1,0.84,5
2019-10-21 19:10:08.368 -0400,74,1571699408.003581,33.98994764548252,-81.02907208564849,60.16389,1.426468,23.46519638723791,2.660979636664502,5.17143349624122,-9999,415568.1239084167,1.1575927734375,0.4946441650390625,-0.46868896484375,1,0.84,5
2019-10-21 19:10:08.408 -0400,75,1571699408.003581,33.98994764548252,-81.02907208564849,60.16389,1.426468,23.46519638723791,2.660979636664502,5.17143349624122,-9999,415568.1638924167,1.035598754882812,0.570770263671875,-0.47216796875,1,0.84,5
2019-10-21 19:10:08.448 -0400,76,1571699408.003581,33.98994764548252,-81.02907208564849,60.16389,1.426468,23.46519638723791,2.660979636664502,5.17143349624122,-9999,415568.2038764167,1.277984619140625,0.525054931640625,-0.30670166015625,1,0.84,5
2019-10-21 19:10:08.488 -0400,77,1571699408.003581,33.98994764548252,-81.02907208564849,60.16389,1.426468,23.46519638723791,2.660979636664502,5.17143349624122,-9999,415568.2438604167,1.556777954101562,0.5465545654296875,-0.0827484130859375,1,0.84,5
2019-10-21 19:10:08.528 -0400,78,1571699408.003581,33.98994764548252,-81.02907208564849,60.16389,1.426468,23.46519638723791,2.660979636664502,5.17143349624122,-9999,415568.2838444167,1.351150512695312,0.420684814453125,-0.0971832275390625,1,0.84,5
2019-10-21 19:10:08.568 -0400,79,1571699408.003581,33.98994764548252,-81.02907208564849,60.16389,1.426468,23.46519638723791,2.660979636664502,5.17143349624122,-9999,415568.3238284167,0.93109130859375,0.2896270751953125,-0.2487945556640625,1,0.84,5
2019-10-21 19:10:08.608 -0400,80,1571699408.003581,33.98994764548252,-81.02907208564849,60.16389,1.426468,23.46519638723791,2.660979636664502,5.17143349624122,-9999,415568.3638134167,0.8238372802734375,0.2573699951171875,-0.1188201904296875,1,0.84,5
2019-10-21 19:10:08.656 -0400,81,1571699408.003581,33.98994764548252,-81.02907208564849,60.16389,1.426468,23.46519638723791,2.660979636664502,5.17143349624122,-9999,415568.4037974167,0.939239501953125,0.345245361328125,-0.056884765625,1,0.84,5
2019-10-21 19:10:08.688 -0400,82,1571699408.003581,33.98994764548252,-81.02907208564849,60.16389,1.426468,23.46519638723791,2.660979636664502,5.17143349624122,-9999,415568.4437814167,1.031875610351562,0.3507843017578125,-0.0761260986328125,1,0.84,5
2019-10-21 19:10:08.727 -0400,83,1571699408.003581,33.98994764548252,-81.02907208564849,60.16389,1.426468,23.46519638723791,2.660979636664502,5.17143349624122,-9999,415568.4837654167,1.16851806640625,0.315887451171875,-0.1049957275390625,1,0.84,5
2019-10-21 19:10:08.768 -0400,84,1571699408.003581,33.98994764548252,-81.02907208564849,60.16389,1.426468,23.46519638723791,2.660979636664502,5.17143349624122,-9999,415568.5237494167,1.19073486328125,0.1916961669921875,-0.0889892578125,1,0.84,5
2019-10-21 19:10:08.808 -0400,85,1571699408.003581,33.98994764548252,-81.02907208564849,60.16389,1.426468,23.46519638723791,2.660979636664502,5.17143349624122,-9999,415568.5637334167,1.022140502929688,0.0311737060546875,0.07110595703125,1,0.84,5
2019-10-21 19:10:08.848 -0400,86,1571699408.003581,33.98994764548252,-81.02907208564849,60.16389,1.426468,23.46519638723791,2.660979636664502,5.17143349624122,-9999,415568.6037184167,1.00262451171875,0.171539306640625,0.019866943359375,1,0.84,5
2019-10-21 19:10:08.887 -0400,87,1571699408.003581,33.98994764548252,-81.02907208564849,60.16389,1.426468,23.46519638723791,2.660979636664502,5.17143349624122,-9999,415568.6437024167,0.837646484375,0.3408660888671875,-0.0413055419921875,1,0.84,5
2019-10-21 19:10:08.927 -0400,88,1571699408.003581,33.98994764548252,-81.02907208564849,60.16389,1.426468,23.46519638723791,2.660979636664502,5.17143349624122,-9999,415568.6836864167,1.068893432617188,0.4432220458984375,-0.161163330078125,1,0.84,5
2019-10-21 19:10:08.967 -0400,89,1571699408.003581,33.98994764548252,-81.02907208564849,60.16389,1.426468,23.46519638723791,2.660979636664502,5.17143349624122,-9999,415568.7236704167,1.302780151367188,0.4248809814453125,-0.138458251953125,1,0.84,5
2019-10-21 19:10:09.007 -0400,90,1571699408.003581,33.98994764548252,-81.02907208564849,60.16389,1.426468,23.46519638723791,2.660979636664502,5.17143349624122,-9999,415568.7636544167,1.085205078125,0.5665740966796875,-0.23101806640625,1,0.84,5
2019-10-21 19:10:09.048 -0400,91,1571699408.003581,33.98994764548252,-81.02907208564849,60.16389,1.426468,23.46519638723791,2.660979636664502,5.17143349624122,-9999,415568.8036384167,0.8537139892578125,0.4402923583984375,-0.2774810791015625,1,0.84,5
2019-10-21 19:10:09.100 -0400,92,1571699408.003581,33.98994764548252,-81.02907208564849,60.16389,1.426468,23.46519638723791,2.660979636664502,5.17143349624122,-9999,415568.8436224167,0.715972900390625,0.4829254150390625,-0.3383636474609375,1,0.84,5
2019-10-21 19:10:09.161 -0400,93,1571699408.003581,33.98994764548252,-81.02907208564849,60.16389,1.426468,23.46519638723791,2.660979636664502,5.17143349624122,-9999,415568.8836074167,0.6995697021484375,0.4063720703125,-0.363800048828125,1,0.84,5
2019-10-21 19:10:09.167 -0400,94,1571699408.003581,33.98994764548252,-81.02907208564849,60.16389,1.426468,23.46519638723791,2.660979636664502,5.17143349624122,-9999,415568.9235914167,0.9794158935546875,0.4167327880859375,-0.49188232421875,1,0.84,5
2019-10-21 19:10:09.210 -0400,95,1571699409.003581,33.9899636201492,-81.02906419675985,60.3652,1.592634,23.45908248702224,2.644846634425964,5.179703013991679,-9999,415568.963575,1.11859130859375,0.412872314453125,-0.4914093017578125,1,0.84,5
2019-10-21 19:10:09.247 -0400,96,1571699409.003581,33.9899636201492,-81.02906419675985,60.3652,1.592634,23.45908248702224,2.644846634425964,5.179703013991679,-9999,415569.003559,1.139114379882812,0.4592742919921875,-0.4799041748046875,1,0.84,5
2019-10-21 19:10:09.288 -0400,97,1571699409.003581,33.9899636201492,-81.02906419675985,60.3652,1.592634,23.45908248702224,2.644846634425964,5.179703013991679,-9999,415569.043543,1.221633911132812,0.49896240234375,-0.4839935302734375,1,0.84,5
2019-10-21 19:10:09.327 -0400,98,1571699409.003581,33.9899636201492,-81.02906419675985,60.3652,1.592634,23.45908248702224,2.644846634425964,5.179703013991679,-9999,415569.083527,1.462753295898438,0.587127685546875,-0.525299072265625,1,0.84,5
2019-10-21 19:10:09.367 -0400,99,1571699409.003581,33.9899636201492,-81.02906419675985,60.3652,1.592634,23.45908248702224,2.644846634425964,5.179703013991679,-9999,415569.123512,1.068161010742188,0.4563140869140625,-0.434539794921875,1,0.84,5
2019-10-21 19:10:09.407 -0400,100,1571699409.003581,33.9899636201492,-81.02906419675985,60.3652,1.592634,23.45908248702224,2.644846634425964,5.179703013991679,-9999,415569.1634960001,1.497039794921875,0.49066162109375,-0.3096923828125,1,0.84,5
2019-10-21 19:10:09.447 -0400,101,1571699409.003581,33.9899636201492,-81.02906419675985,60.3652,1.592634,23.45908248702224,2.644846634425964,5.179703013991679,-9999,415569.20348,1.436569213867188,0.3387298583984375,-0.1061248779296875,1,0.84,5
2019-10-21 19:10:09.487 -0400,102,1571699409.003581,33.9899636201492,-81.02906419675985,60.3652,1.592634,23.45908248702224,2.644846634425964,5.179703013991679,-9999,415569.243464,1.020477294921875,0.266510009765625,-0.1658477783203125,1,0.84,5
2019-10-21 19:10:09.527 -0400,103,1571699409.003581,33.9899636201492,-81.02906419675985,60.3652,1.592634,23.45908248702224,2.644846634425964,5.179703013991679,-9999,415569.283448,0.7864227294921875,0.2311248779296875,-0.163848876953125,1,0.84,5
2019-10-21 19:10:09.567 -0400,104,1571699409.003581,33.9899636201492,-81.02906419675985,60.3652,1.592634,23.45908248702224,2.644846634425964,5.179703013991679,-9999,415569.323432,0.754730224609375,0.2753753662109375,-0.0761260986328125,1,0.84,5
2019-10-21 19:10:09.609 -0400,105,1571699409.003581,33.9899636201492,-81.02906419675985,60.3652,1.592634,23.45908248702224,2.644846634425964,5.179703013991679,-9999,415569.363416,0.844085693359375,0.305419921875,-0.0200347900390625,1,0.84,5
2019-10-21 19:10:09.647 -0400,106,1571699409.003581,33.9899636201492,-81.02906419675985,60.3652,1.592634,23.45908248702224,2.644846634425964,5.179703013991679,-9999,415569.403401,0.9561614990234375,0.320465087890625,-0.0474853515625,1,0.84,5
2019-10-21 19:10:09.687 -0400,107,1571699409.003581,33.9899636201492,-81.02906419675985,60.3652,1.592634,23.45908248702224,2.644846634425964,5.179703013991679,-9999,415569.443385,0.998260498046875,0.29473876953125,-0.0741729736328125,1,0.84,5
2019-10-21 19:10:09.727 -0400,108,1571699409.003581,33.9899636201492,-81.02906419675985,60.3652,1.592634,23.45908248702224,2.644846634425964,5.179703013991679,-9999,415569.483369,1.036270141601562,0.235992431640625,-0.02197265625,1,0.84,5
2019-10-21 19:10:09.767 -0400,109,1571699409.003581,33.9899636201492,-81.02906419675985,60.3652,1.592634,23.45908248702224,2.644846634425964,5.179703013991679,-9999,415569.523353,0.898773193359375,0.1861419677734375,-0.0014190673828125,1,0.84,5
2019-10-21 19:10:09.807 -0400,110,1571699409.003581,33.9899636201492,-81.02906419675985,60.3652,1.592634,23.45908248702224,2.644846634425964,5.179703013991679,-9999,415569.563337,1.064971923828125,0.324493408203125,0.0117645263671875,1,0.84,5
2019-10-21 19:10:09.847 -0400,111,1571699409.003581,33.9899636201492,-81.02906419675985,60.3652,1.592634,23.45908248702224,2.644846634425964,5.179703013991679,-9999,415569.603321,0.974578857421875,0.3841552734375,-0.138397216796875,1,0.84,5
2019-10-21 19:10:09.887 -0400,112,1571699409.003581,33.9899636201492,-81.02906419675985,60.3652,1.592634,23.45908248702224,2.644846634425964,5.179703013991679,-9999,415569.643305,1.36578369140625,0.538970947265625,-0.3943634033203125,1,0.84,5
2019-10-21 19:10:09.927 -0400,113,1571699409.003581,33.9899636201492,-81.02906419675985,60.3652,1.592634,23.45908248702224,2.644846634425964,5.179703013991679,-9999,415569.68329,1.349029541015625,0.3915557861328125,-0.3100738525390625,1,0.84,5
2019-10-21 19:10:09.967 -0400,114,1571699409.003581,33.9899636201492,-81.02906419675985,60.3652,1.592634,23.45908248702224,2.644846634425964,5.179703013991679,-9999,415569.723274,0.9859466552734375,0.4613037109375,-0.3308563232421875,1,0.84,5
2019-10-21 19:10:10.007 -0400,115,1571699409.003581,33.9899636201492,-81.02906419675985,60.3652,1.592634,23.45908248702224,2.644846634425964,5.179703013991679,-9999,415569.763258,0.8149566650390625,0.25115966796875,-0.3967437744140625,1,0.84,5
2019-10-21 19:10:10.047 -0400,116,1571699409.003581,33.9899636201492,-81.02906419675985,60.3652,1.592634,23.45908248702224,2.644846634425964,5.179703013991679,-9999,415569.8032420001,0.7357025146484375,0.3309173583984375,-0.3372955322265625,1,0.84,5
2019-10-21 19:10:10.087 -0400,117,1571699409.003581,33.9899636201492,-81.02906419675985,60.3652,1.592634,23.45908248702224,2.644846634425964,5.179703013991679,-9999,415569.843226,0.8112030029296875,0.383697509765625,-0.35748291015625,1,0.84,5
2019-10-21 19:10:10.127 -0400,118,1571699409.003581,33.9899636201492,-81.02906419675985,60.3652,1.592634,23.45908248702224,2.644846634425964,5.179703013991679,-9999,415569.88321,1.059738159179688,0.5226898193359375,-0.4556732177734375,1,0.84,5
2019-10-21 19:10:10.167 -0400,119,1571699409.003581,33.9899636201492,-81.02906419675985,60.3652,1.592634,23.45908248702224,2.644846634425964,5.179703013991679,-9999,415569.923194,1.137496948242188,0.5623321533203125,-0.456695556640625,1,0.84,5
2019-10-21 19:10:10.207 -0400,120,1571699409.003581,33.9899636201492,-81.02906419675985,60.3652,1.592634,23.45908248702224,2.644846634425964,5.179703013991679,-9999,415569.9631796667,1.450042724609375,0.6287994384765625,-0.5159759521484375,1,0.84,5
2019-10-21 19:10:10.247 -0400,121,1571699409.003581,33.9899636201492,-81.02906419675985,60.3652,1.592634,23.45908248702224,2.644846634425964,5.179703013991679,-9999,415570.0031636667,1.68096923828125,0.734466552734375,-0.592864990234375,1,0.84,5
2019-10-21 19:10:10.295 -0400,122,1571699409.003581,33.9899636201492,-81.02906419675985,60.3652,1.592634,23.45908248702224,2.644846634425964,5.179703013991679,-9999,415570.0431476667,1.073028564453125,0.308563232421875,-0.24267578125,1,0.84,5
2019-10-21 19:10:10.327 -0400,123,1571699410.003581,33.98998006400881,-81.02905736338012,62.01945,1.629267,20.33980420735633,2.609779388603345,5.197459819528188,-9999,415570.0831316667,0.8939666748046875,0.3026275634765625,-0.2254791259765625,1,0.84,5
2019-10-21 19:10:10.367 -0400,124,1571699410.003581,33.98998006400881,-81.02905736338012,62.01945,1.629267,20.33980420735633,2.609779388603345,5.197459819528188,-9999,415570.1231156667,1.094100952148438,0.513153076171875,-0.227874755859375,1,0.84,5
2019-10-21 19:10:10.407 -0400,125,1571699410.003581,33.98998006400881,-81.02905736338012,62.01945,1.629267,20.33980420735633,2.609779388603345,5.197459819528188,-9999,415570.1630996667,1.156951904296875,0.5421295166015625,-0.194427490234375,1,0.84,5
2019-10-21 19:10:10.447 -0400,126,1571699410.003581,33.98998006400881,-81.02905736338012,62.01945,1.629267,20.33980420735633,2.609779388603345,5.197459819528188,-9999,415570.2030836667,0.8129119873046875,0.29815673828125,-0.0018310546875,1,0.84,5
2019-10-21 19:10:10.487 -0400,127,1571699410.003581,33.98998006400881,-81.02905736338012,62.01945,1.629267,20.33980420735633,2.609779388603345,5.197459819528188,-9999,415570.2430686667,0.683837890625,0.2176361083984375,-0.042327880859375,1,0.84,5
2019-10-21 19:10:10.527 -0400,128,1571699410.003581,33.98998006400881,-81.02905736338012,62.01945,1.629267,20.33980420735633,2.609779388603345,5.197459819528188,-9999,415570.2830526667,0.768524169921875,0.2647247314453125,-0.0610809326171875,1,0.84,5
2019-10-21 19:10:10.567 -0400,129,1571699410.003581,33.98998006400881,-81.02905736338012,62.01945,1.629267,20.33980420735633,2.609779388603345,5.197459819528188,-9999,415570.3230366667,1.024520874023438,0.3325653076171875,-0.0261688232421875,1,0.84,5
2019-10-21 19:10:10.607 -0400,130,1571699410.003581,33.98998006400881,-81.02905736338012,62.01945,1.629267,20.33980420735633,2.609779388603345,5.197459819528188,-9999,415570.3630206667,1.3050537109375,0.292510986328125,-0.0030670166015625,1,0.84,5
2019-10-21 19:10:10.647 -0400,131,1571699410.003581,33.98998006400881,-81.02905736338012,62.01945,1.629267,20.33980420735633,2.609779388603345,5.197459819528188,-9999,415570.4030046667,1.395904541015625,0.2314453125,0.00750732421875,1,0.84,5
2019-10-21 19:10:10.687 -0400,132,1571699410.003581,33.98998006400881,-81.02905736338012,62.01945,1.629267,20.33980420735633,2.609779388603345,5.197459819528188,-9999,415570.4429886667,1.231033325195312,0.16912841796875,-0.0367889404296875,1,0.84,5
2019-10-21 19:10:10.727 -0400,133,1571699410.003581,33.98998006400881,-81.02905736338012,62.01945,1.629267,20.33980420735633,2.609779388603345,5.197459819528188,-9999,415570.4829726667,1.071456909179688,0.2523345947265625,0.0322418212890625,1,0.84,5
2019-10-21 19:10:10.766 -0400,134,1571699410.003581,33.98998006400881,-81.02905736338012,62.01945,1.629267,20.33980420735633,2.609779388603345,5.197459819528188,-9999,415570.5229576667,1.040115356445312,0.330657958984375,-0.1193084716796875,1,0.84,5
2019-10-21 19:10:10.807 -0400,135,1571699410.003581,33.98998006400881,-81.02905736338012,62.01945,1.629267,20.33980420735633,2.609779388603345,5.197459819528188,-9999,415570.5629416667,1.32098388671875,0.458892822265625,-0.20318603515625,1,0.84,5
2019-10-21 19:10:10.847 -0400,136,1571699410.003581,33.98998006400881,-81.02905736338012,62.01945,1.629267,20.33980420735633,2.609779388603345,5.197459819528188,-9999,415570.6029256667,1.154830932617188,0.4730224609375,-0.31365966796875,1,0.84,5
2019-10-21 19:10:10.887 -0400,137,1571699410.003581,33.98998006400881,-81.02905736338012,62.01945,1.629267,20.33980420735633,2.609779388603345,5.197459819528188,-9999,415570.6429096667,0.763153076171875,0.2915802001953125,-0.29705810546875,1,0.84,5
2019-10-21 19:10:10.927 -0400,138,1571699410.003581,33.98998006400881,-81.02905736338012,62.01945,1.629267,20.33980420735633,2.609779388603345,5.197459819528188,-9999,415570.6828936667,0.6446990966796875,0.200164794921875,-0.3312225341796875,1,0.84,5
2019-10-21 19:10:10.967 -0400,139,1571699410.003581,33.98998006400881,-81.02905736338012,62.01945,1.629267,20.33980420735633,2.609779388603345,5.197459819528188,-9999,415570.7228776667,0.4905242919921875,0.190765380859375,-0.3475341796875,1,0.84,5
2019-10-21 19:10:11.007 -0400,140,1571699410.003581,33.98998006400881,-81.02905736338012,62.01945,1.629267,20.33980420735633,2.609779388603345,5.197459819528188,-9999,415570.7628616667,0.5071258544921875,0.342498779296875,-0.456390380859375,1,0.84,5
2019-10-21 19:10:11.047 -0400,141,1571699410.003581,33.98998006400881,-81.02905736338012,62.01945,1.629267,20.33980420735633,2.609779388603345,5.197459819528188,-9999,415570.8028466667,0.915283203125,0.5213623046875,-0.5844573974609375,1,0.84,5
2019-10-21 19:10:11.087 -0400,142,1571699410.003581,33.98998006400881,-81.02905736338012,62.01945,1.629267,20.33980420735633,2.609779388603345,5.197459819528188,-9999,415570.8428306667,1.091781616210938,0.402557373046875,-0.3817138671875,1,0.84,5
2019-10-21 19:10:11.127 -0400,143,1571699410.003581,33.98998006400881,-81.02905736338012,62.01945,1.629267,20.33980420735633,2.609779388603345,5.197459819528188,-9999,415570.8828146667,1.3853759765625,0.4069061279296875,-0.3984375,1,0.84,5
2019-10-21 19:10:11.167 -0400,144,1571699410.003581,33.98998006400881,-81.02905736338012,62.01945,1.629267,20.33980420735633,2.609779388603345,5.197459819528188,-9999,415570.9227986667,1.536163330078125,0.4948577880859375,-0.4668121337890625,1,0.84,5
2019-10-21 19:10:11.206 -0400,145,1571699410.003581,33.98998006400881,-81.02905736338012,62.01945,1.629267,20.33980420735633,2.609779388603345,5.197459819528188,-9999,415570.9627806667,1.07183837890625,0.5177001953125,-0.4490814208984375,1,0.84,5
2019-10-21 19:10:11.247 -0400,146,1571699410.003581,33.98998006400881,-81.02905736338012,62.01945,1.629267,20.33980420735633,2.609779388603345,5.197459819528188,-9999,415571.0027646667,1.40087890625,0.6190185546875,-0.3758087158203125,1,0.84,5
2019-10-21 19:10:11.286 -0400,147,1571699410.003581,33.98998006400881,-81.02905736338012,62.01945,1.629267,20.33980420735633,2.609779388603345,5.197459819528188,-9999,415571.0427486667,1.328079223632812,0.3306427001953125,-0.0569915771484375,1,0.84,5
2019-10-21 19:10:11.326 -0400,148,1571699411.003581,33.98999503613745,-81.02905399252796,63.07616,1.708187,18.303855811234,2.562371030198555,5.220995282164889,-9999,415571.0827326667,1.118255615234375,0.2988739013671875,-0.1259307861328125,1,0.84,5
2019-10-21 19:10:11.366 -0400,149,1571699411.003581,33.98999503613745,-81.02905399252796,63.07616,1.708187,18.303855811234,2.562371030198555,5.220995282164889,-9999,415571.1227176667,0.9040679931640625,0.2259979248046875,-0.132904052734375,1,0.84,5
2019-10-21 19:10:11.406 -0400,150,1571699411.003581,33.98999503613745,-81.02905399252796,63.07616,1.708187,18.303855811234,2.562371030198555,5.220995282164889,-9999,415571.1627016667,0.82147216796875,0.3319244384765625,-0.1722564697265625,1,0.84,5
2019-10-21 19:10:11.446 -0400,151,1571699411.003581,33.98999503613745,-81.02905399252796,63.07616,1.708187,18.303855811234,2.562371030198555,5.220995282164889,-9999,415571.2026856667,0.833831787109375,0.314605712890625,-0.0929107666015625,1,0.84,5
2019-10-21 19:10:11.486 -0400,152,1571699411.003581,33.98999503613745,-81.02905399252796,63.07616,1.708187,18.303855811234,2.562371030198555,5.220995282164889,-9999,415571.2426696667,0.9539642333984375,0.29693603515625,-0.0892791748046875,1,0.84,5
2019-10-21 19:10:11.526 -0400,153,1571699411.003581,33.98999503613745,-81.02905399252796,63.07616,1.708187,18.303855811234,2.562371030198555,5.220995282164889,-9999,415571.2826536667,1.134109497070312,0.2557830810546875,-0.1009521484375,1,0.84,5
2019-10-21 19:10:11.566 -0400,154,1571699411.003581,33.98999503613745,-81.02905399252796,63.07616,1.708187,18.303855811234,2.562371030198555,5.220995282164889,-9999,415571.3226376667,1.278839111328125,0.2130126953125,-0.1113128662109375,1,0.84,5
2019-10-21 19:10:11.612 -0400,155,1571699411.003581,33.98999503613745,-81.02905399252796,63.07616,1.708187,18.303855811234,2.562371030198555,5.220995282164889,-9999,415571.3626216667,1.103866577148438,0.159149169921875,-0.0442657470703125,1,0.84,5
2019-10-21 19:10:11.646 -0400,156,1571699411.003581,33.98999503613745,-81.02905399252796,63.07616,1.708187,18.303855811234,2.562371030198555,5.220995282164889,-9999,415571.4026056667,0.9399261474609375,0.2225341796875,-0.0348663330078125,1,0.84,5
2019-10-21 19:10:11.686 -0400,157,1571699411.003581,33.98999503613745,-81.02905399252796,63.07616,1.708187,18.303855811234,2.562371030198555,5.220995282164889,-9999,415571.4425906667,0.6763763427734375,0.3148193359375,-0.0778350830078125,1,0.84,5
2019-10-21 19:10:11.727 -0400,158,1571699411.003581,33.98999503613745,-81.02905399252796,63.07616,1.708187,18.303855811234,2.562371030198555,5.220995282164889,-9999,415571.4825746667,0.836700439453125,0.413848876953125,-0.21258544921875,1,0.84,5
2019-10-21 19:10:11.766 -0400,159,1571699411.003581,33.98999503613745,-81.02905399252796,63.07616,1.708187,18.303855811234,2.562371030198555,5.220995282164889,-9999,415571.5225586667,1.26629638671875,0.4446258544921875,-0.1885223388671875,1,0.84,5
2019-10-21 19:10:11.806 -0400,160,1571699411.003581,33.98999503613745,-81.02905399252796,63.07616,1.708187,18.303855811234,2.562371030198555,5.220995282164889,-9999,415571.5625426667,1.27001953125,0.5536956787109375,-0.3005828857421875,1,0.84,5
2019-10-21 19:10:11.846 -0400,161,1571699411.003581,33.98999503613745,-81.02905399252796,63.07616,1.708187,18.303855811234,2.562371030198555,5.220995282164889,-9999,415571.6025266667,0.8489990234375,0.4051971435546875,-0.3281097412109375,1,0.84,5
2019-10-21 19:10:11.886 -0400,162,1571699411.003581,33.98999503613745,-81.02905399252796,63.07616,1.708187,18.303855811234,2.562371030198555,5.220995282164889,-9999,415571.6425106667,0.76055908203125,0.2234344482421875,-0.2719573974609375,1,0.84,5
2019-10-21 19:10:11.926 -0400,163,1571699411.003581,33.98999503613745,-81.02905399252796,63.07616,1.708187,18.303855811234,2.562371030198555,5.220995282164889,-9999,415571.6824946667,0.844940185546875,0.2753753662109375,-0.3041534423828125,1,0.84,5
2019-10-21 19:10:11.966 -0400,164,1571699411.003581,33.98999503613745,-81.02905399252796,63.07616,1.708187,18.303855811234,2.562371030198555,5.220995282164889,-9999,415571.7224786667,1.059188842773438,0.3755035400390625,-0.390838623046875,1,0.84,5
2019-10-21 19:10:12.006 -0400,165,1571699411.003581,33.98999503613745,-81.02905399252796,63.07616,1.708187,18.303855811234,2.562371030198555,5.220995282164889,-9999,415571.7624636667,1.0755615234375,0.428680419921875,-0.363494873046875,1,0.84,5
2019-10-21 19:10:12.047 -0400,166,1571699411.003581,33.98999503613745,-81.02905399252796,63.07616,1.708187,18.303855811234,2.562371030198555,5.220995282164889,-9999,415571.8024476667,1.086380004882812,0.49395751953125,-0.394561767578125,1,0.84,5
2019-10-21 19:10:12.119 -0400,167,1571699411.003581,33.98999503613745,-81.02905399252796,63.07616,1.708187,18.303855811234,2.562371030198555,5.220995282164889,-9999,415571.8424316667,1.054168701171875,0.576690673828125,-0.381134033203125,1,0.84,5
2019-10-21 19:10:12.128 -0400,168,1571699411.003581,33.98999503613745,-81.02905399252796,63.07616,1.708187,18.303855811234,2.562371030198555,5.220995282164889,-9999,415571.8824156667,1.003097534179688,0.7408905029296875,-0.508453369140625,1,0.84,5
2019-10-21 19:10:12.168 -0400,169,1571699411.003581,33.98999503613745,-81.02905399252796,63.07616,1.708187,18.303855811234,2.562371030198555,5.220995282164889,-9999,415571.9223996667,1.315521240234375,0.8372650146484375,-0.4906463623046875,1,0.84,5
2019-10-21 19:10:12.223 -0400,170,1571699411.003581,33.98999503613745,-81.02905399252796,63.07616,1.708187,18.303855811234,2.562371030198555,5.220995282164889,-9999,415571.962385,1.49908447265625,0.563995361328125,-0.0796051025390625,1,0.84,5
2019-10-21 19:10:12.247 -0400,171,1571699412.00358,33.99000786800158,-81.02904821114123,60.85535,1.617602,16.96413611604385,2.507598688650376,5.303846406910661,-9999,415572.0023690001,1.277191162109375,0.14886474609375,-0.112335205078125,1,0.84,5
2019-10-21 19:10:12.286 -0400,172,1571699412.00358,33.99000786800158,-81.02904821114123,60.85535,1.617602,16.96413611604385,2.507598688650376,5.303846406910661,-9999,415572.042353,1.0701904296875,0.0012664794921875,-0.2763519287109375,1,0.84,5
2019-10-21 19:10:12.326 -0400,173,1571699412.00358,33.99000786800158,-81.02904821114123,60.85535,1.617602,16.96413611604385,2.507598688650376,5.303846406910661,-9999,415572.082338,1.058685302734375,0.2288970947265625,-0.26251220703125,1,0.84,5
2019-10-21 19:10:12.375 -0400,174,1571699412.00358,33.99000786800158,-81.02904821114123,60.85535,1.617602,16.96413611604385,2.507598688650376,5.303846406910661,-9999,415572.122322,1.030899047851562,0.3792724609375,-0.225433349609375,1,0.84,5
2019-10-21 19:10:12.406 -0400,175,1571699412.00358,33.99000786800158,-81.02904821114123,60.85535,1.617602,16.96413611604385,2.507598688650376,5.303846406910661,-9999,415572.162306,1.191513061523438,0.3269805908203125,-0.1021575927734375,1,0.84,5
2019-10-21 19:10:12.446 -0400,176,1571699412.00358,33.99000786800158,-81.02904821114123,60.85535,1.617602,16.96413611604385,2.507598688650376,5.303846406910661,-9999,415572.20229,1.182205200195312,0.229339599609375,-0.10186767578125,1,0.84,5
2019-10-21 19:10:12.486 -0400,177,1571699412.00358,33.99000786800158,-81.02904821114123,60.85535,1.617602,16.96413611604385,2.507598688650376,5.303846406910661,-9999,415572.242274,1.1422119140625,0.197479248046875,-0.140594482421875,1,0.84,5
2019-10-21 19:10:12.526 -0400,178,1571699412.00358,33.99000786800158,-81.02904821114123,60.85535,1.617602,16.96413611604385,2.507598688650376,5.303846406910661,-9999,415572.2822580001,0.9882049560546875,0.17572021484375,-0.060577392578125,1,0.84,5
2019-10-21 19:10:12.566 -0400,179,1571699412.00358,33.99000786800158,-81.02904821114123,60.85535,1.617602,16.96413611604385,2.507598688650376,5.303846406910661,-9999,415572.322242,0.9111328125,0.220977783203125,-0.0145111083984375,1,0.84,5
2019-10-21 19:10:12.606 -0400,180,1571699412.00358,33.99000786800158,-81.02904821114123,60.85535,1.617602,16.96413611604385,2.507598688650376,5.303846406910661,-9999,415572.362226,0.8222198486328125,0.2059326171875,-0.023406982421875,1,0.84,5
2019-10-21 19:10:12.647 -0400,181,1571699412.00358,33.99000786800158,-81.02904821114123,60.85535,1.617602,16.96413611604385,2.507598688650376,5.303846406910661,-9999,415572.402211,1.00701904296875,0.3652496337890625,-0.100372314453125,1,0.84,5
2019-10-21 19:10:12.703 -0400,182,1571699412.00358,33.99000786800158,-81.02904821114123,60.85535,1.617602,16.96413611604385,2.507598688650376,5.303846406910661,-9999,415572.442195,1.15411376953125,0.4113006591796875,-0.0935821533203125,1,0.84,5
2019-10-21 19:10:12.726 -0400,183,1571699412.00358,33.99000786800158,-81.02904821114123,60.85535,1.617602,16.96413611604385,2.507598688650376,5.303846406910661,-9999,415572.482179,0.9505767822265625,0.4920196533203125,-0.304168701171875,1,0.84,5
2019-10-21 19:10:12.766 -0400,184,1571699412.00358,33.99000786800158,-81.02904821114123,60.85535,1.617602,16.96413611604385,2.507598688650376,5.303846406910661,-9999,415572.522163,0.7391204833984375,0.3962554931640625,-0.413604736328125,1,0.84,5
2019-10-21 19:10:12.806 -0400,185,1571699412.00358,33.99000786800158,-81.02904821114123,60.85535,1.617602,16.96413611604385,2.507598688650376,5.303846406910661,-9999,415572.562147,0.709625244140625,0.3190460205078125,-0.2508544921875,1,0.84,5
2019-10-21 19:10:12.846 -0400,186,1571699412.00358,33.99000786800158,-81.02904821114123,60.85535,1.617602,16.96413611604385,2.507598688650376,5.303846406910661,-9999,415572.602131,1.006805419921875,0.396392822265625,-0.3311614990234375,1,0.84,5
2019-10-21 19:10:12.886 -0400,187,1571699412.00358,33.99000786800158,-81.02904821114123,60.85535,1.617602,16.96413611604385,2.507598688650376,5.303846406910661,-9999,415572.6421150001,1.4512939453125,0.6148529052734375,-0.534027099609375,1,0.84,5
2019-10-21 19:10:12.926 -0400,188,1571699412.00358,33.99000786800158,-81.02904821114123,60.85535,1.617602,16.96413611604385,2.507598688650376,5.303846406910661,-9999,415572.682099,1.371505737304688,0.78607177734375,-0.6072998046875,1,0.84,5
2019-10-21 19:10:12.966 -0400,189,1571699412.00358,33.99000786800158,-81.02904821114123,60.85535,1.617602,16.96413611604385,2.507598688650376,5.303846406910661,-9999,415572.722084,1.210433959960938,0.5509033203125,-0.4957427978515625,1,0.84,5
2019-10-21 19:10:13.006 -0400,190,1571699412.00358,33.99000786800158,-81.02904821114123,60.85535,1.617602,16.96413611604385,2.507598688650376,5.303846406910661,-9999,415572.762068,1.456573486328125,0.5375213623046875,-0.4460906982421875,1,0.84,5
2019-10-21 19:10:13.046 -0400,191,1571699412.00358,33.99000786800158,-81.02904821114123,60.85535,1.617602,16.96413611604385,2.507598688650376,5.303846406910661,-9999,415572.802052,0.9623565673828125,0.6312255859375,-0.4598846435546875,1,0.84,5
2019-10-21 19:10:13.086 -0400,192,1571699412.00358,33.99000786800158,-81.02904821114123,60.85535,1.617602,16.96413611604385,2.507598688650376,5.303846406910661,-9999,415572.842036,1.491287231445312,0.744049072265625,-0.3683929443359375,1,0.84,5
2019-10-21 19:10:13.126 -0400,193,1571699412.00358,33.99000786800158,-81.02904821114123,60.85535,1.617602,16.96413611604385,2.507598688650376,5.303846406910661,-9999,415572.88202,1.481277465820312,0.412841796875,-0.140228271484375,1,0.84,5
2019-10-21 19:10:13.175 -0400,194,1571699412.00358,33.99000786800158,-81.02904821114123,60.85535,1.617602,16.96413611604385,2.507598688650376,5.303846406910661,-9999,415572.9220040001,1.211380004882812,0.2172698974609375,-0.2095947265625,1,0.84,5
2019-10-21 19:10:13.206 -0400,195,1571699412.00358,33.99000786800158,-81.02904821114123,60.85535,1.617602,16.96413611604385,2.507598688650376,5.303846406910661,-9999,415572.9619876251,0.948974609375,0.19805908203125,-0.207611083984375,1,0.84,5
2019-10-21 19:10:13.246 -0400,196,1571699413.00358,33.99001490414322,-81.02903636484106,59.29057,1.332781,26.00994466162334,2.462587409364442,5.352478806407775,-9999,415573.001971625,0.8295135498046875,0.2941131591796875,-0.201995849609375,1,0.84,5
2019-10-21 19:10:13.286 -0400,197,1571699413.00358,33.99001490414322,-81.02903636484106,59.29057,1.332781,26.00994466162334,2.462587409364442,5.352478806407775,-9999,415573.041956625,0.8770294189453125,0.321014404296875,-0.099212646484375,1,0.84,5
2019-10-21 19:10:13.326 -0400,198,1571699413.00358,33.99001490414322,-81.02903636484106,59.29057,1.332781,26.00994466162334,2.462587409364442,5.352478806407775,-9999,415573.081940625,1.004119873046875,0.3204803466796875,-0.0790863037109375,1,0.84,5
2019-10-21 19:10:13.366 -0400,199,1571699413.00358,33.99001490414322,-81.02903636484106,59.29057,1.332781,26.00994466162334,2.462587409364442,5.352478806407775,-9999,415573.121924625,1.120773315429688,0.267974853515625,-0.077484130859375,1,0.84,5
2019-10-21 19:10:13.406 -0400,200,1571699413.00358,33.99001490414322,-81.02903636484106,59.29057,1.332781,26.00994466162334,2.462587409364442,5.352478806407775,-9999,415573.161908625,1.23992919921875,0.2362518310546875,-0.07415771484375,1,0.84,5
2019-10-21 19:10:13.446 -0400,201,1571699413.00358,33.99001490414322,-81.02903636484106,59.29057,1.332781,26.00994466162334,2.462587409364442,5.352478806407775,-9999,415573.201892625,1.13348388671875,0.249847412109375,-0.04656982421875,1,0.84,5
2019-10-21 19:10:13.486 -0400,202,1571699413.00358,33.99001490414322,-81.02903636484106,59.29057,1.332781,26.00994466162334,2.462587409364442,5.352478806407775,-9999,415573.241876625,1.014419555664062,0.2810211181640625,0.002777099609375,1,0.84,5
2019-10-21 19:10:13.526 -0400,203,1571699413.00358,33.99001490414322,-81.02903636484106,59.29057,1.332781,26.00994466162334,2.462587409364442,5.352478806407775,-9999,415573.281860625,1.055450439453125,0.28118896484375,-0.0985870361328125,1,0.84,5
2019-10-21 19:10:13.565 -0400,204,1571699413.00358,33.99001490414322,-81.02903636484106,59.29057,1.332781,26.00994466162334,2.462587409364442,5.352478806407775,-9999,415573.3218446251,1.274826049804688,0.39813232421875,-0.127349853515625,1,0.84,5
2019-10-21 19:10:13.606 -0400,205,1571699413.00358,33.99001490414322,-81.02903636484106,59.29057,1.332781,26.00994466162334,2.462587409364442,5.352478806407775,-9999,415573.361828625,1.209320068359375,0.4068145751953125,-0.1790771484375,1,0.84,5
2019-10-21 19:10:13.645 -0400,206,1571699413.00358,33.99001490414322,-81.02903636484106,59.29057,1.332781,26.00994466162334,2.462587409364442,5.352478806407775,-9999,415573.401813625,0.8514862060546875,0.4181365966796875,-0.3560333251953125,1,0.84,5
2019-10-21 19:10:13.686 -0400,207,1571699413.00358,33.99001490414322,-81.02903636484106,59.29057,1.332781,26.00994466162334,2.462587409364442,5.352478806407775,-9999,415573.441797625,0.7159576416015625,0.3233795166015625,-0.35113525390625,1,0.84,5
2019-10-21 19:10:13.725 -0400,208,1571699413.00358,33.99001490414322,-81.02903636484106,59.29057,1.332781,26.00994466162334,2.462587409364442,5.352478806407775,-9999,415573.481781625,0.6730499267578125,0.30718994140625,-0.360565185546875,1,0.84,5
2019-10-21 19:10:13.766 -0400,209,1571699413.00358,33.99001490414322,-81.02903636484106,59.29057,1.332781,26.00994466162334,2.462587409364442,5.352478806407775,-9999,415573.521765625,0.855438232421875,0.348876953125,-0.320465087890625,1,0.84,5
2019-10-21 19:10:13.806 -0400,210,1571699413.00358,33.99001490414322,-81.02903636484106,59.29057,1.332781,26.00994466162334,2.462587409364442,5.352478806407775,-9999,415573.561749625,1.339813232421875,0.5579681396484375,-0.5995635986328125,1,0.84,5
2019-10-21 19:10:13.846 -0400,211,1571699413.00358,33.99001490414322,-81.02903636484106,59.29057,1.332781,26.00994466162334,2.462587409364442,5.352478806407775,-9999,415573.6017336251,1.297775268554688,0.5728302001953125,-0.46856689453125,1,0.84,5
2019-10-21 19:10:13.886 -0400,212,1571699413.00358,33.99001490414322,-81.02903636484106,59.29057,1.332781,26.00994466162334,2.462587409364442,5.352478806407775,-9999,415573.641717625,1.274871826171875,0.5395355224609375,-0.5419921875,1,0.84,5
2019-10-21 19:10:13.925 -0400,213,1571699413.00358,33.99001490414322,-81.02903636484106,59.29057,1.332781,26.00994466162334,2.462587409364442,5.352478806407775,-9999,415573.681701625,1.456405639648438,0.606719970703125,-0.51202392578125,1,0.84,5
2019-10-21 19:10:13.966 -0400,214,1571699413.00358,33.99001490414322,-81.02903636484106,59.29057,1.332781,26.00994466162334,2.462587409364442,5.352478806407775,-9999,415573.721686625,0.928985595703125,0.6560211181640625,-0.5128021240234375,1,0.84,5
2019-10-21 19:10:14.005 -0400,215,1571699413.00358,33.99001490414322,-81.02903636484106,59.29057,1.332781,26.00994466162334,2.462587409364442,5.352478806407775,-9999,415573.761670625,1.509536743164062,0.5901031494140625,-0.391204833984375,1,0.84,5
2019-10-21 19:10:14.045 -0400,216,1571699413.00358,33.99001490414322,-81.02903636484106,59.29057,1.332781,26.00994466162334,2.462587409364442,5.352478806407775,-9999,415573.801654625,1.500579833984375,0.372039794921875,-0.2337799072265625,1,0.84,5
2019-10-21 19:10:14.094 -0400,217,1571699413.00358,33.99001490414322,-81.02903636484106,59.29057,1.332781,26.00994466162334,2.462587409364442,5.352478806407775,-9999,415573.841638625,1.165664672851562,0.16925048828125,-0.256317138671875,1,0.84,5
2019-10-21 19:10:14.125 -0400,218,1571699413.00358,33.99001490414322,-81.02903636484106,59.29057,1.332781,26.00994466162334,2.462587409364442,5.352478806407775,-9999,415573.881622625,0.8744659423828125,0.20806884765625,-0.210052490234375,1,0.84,5
2019-10-21 19:10:14.165 -0400,219,1571699413.00358,33.99001490414322,-81.02903636484106,59.29057,1.332781,26.00994466162334,2.462587409364442,5.352478806407775,-9999,415573.921606625,0.76202392578125,0.2733001708984375,-0.1356964111328125,1,0.84,5
2019-10-21 19:10:14.205 -0400,220,1571699413.00358,33.99001490414322,-81.02903636484106,59.29057,1.332781,26.00994466162334,2.462587409364442,5.352478806407775,-9999,415573.9615899167,0.8488922119140625,0.315338134765625,-0.0944366455078125,1,0.84,5
2019-10-21 19:10:14.245 -0400,221,1571699413.00358,33.99001490414322,-81.02903636484106,59.29057,1.332781,26.00994466162334,2.462587409364442,5.352478806407775,-9999,415574.0015739167,0.9993133544921875,0.364288330078125,-0.12127685546875,1,0.84,5
2019-10-21 19:10:14.285 -0400,222,1571699413.00358,33.99001490414322,-81.02903636484106,59.29057,1.332781,26.00994466162334,2.462587409364442,5.352478806407775,-9999,415574.0415589167,1.130447387695312,0.312103271484375,-0.1040191650390625,1,0.84,5
2019-10-21 19:10:14.325 -0400,223,1571699414.00358,33.99003007419812,-81.0290198149425,59.0373,1.517766,32.97344137096698,2.501856140813807,5.385175333177657,-9999,415574.0815429167,1.21600341796875,0.2285003662109375,-0.0446319580078125,1,0.84,5
2019-10-21 19:10:14.365 -0400,224,1571699414.00358,33.99003007419812,-81.0290198149425,59.0373,1.517766,32.97344137096698,2.501856140813807,5.385175333177657,-9999,415574.1215269167,1.075302124023438,0.1986236572265625,-0.009124755859375,1,0.84,5
2019-10-21 19:10:14.405 -0400,225,1571699414.00358,33.99003007419812,-81.0290198149425,59.0373,1.517766,32.97344137096698,2.501856140813807,5.385175333177657,-9999,415574.1615109167,0.8774566650390625,0.2901153564453125,0.0546417236328125,1,0.84,5
2019-10-21 19:10:14.445 -0400,226,1571699414.00358,33.99003007419812,-81.0290198149425,59.0373,1.517766,32.97344137096698,2.501856140813807,5.385175333177657,-9999,415574.2014949167,0.8092498779296875,0.313507080078125,-0.06201171875,1,0.84,5
2019-10-21 19:10:14.485 -0400,227,1571699414.00358,33.99003007419812,-81.0290198149425,59.0373,1.517766,32.97344137096698,2.501856140813807,5.385175333177657,-9999,415574.2414789167,1.21697998046875,0.4615020751953125,-0.2563018798828125,1,0.84,5
2019-10-21 19:10:14.525 -0400,228,1571699414.00358,33.99003007419812,-81.0290198149425,59.0373,1.517766,32.97344137096698,2.501856140813807,5.385175333177657,-9999,415574.2814629167,1.2816162109375,0.449432373046875,-0.27252197265625,1,0.84,5
2019-10-21 19:10:14.565 -0400,229,1571699414.00358,33.99003007419812,-81.0290198149425,59.0373,1.517766,32.97344137096698,2.501856140813807,5.385175333177657,-9999,415574.3214469167,0.9280242919921875,0.4412384033203125,-0.328857421875,1,0.84,5
2019-10-21 19:10:14.605 -0400,230,1571699414.00358,33.99003007419812,-81.0290198149425,59.0373,1.517766,32.97344137096698,2.501856140813807,5.385175333177657,-9999,415574.3614309167,0.747344970703125,0.26715087890625,-0.36834716796875,1,0.84,5
2019-10-21 19:10:14.645 -0400,231,1571699414.00358,33.99003007419812,-81.0290198149425,59.0373,1.517766,32.97344137096698,2.501856140813807,5.385175333177657,-9999,415574.4014159167,0.674346923828125,0.2447509765625,-0.377899169921875,1,0.84,5
2019-10-21 19:10:14.685 -0400,232,1571699414.00358,33.99003007419812,-81.0290198149425,59.0373,1.517766,32.97344137096698,2.501856140813807,5.385175333177657,-9999,415574.4413999167,0.7860870361328125,0.2625274658203125,-0.3328704833984375,1,0.84,5
2019-10-21 19:10:14.725 -0400,233,1571699414.00358,33.99003007419812,-81.0290198149425,59.0373,1.517766,32.97344137096698,2.501856140813807,5.385175333177657,-9999,415574.4813839167,1.120437622070312,0.4000701904296875,-0.4831390380859375,1,0.84,5
2019-10-21 19:10:14.765 -0400,234,1571699414.00358,33.99003007419812,-81.0290198149425,59.0373,1.517766,32.97344137096698,2.501856140813807,5.385175333177657,-9999,415574.5213679167,1.235977172851562,0.4432830810546875,-0.5586395263671875,1,0.84,5
2019-10-21 19:10:14.805 -0400,235,1571699414.00358,33.99003007419812,-81.0290198149425,59.0373,1.517766,32.97344137096698,2.501856140813807,5.385175333177657,-9999,415574.5613519167,1.29541015625,0.40826416015625,-0.4943695068359375,1,0.84,5
2019-10-21 19:10:14.845 -0400,236,1571699414.00358,33.99003007419812,-81.0290198149425,59.0373,1.517766,32.97344137096698,2.501856140813807,5.385175333177657,-9999,415574.6013359167,1.421585083007812,0.47735595703125,-0.50042724609375,1,0.84,5
2019-10-21 19:10:14.885 -0400,237,1571699414.00358,33.99003007419812,-81.0290198149425,59.0373,1.517766,32.97344137096698,2.501856140813807,5.385175333177657,-9999,415574.6413199167,1.219406127929688,0.6641082763671875,-0.6124267578125,1,0.84,5
2019-10-21 19:10:14.925 -0400,238,1571699414.00358,33.99003007419812,-81.0290198149425,59.0373,1.517766,32.97344137096698,2.501856140813807,5.385175333177657,-9999,415574.6813039167,1.060958862304688,0.54754638671875,-0.4139862060546875,1,0.84,5
2019-10-21 19:10:14.965 -0400,239,1571699414.00358,33.99003007419812,-81.0290198149425,59.0373,1.517766,32.97344137096698,2.501856140813807,5.385175333177657,-9999,415574.7212889167,1.386886596679688,0.4535980224609375,-0.3160400390625,1,0.84,5
2019-10-21 19:10:15.005 -0400,240,1571699414.00358,33.99003007419812,-81.0290198149425,59.0373,1.517766,32.97344137096698,2.501856140813807,5.385175333177657,-9999,415574.7612729167,1.211441040039062,0.203125,-0.191070556640625,1,0.84,5
2019-10-21 19:10:15.045 -0400,241,1571699414.00358,33.99003007419812,-81.0290198149425,59.0373,1.517766,32.97344137096698,2.501856140813807,5.385175333177657,-9999,415574.8012569167,0.870697021484375,0.20001220703125,-0.155609130859375,1,0.84,5
2019-10-21 19:10:15.085 -0400,242,1571699414.00358,33.99003007419812,-81.0290198149425,59.0373,1.517766,32.97344137096698,2.501856140813807,5.385175333177657,-9999,415574.8412409167,0.692535400390625,0.254547119140625,-0.1175384521484375,1,0.84,5
2019-10-21 19:10:15.125 -0400,243,1571699414.00358,33.99003007419812,-81.0290198149425,59.0373,1.517766,32.97344137096698,2.501856140813807,5.385175333177657,-9999,415574.8812249167,0.6778564453125,0.3334503173828125,-0.0850830078125,1,0.84,5
2019-10-21 19:10:15.165 -0400,244,1571699414.00358,33.99003007419812,-81.0290198149425,59.0373,1.517766,32.97344137096698,2.501856140813807,5.385175333177657,-9999,415574.9212089167,0.84173583984375,0.3546142578125,-0.069580078125,1,0.84,5
2019-10-21 19:10:15.215 -0400,245,1571699414.00358,33.99003007419812,-81.0290198149425,59.0373,1.517766,32.97344137096698,2.501856140813807,5.385175333177657,-9999,415574.96119375,1.048309326171875,0.3356170654296875,-0.04364013671875,1,0.84,5
2019-10-21 19:10:15.245 -0400,246,1571699415.003579,33.99004420234392,-81.02901354386231,57.8296,1.590408,29.15634646484851,2.458301024660743,5.434247110644791,-9999,415575.00117775,1.231521606445312,0.2979278564453125,-0.0464630126953125,1,0.84,5
2019-10-21 19:10:15.285 -0400,247,1571699415.003579,33.99004420234392,-81.02901354386231,57.8296,1.590408,29.15634646484851,2.458301024660743,5.434247110644791,-9999,415575.04116175,1.261383056640625,0.2416839599609375,0.0125274658203125,1,0.84,5
2019-10-21 19:10:15.325 -0400,248,1571699415.003579,33.99004420234392,-81.02901354386231,57.8296,1.590408,29.15634646484851,2.458301024660743,5.434247110644791,-9999,415575.08114675,1.103469848632812,0.259735107421875,-0.015533447265625,1,0.84,5
2019-10-21 19:10:15.365 -0400,249,1571699415.003579,33.99004420234392,-81.02901354386231,57.8296,1.590408,29.15634646484851,2.458301024660743,5.434247110644791,-9999,415575.12113075,0.8770599365234375,0.345306396484375,-0.02886962890625,1,0.84,5
2019-10-21 19:10:15.405 -0400,250,1571699415.003579,33.99004420234392,-81.02901354386231,57.8296,1.590408,29.15634646484851,2.458301024660743,5.434247110644791,-9999,415575.16111475,0.929229736328125,0.3600311279296875,-0.177459716796875,1,0.84,5
2019-10-21 19:10:15.445 -0400,251,1571699415.003579,33.99004420234392,-81.02901354386231,57.8296,1.590408,29.15634646484851,2.458301024660743,5.434247110644791,-9999,415575.20109875,1.183990478515625,0.439453125,-0.2494049072265625,1,0.84,5
2019-10-21 19:10:15.485 -0400,252,1571699415.003579,33.99004420234392,-81.02901354386231,57.8296,1.590408,29.15634646484851,2.458301024660743,5.434247110644791,-9999,415575.24108275,1.071792602539062,0.4697113037109375,-0.3444976806640625,1,0.84,5
2019-10-21 19:10:15.525 -0400,253,1571699415.003579,33.99004420234392,-81.02901354386231,57.8296,1.590408,29.15634646484851,2.458301024660743,5.434247110644791,-9999,415575.28106675,0.7358551025390625,0.3728790283203125,-0.3806915283203125,1,0.84,5
2019-10-21 19:10:15.565 -0400,254,1571699415.003579,33.99004420234392,-81.02901354386231,57.8296,1.590408,29.15634646484851,2.458301024660743,5.434247110644791,-9999,415575.32105075,0.6024017333984375,0.1982574462890625,-0.34600830078125,1,0.84,5
2019-10-21 19:10:15.605 -0400,255,1571699415.003579,33.99004420234392,-81.02901354386231,57.8296,1.590408,29.15634646484851,2.458301024660743,5.434247110644791,-9999,415575.36103475,0.584381103515625,0.2371368408203125,-0.3551483154296875,1,0.84,5
2019-10-21 19:10:15.645 -0400,256,1571699415.003579,33.99004420234392,-81.02901354386231,57.8296,1.590408,29.15634646484851,2.458301024660743,5.434247110644791,-9999,415575.40101875,0.751983642578125,0.3021392822265625,-0.40936279296875,1,0.84,5
2019-10-21 19:10:15.685 -0400,257,1571699415.003579,33.99004420234392,-81.02901354386231,57.8296,1.590408,29.15634646484851,2.458301024660743,5.434247110644791,-9999,415575.44100375,1.127059936523438,0.453460693359375,-0.5364837646484375,1,0.84,5
2019-10-21 19:10:15.725 -0400,258,1571699415.003579,33.99004420234392,-81.02901354386231,57.8296,1.590408,29.15634646484851,2.458301024660743,5.434247110644791,-9999,415575.4809877501,1.149383544921875,0.4569549560546875,-0.5727081298828125,1,0.84,5
2019-10-21 19:10:15.765 -0400,259,1571699415.003579,33.99004420234392,-81.02901354386231,57.8296,1.590408,29.15634646484851,2.458301024660743,5.434247110644791,-9999,415575.52097175,1.273818969726562,0.419708251953125,-0.546478271484375,1,0.84,5
2019-10-21 19:10:15.805 -0400,260,1571699415.003579,33.99004420234392,-81.02901354386231,57.8296,1.590408,29.15634646484851,2.458301024660743,5.434247110644791,-9999,415575.56095575,1.64984130859375,0.50604248046875,-0.5164031982421875,1,0.84,5
2019-10-21 19:10:15.845 -0400,261,1571699415.003579,33.99004420234392,-81.02901354386231,57.8296,1.590408,29.15634646484851,2.458301024660743,5.434247110644791,-9999,415575.60093975,1.144287109375,0.511016845703125,-0.5709991455078125,1,0.84,5
2019-10-21 19:10:15.885 -0400,262,1571699415.003579,33.99004420234392,-81.02901354386231,57.8296,1.590408,29.15634646484851,2.458301024660743,5.434247110644791,-9999,415575.64092375,1.307174682617188,0.3734588623046875,-0.3020172119140625,1,0.84,5
2019-10-21 19:10:15.925 -0400,263,1571699415.003579,33.99004420234392,-81.02901354386231,57.8296,1.590408,29.15634646484851,2.458301024660743,5.434247110644791,-9999,415575.68090775,1.309463500976562,0.312042236328125,-0.2175140380859375,1,0.84,5
2019-10-21 19:10:15.965 -0400,264,1571699415.003579,33.99004420234392,-81.02901354386231,57.8296,1.590408,29.15634646484851,2.458301024660743,5.434247110644791,-9999,415575.72089175,1.018112182617188,0.2350006103515625,-0.1734466552734375,1,0.84,5
2019-10-21 19:10:16.005 -0400,265,1571699415.003579,33.99004420234392,-81.02901354386231,57.8296,1.590408,29.15634646484851,2.458301024660743,5.434247110644791,-9999,415575.76087575,0.7348480224609375,0.2425689697265625,-0.1286163330078125,1,0.84,5
2019-10-21 19:10:16.045 -0400,266,1571699415.003579,33.99004420234392,-81.02901354386231,57.8296,1.590408,29.15634646484851,2.458301024660743,5.434247110644791,-9999,415575.80085975,0.56890869140625,0.30206298828125,-0.1167755126953125,1,0.84,5
2019-10-21 19:10:16.085 -0400,267,1571699415.003579,33.99004420234392,-81.02901354386231,57.8296,1.590408,29.15634646484851,2.458301024660743,5.434247110644791,-9999,415575.84084475,0.5498809814453125,0.3210601806640625,-0.0926971435546875,1,0.84,5
2019-10-21 19:10:16.126 -0400,268,1571699415.003579,33.99004420234392,-81.02901354386231,57.8296,1.590408,29.15634646484851,2.458301024660743,5.434247110644791,-9999,415575.88082875,0.686737060546875,0.335723876953125,-0.0691986083984375,1,0.84,5
2019-10-21 19:10:16.165 -0400,269,1571699415.003579,33.99004420234392,-81.02901354386231,57.8296,1.590408,29.15634646484851,2.458301024660743,5.434247110644791,-9999,415575.92081275,0.92852783203125,0.31683349609375,-0.0768585205078125,1,0.84,5
2019-10-21 19:10:16.205 -0400,270,1571699415.003579,33.99004420234392,-81.02901354386231,57.8296,1.590408,29.15634646484851,2.458301024660743,5.434247110644791,-9999,415575.9607967917,1.12493896484375,0.2838592529296875,-0.09429931640625,1,0.84,5
2019-10-21 19:10:16.245 -0400,271,1571699415.003579,33.99004420234392,-81.02901354386231,57.8296,1.590408,29.15634646484851,2.458301024660743,5.434247110644791,-9999,415576.0007807917,1.28790283203125,0.2700347900390625,-0.068115234375,1,0.84,5
2019-10-21 19:10:16.285 -0400,272,1571699415.003579,33.99004420234392,-81.02901354386231,57.8296,1.590408,29.15634646484851,2.458301024660743,5.434247110644791,-9999,415576.0407647917,1.278366088867188,0.2917022705078125,-0.0302581787109375,1,0.84,5
2019-10-21 19:10:16.324 -0400,273,1571699415.003579,33.99004420234392,-81.02901354386231,57.8296,1.590408,29.15634646484851,2.458301024660743,5.434247110644791,-9999,415576.0807487917,0.9361419677734375,0.370147705078125,-0.10736083984375,1,0.84,5
2019-10-21 19:10:16.364 -0400,274,1571699416.003578,33.99005628830021,-81.02900702086293,58.14938,1.698365,29.68579431313171,2.439978333195762,5.497022354689793,-9999,415576.1207327917,1.138824462890625,0.425445556640625,-0.2352142333984375,1,0.84,5
2019-10-21 19:10:16.404 -0400,275,1571699416.003578,33.99005628830021,-81.02900702086293,58.14938,1.698365,29.68579431313171,2.439978333195762,5.497022354689793,-9999,415576.1607167917,1.24114990234375,0.3857421875,-0.1974334716796875,1,0.84,5
2019-10-21 19:10:16.444 -0400,276,1571699416.003578,33.99005628830021,-81.02900702086293,58.14938,1.698365,29.68579431313171,2.439978333195762,5.497022354689793,-9999,415576.2007017917,1.028610229492188,0.4686737060546875,-0.372802734375,1,0.84,5
2019-10-21 19:10:16.484 -0400,277,1571699416.003578,33.99005628830021,-81.02900702086293,58.14938,1.698365,29.68579431313171,2.439978333195762,5.497022354689793,-9999,415576.2406857917,0.7021331787109375,0.2688446044921875,-0.4476318359375,1,0.84,5
2019-10-21 19:10:16.524 -0400,278,1571699416.003578,33.99005628830021,-81.02900702086293,58.14938,1.698365,29.68579431313171,2.439978333195762,5.497022354689793,-9999,415576.2806697917,0.572662353515625,0.1916351318359375,-0.3532257080078125,1,0.84,5
2019-10-21 19:10:16.564 -0400,279,1571699416.003578,33.99005628830021,-81.02900702086293,58.14938,1.698365,29.68579431313171,2.439978333195762,5.497022354689793,-9999,415576.3206537917,0.56121826171875,0.2155303955078125,-0.3461761474609375,1,0.84,5
2019-10-21 19:10:16.604 -0400,280,1571699416.003578,33.99005628830021,-81.02900702086293,58.14938,1.698365,29.68579431313171,2.439978333195762,5.497022354689793,-9999,415576.3606377917,0.7884521484375,0.3269500732421875,-0.430084228515625,1,0.84,5
2019-10-21 19:10:16.645 -0400,281,1571699416.003578,33.99005628830021,-81.02900702086293,58.14938,1.698365,29.68579431313171,2.439978333195762,5.497022354689793,-9999,415576.4006217917,1.117813110351562,0.4421539306640625,-0.543853759765625,1,0.84,5
2019-10-21 19:10:16.685 -0400,282,1571699416.003578,33.99005628830021,-81.02900702086293,58.14938,1.698365,29.68579431313171,2.439978333195762,5.497022354689793,-9999,415576.4406057917,1.129226684570312,0.3698883056640625,-0.4817962646484375,1,0.84,5
2019-10-21 19:10:16.725 -0400,283,1571699416.003578,33.99005628830021,-81.02900702086293,58.14938,1.698365,29.68579431313171,2.439978333195762,5.497022354689793,-9999,415576.4805897917,1.185638427734375,0.366973876953125,-0.4924774169921875,1,0.84,5
2019-10-21 19:10:16.765 -0400,284,1571699416.003578,33.99005628830021,-81.02900702086293,58.14938,1.698365,29.68579431313171,2.439978333195762,5.497022354689793,-9999,415576.5205737917,1.48291015625,0.4608154296875,-0.4297637939453125,1,0.84,5
2019-10-21 19:10:16.804 -0400,285,1571699416.003578,33.99005628830021,-81.02900702086293,58.14938,1.698365,29.68579431313171,2.439978333195762,5.497022354689793,-9999,415576.5605577917,1.01641845703125,0.55877685546875,-0.4747467041015625,1,0.84,5
2019-10-21 19:10:16.844 -0400,286,1571699416.003578,33.99005628830021,-81.02900702086293,58.14938,1.698365,29.68579431313171,2.439978333195762,5.497022354689793,-9999,415576.6005427917,1.26922607421875,0.5379180908203125,-0.3184356689453125,1,0.84,5
2019-10-21 19:10:16.884 -0400,287,1571699416.003578,33.99005628830021,-81.02900702086293,58.14938,1.698365,29.68579431313171,2.439978333195762,5.497022354689793,-9999,415576.6405267917,1.348419189453125,0.44830322265625,-0.181884765625,1,0.84,5
2019-10-21 19:10:16.924 -0400,288,1571699416.003578,33.99005628830021,-81.02900702086293,58.14938,1.698365,29.68579431313171,2.439978333195762,5.497022354689793,-9999,415576.6805107917,1.073684692382812,0.2908172607421875,-0.116302490234375,1,0.84,5
2019-10-21 19:10:16.964 -0400,289,1571699416.003578,33.99005628830021,-81.02900702086293,58.14938,1.698365,29.68579431313171,2.439978333195762,5.497022354689793,-9999,415576.7204947917,0.871429443359375,0.22076416015625,-0.1059417724609375,1,0.84,5
2019-10-21 19:10:17.004 -0400,290,1571699416.003578,33.99005628830021,-81.02900702086293,58.14938,1.698365,29.68579431313171,2.439978333195762,5.497022354689793,-9999,415576.7604787917,0.738922119140625,0.2652740478515625,-0.083343505859375,1,0.84,5
2019-10-21 19:10:17.044 -0400,291,1571699416.003578,33.99005628830021,-81.02900702086293,58.14938,1.698365,29.68579431313171,2.439978333195762,5.497022354689793,-9999,415576.8004627917,0.7070465087890625,0.30120849609375,-0.0571746826171875,1,0.84,5
2019-10-21 19:10:17.084 -0400,292,1571699416.003578,33.99005628830021,-81.02900702086293,58.14938,1.698365,29.68579431313171,2.439978333195762,5.497022354689793,-9999,415576.8404467917,0.8038787841796875,0.306884765625,-0.0448760986328125,1,0.84,5
2019-10-21 19:10:17.124 -0400,293,1571699416.003578,33.99005628830021,-81.02900702086293,58.14938,1.698365,29.68579431313171,2.439978333195762,5.497022354689793,-9999,415576.8804307917,1.004989624023438,0.2880859375,-0.0497589111328125,1,0.84,5
2019-10-21 19:10:17.167 -0400,294,1571699416.003578,33.99005628830021,-81.02900702086293,58.14938,1.698365,29.68579431313171,2.439978333195762,5.497022354689793,-9999,415576.9204147917,1.204864501953125,0.2359771728515625,0.0070648193359375,1,0.84,5
2019-10-21 19:10:17.205 -0400,295,1571699416.003578,33.99005628830021,-81.02900702086293,58.14938,1.698365,29.68579431313171,2.439978333195762,5.497022354689793,-9999,415576.96039875,1.216796875,0.27081298828125,0.0697021484375,1,0.84,5
2019-10-21 19:10:17.244 -0400,296,1571699416.003578,33.99005628830021,-81.02900702086293,58.14938,1.698365,29.68579431313171,2.439978333195762,5.497022354689793,-9999,415577.00038275,1.087478637695312,0.3934478759765625,-0.0370025634765625,1,0.84,5
2019-10-21 19:10:17.284 -0400,297,1571699416.003578,33.99005628830021,-81.02900702086293,58.14938,1.698365,29.68579431313171,2.439978333195762,5.497022354689793,-9999,415577.04036775,0.995819091796875,0.5701904296875,-0.150299072265625,1,0.84,5
2019-10-21 19:10:17.325 -0400,298,1571699416.003578,33.99005628830021,-81.02900702086293,58.14938,1.698365,29.68579431313171,2.439978333195762,5.497022354689793,-9999,415577.08035175,1.167129516601562,0.6367645263671875,-0.25750732421875,1,0.84,5
2019-10-21 19:10:17.364 -0400,299,1571699417.003578,33.99007488207896,-81.02899449317424,58.80853,1.858456,31.15396139060396,2.441339809856269,5.505877461406391,-9999,415577.12033575,1.283935546875,0.6564788818359375,-0.218719482421875,1,0.84,5
2019-10-21 19:10:17.404 -0400,300,1571699417.003578,33.99007488207896,-81.02899449317424,58.80853,1.858456,31.15396139060396,2.441339809856269,5.505877461406391,-9999,415577.16031975,1.04595947265625,0.8841400146484375,-0.2115936279296875,1,0.84,5
2019-10-21 19:10:17.444 -0400,301,1571699417.003578,33.99007488207896,-81.02899449317424,58.80853,1.858456,31.15396139060396,2.441339809856269,5.505877461406391,-9999,415577.20030375,0.8827056884765625,0.3000030517578125,-0.2026214599609375,1,0.84,5
2019-10-21 19:10:17.484 -0400,302,1571699417.003578,33.99007488207896,-81.02899449317424,58.80853,1.858456,31.15396139060396,2.441339809856269,5.505877461406391,-9999,415577.24028775,0.6555328369140625,0.713714599609375,-0.7219696044921875,1,0.84,5
2019-10-21 19:10:17.524 -0400,303,1571699417.003578,33.99007488207896,-81.02899449317424,58.80853,1.858456,31.15396139060396,2.441339809856269,5.505877461406391,-9999,415577.28027175,0.492401123046875,0.341522216796875,-0.2039947509765625,1,0.84,5
2019-10-21 19:10:17.564 -0400,304,1571699417.003578,33.99007488207896,-81.02899449317424,58.80853,1.858456,31.15396139060396,2.441339809856269,5.505877461406391,-9999,415577.32025575,0.511383056640625,0.7360992431640625,-0.12530517578125,1,0.84,5
2019-10-21 19:10:17.604 -0400,305,1571699417.003578,33.99007488207896,-81.02899449317424,58.80853,1.858456,31.15396139060396,2.441339809856269,5.505877461406391,-9999,415577.36023975,0.5975341796875,0.695159912109375,0.0163726806640625,1,0.84,5
2019-10-21 19:10:17.644 -0400,306,1571699417.003578,33.99007488207896,-81.02899449317424,58.80853,1.858456,31.15396139060396,2.441339809856269,5.505877461406391,-9999,415577.40022375,0.387298583984375,0.871337890625,0.3284759521484375,1,0.84,5
2019-10-21 19:10:17.684 -0400,307,1571699417.003578,33.99007488207896,-81.02899449317424,58.80853,1.858456,31.15396139060396,2.441339809856269,5.505877461406391,-9999,415577.44020875,0.45477294921875,1.590087890625,0.21929931640625,1,0.84,5
2019-10-21 19:10:17.724 -0400,308,1571699417.003578,33.99007488207896,-81.02899449317424,58.80853,1.858456,31.15396139060396,2.441339809856269,5.505877461406391,-9999,415577.4801927501,0.8985137939453125,-0.1210784912109375,0.05963134765625,1,0.84,5
2019-10-21 19:10:17.764 -0400,309,1571699417.003578,33.99007488207896,-81.02899449317424,58.80853,1.858456,31.15396139060396,2.441339809856269,5.505877461406391,-9999,415577.52017675,0.876739501953125,1.092788696289062,-0.066558837890625,1,0.84,5
2019-10-21 19:10:17.804 -0400,310,1571699417.003578,33.99007488207896,-81.02899449317424,58.80853,1.858456,31.15396139060396,2.441339809856269,5.505877461406391,-9999,415577.56016075,1.23712158203125,0.8674774169921875,0.193695068359375,1,0.84,5
2019-10-21 19:10:17.844 -0400,311,1571699417.003578,33.99007488207896,-81.02899449317424,58.80853,1.858456,31.15396139060396,2.441339809856269,5.505877461406391,-9999,415577.60014475,1.43212890625,-0.2792205810546875,0.073577880859375,1,0.84,5
2019-10-21 19:10:17.884 -0400,312,1571699417.003578,33.99007488207896,-81.02899449317424,58.80853,1.858456,31.15396139060396,2.441339809856269,5.505877461406391,-9999,415577.64012875,0.9881744384765625,0.4855194091796875,0.11474609375,1,0.84,5
2019-10-21 19:10:17.924 -0400,313,1571699417.003578,33.99007488207896,-81.02899449317424,58.80853,1.858456,31.15396139060396,2.441339809856269,5.505877461406391,-9999,415577.68011275,0.2805938720703125,0.90777587890625,0.1915740966796875,1,0.84,5
2019-10-21 19:10:17.964 -0400,314,1571699417.003578,33.99007488207896,-81.02899449317424,58.80853,1.858456,31.15396139060396,2.441339809856269,5.505877461406391,-9999,415577.72009675,-0.29803466796875,0.52825927734375,0.03472900390625,1,0.84,5
2019-10-21 19:10:18.004 -0400,315,1571699417.003578,33.99007488207896,-81.02899449317424,58.80853,1.858456,31.15396139060396,2.441339809856269,5.505877461406391,-9999,415577.76008075,-0.0698089599609375,0.21392822265625,-0.13604736328125,1,0.84,5
2019-10-21 19:10:18.044 -0400,316,1571699417.003578,33.99007488207896,-81.02899449317424,58.80853,1.858456,31.15396139060396,2.441339809856269,5.505877461406391,-9999,415577.80006475,0.3480072021484375,0.2162628173828125,0.0946807861328125,1,0.84,5
2019-10-21 19:10:18.084 -0400,317,1571699417.003578,33.99007488207896,-81.02899449317424,58.80853,1.858456,31.15396139060396,2.441339809856269,5.505877461406391,-9999,415577.84004875,0.828033447265625,0.66424560546875,0.045257568359375,1,0.84,5
2019-10-21 19:10:18.124 -0400,318,1571699417.003578,33.99007488207896,-81.02899449317424,58.80853,1.858456,31.15396139060396,2.441339809856269,5.505877461406391,-9999,415577.88003375,1.238143920898438,0.8748779296875,0.3698577880859375,1,0.84,5
2019-10-21 19:10:18.164 -0400,319,1571699417.003578,33.99007488207896,-81.02899449317424,58.80853,1.858456,31.15396139060396,2.441339809856269,5.505877461406391,-9999,415577.92001775,1.545272827148438,0.710845947265625,0.2833709716796875,1,0.84,5
2019-10-21 19:10:18.204 -0400,320,1571699417.003578,33.99007488207896,-81.02899449317424,58.80853,1.858456,31.15396139060396,2.441339809856269,5.505877461406391,-9999,415577.96000175,1.5814208984375,0.939300537109375,0.095672607421875,1,0.84,5
2019-10-21 19:10:18.244 -0400,321,1571699417.003578,33.99007488207896,-81.02899449317424,58.80853,1.858456,31.15396139060396,2.441339809856269,5.505877461406391,-9999,415577.99998575,1.496475219726562,0.8662567138671875,-0.17535400390625,1,0.84,5
2019-10-21 19:10:18.284 -0400,322,1571699418.003578,33.99009416906063,-81.02898055733229,61.74463,1.938812,33.18893373323177,2.410400060611717,5.543850519638144,-9999,415578.03996975,1.321914672851562,0.3315582275390625,0.1203460693359375,1,0.84,5
2019-10-21 19:10:18.324 -0400,323,1571699418.003578,33.99009416906063,-81.02898055733229,61.74463,1.938812,33.18893373323177,2.410400060611717,5.543850519638144,-9999,415578.07995375,1.597381591796875,0.2050933837890625,0.2979736328125,1,0.84,5
2019-10-21 19:10:18.364 -0400,324,1571699418.003578,33.99009416906063,-81.02898055733229,61.74463,1.938812,33.18893373323177,2.410400060611717,5.543850519638144,-9999,415578.11993775,0.9769744873046875,0.556182861328125,0.089996337890625,1,0.84,5
2019-10-21 19:10:18.403 -0400,325,1571699418.003578,33.99009416906063,-81.02898055733229,61.74463,1.938812,33.18893373323177,2.410400060611717,5.543850519638144,-9999,415578.15992175,0.5370635986328125,0.4023590087890625,-0.075927734375,1,0.84,5
2019-10-21 19:10:18.443 -0400,326,1571699418.003578,33.99009416906063,-81.02898055733229,61.74463,1.938812,33.18893373323177,2.410400060611717,5.543850519638144,-9999,415578.1999057501,0.1511688232421875,0.2299652099609375,0.0634307861328125,1,0.84,5
2019-10-21 19:10:18.483 -0400,327,1571699418.003578,33.99009416906063,-81.02898055733229,61.74463,1.938812,33.18893373323177,2.410400060611717,5.543850519638144,-9999,415578.23988975,0.2278900146484375,0.1479949951171875,-0.1117401123046875,1,0.84,5
2019-10-21 19:10:18.523 -0400,328,1571699418.003578,33.99009416906063,-81.02898055733229,61.74463,1.938812,33.18893373323177,2.410400060611717,5.543850519638144,-9999,415578.27987475,0.382171630859375,0.0840606689453125,-0.2085418701171875,1,0.84,5
2019-10-21 19:10:18.563 -0400,329,1571699418.003578,33.99009416906063,-81.02898055733229,61.74463,1.938812,33.18893373323177,2.410400060611717,5.543850519638144,-9999,415578.31985875,0.645599365234375,0.1985015869140625,-0.42919921875,1,0.84,5
2019-10-21 19:10:18.603 -0400,330,1571699418.003578,33.99009416906063,-81.02898055733229,61.74463,1.938812,33.18893373323177,2.410400060611717,5.543850519638144,-9999,415578.35984275,1.094818115234375,1.070053100585938,-0.7932281494140625,1,0.84,5
2019-10-21 19:10:18.644 -0400,331,1571699418.003578,33.99009416906063,-81.02898055733229,61.74463,1.938812,33.18893373323177,2.410400060611717,5.543850519638144,-9999,415578.39982675,0.9654083251953125,0.9798126220703125,-0.8290557861328125,1,0.84,5
2019-10-21 19:10:18.683 -0400,332,1571699418.003578,33.99009416906063,-81.02898055733229,61.74463,1.938812,33.18893373323177,2.410400060611717,5.543850519638144,-9999,415578.43981075,1.432266235351562,1.032119750976562,-0.14837646484375,1,0.84,5
2019-10-21 19:10:18.723 -0400,333,1571699418.003578,33.99009416906063,-81.02898055733229,61.74463,1.938812,33.18893373323177,2.410400060611717,5.543850519638144,-9999,415578.47979475,1.16796875,0.7616424560546875,-0.2472076416015625,1,0.84,5
2019-10-21 19:10:18.764 -0400,334,1571699418.003578,33.99009416906063,-81.02898055733229,61.74463,1.938812,33.18893373323177,2.410400060611717,5.543850519638144,-9999,415578.51977875,0.88958740234375,-0.0321044921875,-0.024444580078125,1,0.84,5
2019-10-21 19:10:18.803 -0400,335,1571699418.003578,33.99009416906063,-81.02898055733229,61.74463,1.938812,33.18893373323177,2.410400060611717,5.543850519638144,-9999,415578.5597627501,0.7757720947265625,0.766815185546875,0.378021240234375,1,0.84,5
2019-10-21 19:10:18.844 -0400,336,1571699418.003578,33.99009416906063,-81.02898055733229,61.74463,1.938812,33.18893373323177,2.410400060611717,5.543850519638144,-9999,415578.59974675,0.7790374755859375,0.8809356689453125,-0.0304718017578125,1,0.84,5
2019-10-21 19:10:18.883 -0400,337,1571699418.003578,33.99009416906063,-81.02898055733229,61.74463,1.938812,33.18893373323177,2.410400060611717,5.543850519638144,-9999,415578.63973075,0.66552734375,0.4257965087890625,-0.1118927001953125,1,0.84,5
2019-10-21 19:10:18.923 -0400,338,1571699418.003578,33.99009416906063,-81.02898055733229,61.74463,1.938812,33.18893373323177,2.410400060611717,5.543850519638144,-9999,415578.67971475,0.3793792724609375,0.3022308349609375,0.16796875,1,0.84,5
2019-10-21 19:10:18.963 -0400,339,1571699418.003578,33.99009416906063,-81.02898055733229,61.74463,1.938812,33.18893373323177,2.410400060611717,5.543850519638144,-9999,415578.71969875,0.619781494140625,0.3448028564453125,0.108062744140625,1,0.84,5
2019-10-21 19:10:19.003 -0400,340,1571699418.003578,33.99009416906063,-81.02898055733229,61.74463,1.938812,33.18893373323177,2.410400060611717,5.543850519638144,-9999,415578.75968375,0.84747314453125,0.43292236328125,0.1879425048828125,1,0.84,5
2019-10-21 19:10:19.043 -0400,341,1571699418.003578,33.99009416906063,-81.02898055733229,61.74463,1.938812,33.18893373323177,2.410400060611717,5.543850519638144,-9999,415578.79966775,0.8946685791015625,0.9107208251953125,0.13433837890625,1,0.84,5
2019-10-21 19:10:19.083 -0400,342,1571699418.003578,33.99009416906063,-81.02898055733229,61.74463,1.938812,33.18893373323177,2.410400060611717,5.543850519638144,-9999,415578.8396517501,1.12835693359375,0.913818359375,0.19427490234375,1,0.84,5
2019-10-21 19:10:19.123 -0400,343,1571699418.003578,33.99009416906063,-81.02898055733229,61.74463,1.938812,33.18893373323177,2.410400060611717,5.543850519638144,-9999,415578.87963575,1.219497680664062,0.993927001953125,0.37725830078125,1,0.84,5
2019-10-21 19:10:19.163 -0400,344,1571699418.003578,33.99009416906063,-81.02898055733229,61.74463,1.938812,33.18893373323177,2.410400060611717,5.543850519638144,-9999,415578.91961975,1.133697509765625,0.7530059814453125,0.3714141845703125,1,0.84,5
2019-10-21 19:10:19.203 -0400,345,1571699418.003578,33.99009416906063,-81.02898055733229,61.74463,1.938812,33.18893373323177,2.410400060611717,5.543850519638144,-9999,415578.9596042917,1.149398803710938,0.2727203369140625,0.1898345947265625,1,0.84,5
2019-10-21 19:10:19.243 -0400,346,1571699418.003578,33.99009416906063,-81.02898055733229,61.74463,1.938812,33.18893373323177,2.410400060611717,5.543850519638144,-9999,415578.9995882917,1.300796508789062,0.139190673828125,0.082366943359375,1,0.84,5
2019-10-21 19:10:19.294 -0400,347,1571699418.003578,33.99009416906063,-81.02898055733229,61.74463,1.938812,33.18893373323177,2.410400060611717,5.543850519638144,-9999,415579.0395722917,1.243148803710938,0.321563720703125,0.1059722900390625,1,0.84,5
2019-10-21 19:10:19.323 -0400,348,1571699419.003578,33.99011398119474,-81.02897119882002,60.4397,2.087512,31.156021423997,2.396499978712623,5.438427320129131,-9999,415579.0795562917,0.684967041015625,0.3502960205078125,0.1998138427734375,1,0.84,5
2019-10-21 19:10:19.363 -0400,349,1571699419.003578,33.99011398119474,-81.02897119882002,60.4397,2.087512,31.156021423997,2.396499978712623,5.438427320129131,-9999,415579.1195402917,0.3373565673828125,0.1551513671875,-0.26202392578125,1,0.84,5
2019-10-21 19:10:19.403 -0400,350,1571699419.003578,33.99011398119474,-81.02897119882002,60.4397,2.087512,31.156021423997,2.396499978712623,5.438427320129131,-9999,415579.1595242917,0.2122650146484375,0.082061767578125,-0.283843994140625,1,0.84,5
2019-10-21 19:10:19.443 -0400,351,1571699419.003578,33.99011398119474,-81.02897119882002,60.4397,2.087512,31.156021423997,2.396499978712623,5.438427320129131,-9999,415579.1995082917,0.111968994140625,0.313690185546875,-0.287567138671875,1,0.84,5
2019-10-21 19:10:19.483 -0400,352,1571699419.003578,33.99011398119474,-81.02897119882002,60.4397,2.087512,31.156021423997,2.396499978712623,5.438427320129131,-9999,415579.2394932917,0.271087646484375,0.3974151611328125,-0.3043975830078125,1,0.84,5
2019-10-21 19:10:19.523 -0400,353,1571699419.003578,33.99011398119474,-81.02897119882002,60.4397,2.087512,31.156021423997,2.396499978712623,5.438427320129131,-9999,415579.2794772917,0.5665435791015625,0.5986785888671875,-0.2789154052734375,1,0.84,5
2019-10-21 19:10:19.563 -0400,354,1571699419.003578,33.99011398119474,-81.02897119882002,60.4397,2.087512,31.156021423997,2.396499978712623,5.438427320129131,-9999,415579.3194612917,0.7244415283203125,0.8154144287109375,-0.136871337890625,1,0.84,5
2019-10-21 19:10:19.603 -0400,355,1571699419.003578,33.99011398119474,-81.02897119882002,60.4397,2.087512,31.156021423997,2.396499978712623,5.438427320129131,-9999,415579.3594452917,0.9728546142578125,0.913604736328125,-0.20703125,1,0.84,5
2019-10-21 19:10:19.643 -0400,356,1571699419.003578,33.99011398119474,-81.02897119882002,60.4397,2.087512,31.156021423997,2.396499978712623,5.438427320129131,-9999,415579.3994292917,1.082855224609375,0.9021453857421875,-0.20147705078125,1,0.84,5
2019-10-21 19:10:19.683 -0400,357,1571699419.003578,33.99011398119474,-81.02897119882002,60.4397,2.087512,31.156021423997,2.396499978712623,5.438427320129131,-9999,415579.4394132917,1.027130126953125,0.896087646484375,-0.1038055419921875,1,0.84,5
2019-10-21 19:10:19.723 -0400,358,1571699419.003578,33.99011398119474,-81.02897119882002,60.4397,2.087512,31.156021423997,2.396499978712623,5.438427320129131,-9999,415579.4793972917,1.085617065429688,0.792510986328125,-0.19097900390625,1,0.84,5
2019-10-21 19:10:19.763 -0400,359,1571699419.003578,33.99011398119474,-81.02897119882002,60.4397,2.087512,31.156021423997,2.396499978712623,5.438427320129131,-9999,415579.5193812917,0.798583984375,0.8603057861328125,-0.1172943115234375,1,0.84,5
2019-10-21 19:10:19.803 -0400,360,1571699419.003578,33.99011398119474,-81.02897119882002,60.4397,2.087512,31.156021423997,2.396499978712623,5.438427320129131,-9999,415579.5593652917,0.672119140625,0.7782440185546875,-0.2168731689453125,1,0.84,5
2019-10-21 19:10:19.843 -0400,361,1571699419.003578,33.99011398119474,-81.02897119882002,60.4397,2.087512,31.156021423997,2.396499978712623,5.438427320129131,-9999,415579.5993492917,0.600311279296875,0.6533966064453125,-0.2890167236328125,1,0.84,5
2019-10-21 19:10:19.883 -0400,362,1571699419.003578,33.99011398119474,-81.02897119882002,60.4397,2.087512,31.156021423997,2.396499978712623,5.438427320129131,-9999,415579.6393332917,0.604827880859375,0.517333984375,-0.2919921875,1,0.84,5
2019-10-21 19:10:19.923 -0400,363,1571699419.003578,33.99011398119474,-81.02897119882002,60.4397,2.087512,31.156021423997,2.396499978712623,5.438427320129131,-9999,415579.6793172917,0.5468902587890625,0.3886566162109375,-0.17950439453125,1,0.84,5
2019-10-21 19:10:19.965 -0400,364,1571699419.003578,33.99011398119474,-81.02897119882002,60.4397,2.087512,31.156021423997,2.396499978712623,5.438427320129131,-9999,415579.7193022917,0.5752410888671875,0.5550079345703125,-0.0480804443359375,1,0.84,5
2019-10-21 19:10:20.003 -0400,365,1571699419.003578,33.99011398119474,-81.02897119882002,60.4397,2.087512,31.156021423997,2.396499978712623,5.438427320129131,-9999,415579.7592862917,0.7766876220703125,0.846893310546875,-0.1111602783203125,1,0.84,5
2019-10-21 19:10:20.043 -0400,366,1571699419.003578,33.99011398119474,-81.02897119882002,60.4397,2.087512,31.156021423997,2.396499978712623,5.438427320129131,-9999,415579.7992702917,0.9294891357421875,1.110977172851562,-0.2729034423828125,1,0.84,5
2019-10-21 19:10:20.083 -0400,367,1571699419.003578,33.99011398119474,-81.02897119882002,60.4397,2.087512,31.156021423997,2.396499978712623,5.438427320129131,-9999,415579.8392542917,0.773651123046875,1.133026123046875,-0.2815093994140625,1,0.84,5
2019-10-21 19:10:20.123 -0400,368,1571699419.003578,33.99011398119474,-81.02897119882002,60.4397,2.087512,31.156021423997,2.396499978712623,5.438427320129131,-9999,415579.8792382917,0.7452545166015625,1.267318725585938,-0.3787689208984375,1,0.84,5
2019-10-21 19:10:20.163 -0400,369,1571699419.003578,33.99011398119474,-81.02897119882002,60.4397,2.087512,31.156021423997,2.396499978712623,5.438427320129131,-9999,415579.9192222917,0.6296234130859375,0.94427490234375,-0.38824462890625,1,0.84,5
2019-10-21 19:10:20.203 -0400,370,1571699419.003578,33.99011398119474,-81.02897119882002,60.4397,2.087512,31.156021423997,2.396499978712623,5.438427320129131,-9999,415579.9592065,0.537750244140625,1.077392578125,-0.469024658203125,1,0.84,5
2019-10-21 19:10:20.243 -0400,371,1571699419.003578,33.99011398119474,-81.02897119882002,60.4397,2.087512,31.156021423997,2.396499978712623,5.438427320129131,-9999,415579.9991905,0.4476470947265625,0.94671630859375,-0.419219970703125,1,0.84,5
2019-10-21 19:10:20.284 -0400,372,1571699419.003578,33.99011398119474,-81.02897119882002,60.4397,2.087512,31.156021423997,2.396499978712623,5.438427320129131,-9999,415580.0391745,0.3235931396484375,0.5923309326171875,-0.4233551025390625,1,0.84,5
2019-10-21 19:10:20.323 -0400,373,1571699420.003577,33.9901342275641,-81.02895806207917,59.7769,2.121274,29.85001456405172,2.447857960446602,5.365210948800258,-9999,415580.0791585,0.1306610107421875,0.331756591796875,-0.34478759765625,1,0.84,5
2019-10-21 19:10:20.363 -0400,374,1571699420.003577,33.9901342275641,-81.02895806207917,59.7769,2.121274,29.85001456405172,2.447857960446602,5.365210948800258,-9999,415580.1191425,0.0685577392578125,0.2877197265625,-0.5006561279296875,1,0.84,5
2019-10-21 19:10:20.403 -0400,375,1571699420.003577,33.9901342275641,-81.02895806207917,59.7769,2.121274,29.85001456405172,2.447857960446602,5.365210948800258,-9999,415580.1591275,0.099822998046875,0.4117889404296875,-0.3931732177734375,1,0.84,5
2019-10-21 19:10:20.443 -0400,376,1571699420.003577,33.9901342275641,-81.02895806207917,59.7769,2.121274,29.85001456405172,2.447857960446602,5.365210948800258,-9999,415580.1991115,0.0533905029296875,0.92022705078125,-0.6301422119140625,1,0.84,5
2019-10-21 19:10:20.483 -0400,377,1571699420.003577,33.9901342275641,-81.02895806207917,59.7769,2.121274,29.85001456405172,2.447857960446602,5.365210948800258,-9999,415580.2390955,-0.0247802734375,1.28564453125,-0.6935577392578125,1,0.84,5
2019-10-21 19:10:20.523 -0400,378,1571699420.003577,33.9901342275641,-81.02895806207917,59.7769,2.121274,29.85001456405172,2.447857960446602,5.365210948800258,-9999,415580.2790795,-0.451995849609375,1.303329467773438,-0.3227691650390625,1,0.84,5
2019-10-21 19:10:20.563 -0400,379,1571699420.003577,33.9901342275641,-81.02895806207917,59.7769,2.121274,29.85001456405172,2.447857960446602,5.365210948800258,-9999,415580.3190635,-0.761962890625,1.470703125,-0.10992431640625,1,0.84,5
2019-10-21 19:10:20.603 -0400,380,1571699420.003577,33.9901342275641,-81.02895806207917,59.7769,2.121274,29.85001456405172,2.447857960446602,5.365210948800258,-9999,415580.3590475,-0.73468017578125,1.44866943359375,-0.0576934814453125,1,0.84,5
2019-10-21 19:10:20.643 -0400,381,1571699420.003577,33.9901342275641,-81.02895806207917,59.7769,2.121274,29.85001456405172,2.447857960446602,5.365210948800258,-9999,415580.3990315,-0.506072998046875,1.251678466796875,0.1252288818359375,1,0.84,5
2019-10-21 19:10:20.683 -0400,382,1571699420.003577,33.9901342275641,-81.02895806207917,59.7769,2.121274,29.85001456405172,2.447857960446602,5.365210948800258,-9999,415580.4390155,-0.276519775390625,1.079681396484375,0.0040740966796875,1,0.84,5
2019-10-21 19:10:20.723 -0400,383,1571699420.003577,33.9901342275641,-81.02895806207917,59.7769,2.121274,29.85001456405172,2.447857960446602,5.365210948800258,-9999,415580.4789995,-0.13153076171875,0.8013916015625,-0.040618896484375,1,0.84,5
2019-10-21 19:10:20.763 -0400,384,1571699420.003577,33.9901342275641,-81.02895806207917,59.7769,2.121274,29.85001456405172,2.447857960446602,5.365210948800258,-9999,415580.5189835,0.1010589599609375,0.1820068359375,-0.22698974609375,1,0.84,5
2019-10-21 19:10:20.803 -0400,385,1571699420.003577,33.9901342275641,-81.02895806207917,59.7769,2.121274,29.85001456405172,2.447857960446602,5.365210948800258,-9999,415580.5589675001,0.1198577880859375,0.026275634765625,-0.2933349609375,1,0.84,5
2019-10-21 19:10:20.843 -0400,386,1571699420.003577,33.9901342275641,-81.02895806207917,59.7769,2.121274,29.85001456405172,2.447857960446602,5.365210948800258,-9999,415580.5989525,-0.046966552734375,0.2625274658203125,-0.2965087890625,1,0.84,5
2019-10-21 19:10:20.883 -0400,387,1571699420.003577,33.9901342275641,-81.02895806207917,59.7769,2.121274,29.85001456405172,2.447857960446602,5.365210948800258,-9999,415580.6389365,-0.374298095703125,0.2950286865234375,-0.24468994140625,1,0.84,5
2019-10-21 19:10:20.923 -0400,388,1571699420.003577,33.9901342275641,-81.02895806207917,59.7769,2.121274,29.85001456405172,2.447857960446602,5.365210948800258,-9999,415580.6789205,-0.437286376953125,0.926025390625,-0.653167724609375,1,0.84,5
2019-10-21 19:10:20.963 -0400,389,1571699420.003577,33.9901342275641,-81.02895806207917,59.7769,2.121274,29.85001456405172,2.447857960446602,5.365210948800258,-9999,415580.7189045,-0.6059722900390625,1.020782470703125,-0.55548095703125,1,0.84,5
2019-10-21 19:10:21.003 -0400,390,1571699420.003577,33.9901342275641,-81.02895806207917,59.7769,2.121274,29.85001456405172,2.447857960446602,5.365210948800258,-9999,415580.7588885,-0.4918060302734375,0.7691497802734375,-0.48016357421875,1,0.84,5
2019-10-21 19:10:21.043 -0400,391,1571699420.003577,33.9901342275641,-81.02895806207917,59.7769,2.121274,29.85001456405172,2.447857960446602,5.365210948800258,-9999,415580.7988725,-0.5386199951171875,1.145034790039062,-0.81402587890625,1,0.84,5
2019-10-21 19:10:21.083 -0400,392,1571699420.003577,33.9901342275641,-81.02895806207917,59.7769,2.121274,29.85001456405172,2.447857960446602,5.365210948800258,-9999,415580.8388565,-0.2898712158203125,1.216384887695312,-0.7402191162109375,1,0.84,5
2019-10-21 19:10:21.127 -0400,393,1571699420.003577,33.9901342275641,-81.02895806207917,59.7769,2.121274,29.85001456405172,2.447857960446602,5.365210948800258,-9999,415580.8788405,-0.251251220703125,1.342559814453125,-0.6507568359375,1,0.84,5
2019-10-21 19:10:21.163 -0400,394,1571699420.003577,33.9901342275641,-81.02895806207917,59.7769,2.121274,29.85001456405172,2.447857960446602,5.365210948800258,-9999,415580.9188245,-0.22625732421875,0.8408660888671875,-0.3745269775390625,1,0.84,5
2019-10-21 19:10:21.203 -0400,395,1571699420.003577,33.9901342275641,-81.02895806207917,59.7769,2.121274,29.85001456405172,2.447857960446602,5.365210948800258,-9999,415580.958808,-0.1603546142578125,0.544342041015625,-0.55548095703125,1,0.84,5
2019-10-21 19:10:21.245 -0400,396,1571699420.003577,33.9901342275641,-81.02895806207917,59.7769,2.121274,29.85001456405172,2.447857960446602,5.365210948800258,-9999,415580.998792,-0.198333740234375,0.4289398193359375,-0.5167694091796875,1,0.84,5
2019-10-21 19:10:21.282 -0400,397,1571699421.003577,33.99016274575246,-81.02895719160109,60.30069,2.171838,19.29566223112638,2.503854051007679,5.303065177206824,-9999,415581.038776,-0.134857177734375,0.1921234130859375,-0.2693939208984375,1,0.84,5
2019-10-21 19:10:21.323 -0400,398,1571699421.003577,33.99016274575246,-81.02895719160109,60.30069,2.171838,19.29566223112638,2.503854051007679,5.303065177206824,-9999,415581.07876,-0.241363525390625,0.4239501953125,-0.3115692138671875,1,0.84,5
2019-10-21 19:10:21.363 -0400,399,1571699421.003577,33.99016274575246,-81.02895719160109,60.30069,2.171838,19.29566223112638,2.503854051007679,5.303065177206824,-9999,415581.118744,-0.3033905029296875,0.3987274169921875,-0.5328826904296875,1,0.84,5
2019-10-21 19:10:21.402 -0400,400,1571699421.003577,33.99016274575246,-81.02895719160109,60.30069,2.171838,19.29566223112638,2.503854051007679,5.303065177206824,-9999,415581.158728,-0.40472412109375,0.652130126953125,-0.7973785400390625,1,0.84,5
2019-10-21 19:10:21.442 -0400,401,1571699421.003577,33.99016274575246,-81.02895719160109,60.30069,2.171838,19.29566223112638,2.503854051007679,5.303065177206824,-9999,415581.198712,-0.727020263671875,0.963226318359375,-0.4759979248046875,1,0.84,5
2019-10-21 19:10:21.482 -0400,402,1571699421.003577,33.99016274575246,-81.02895719160109,60.30069,2.171838,19.29566223112638,2.503854051007679,5.303065177206824,-9999,415581.238696,-0.82659912109375,1.138885498046875,-0.5186920166015625,1,0.84,5
2019-10-21 19:10:21.522 -0400,403,1571699421.003577,33.99016274575246,-81.02895719160109,60.30069,2.171838,19.29566223112638,2.503854051007679,5.303065177206824,-9999,415581.27868,-0.80853271484375,1.18438720703125,-0.5962066650390625,1,0.84,5
2019-10-21 19:10:21.562 -0400,404,1571699421.003577,33.99016274575246,-81.02895719160109,60.30069,2.171838,19.29566223112638,2.503854051007679,5.303065177206824,-9999,415581.318664,-0.4867401123046875,1.093276977539062,-0.422637939453125,1,0.84,5
2019-10-21 19:10:21.602 -0400,405,1571699421.003577,33.99016274575246,-81.02895719160109,60.30069,2.171838,19.29566223112638,2.503854051007679,5.303065177206824,-9999,415581.3586480001,-0.6339111328125,1.279006958007812,-0.21484375,1,0.84,5
2019-10-21 19:10:21.642 -0400,406,1571699421.003577,33.99016274575246,-81.02895719160109,60.30069,2.171838,19.29566223112638,2.503854051007679,5.303065177206824,-9999,415581.398633,-0.4672393798828125,1.125137329101562,-0.171356201171875,1,0.84,5
2019-10-21 19:10:21.683 -0400,407,1571699421.003577,33.99016274575246,-81.02895719160109,60.30069,2.171838,19.29566223112638,2.503854051007679,5.303065177206824,-9999,415581.438617,-0.261199951171875,0.6434173583984375,-0.19110107421875,1,0.84,5
2019-10-21 19:10:21.722 -0400,408,1571699421.003577,33.99016274575246,-81.02895719160109,60.30069,2.171838,19.29566223112638,2.503854051007679,5.303065177206824,-9999,415581.478601,-0.181976318359375,0.4510955810546875,-0.1184844970703125,1,0.84,5
2019-10-21 19:10:21.762 -0400,409,1571699421.003577,33.99016274575246,-81.02895719160109,60.30069,2.171838,19.29566223112638,2.503854051007679,5.303065177206824,-9999,415581.518585,-0.188568115234375,0.20703125,-0.1112060546875,1,0.84,5
2019-10-21 19:10:21.802 -0400,410,1571699421.003577,33.99016274575246,-81.02895719160109,60.30069,2.171838,19.29566223112638,2.503854051007679,5.303065177206824,-9999,415581.558569,-0.2674560546875,0.3798065185546875,-0.2561187744140625,1,0.84,5
2019-10-21 19:10:21.842 -0400,411,1571699421.003577,33.99016274575246,-81.02895719160109,60.30069,2.171838,19.29566223112638,2.503854051007679,5.303065177206824,-9999,415581.598553,-0.3587799072265625,0.5252227783203125,-0.4515380859375,1,0.84,5
2019-10-21 19:10:21.882 -0400,412,1571699421.003577,33.99016274575246,-81.02895719160109,60.30069,2.171838,19.29566223112638,2.503854051007679,5.303065177206824,-9999,415581.638537,-0.3977203369140625,0.68505859375,-0.651611328125,1,0.84,5
2019-10-21 19:10:21.922 -0400,413,1571699421.003577,33.99016274575246,-81.02895719160109,60.30069,2.171838,19.29566223112638,2.503854051007679,5.303065177206824,-9999,415581.678521,-0.3117523193359375,1.194717407226562,-0.7489166259765625,1,0.84,5
2019-10-21 19:10:21.962 -0400,414,1571699421.003577,33.99016274575246,-81.02895719160109,60.30069,2.171838,19.29566223112638,2.503854051007679,5.303065177206824,-9999,415581.718505,-0.4780426025390625,1.1778564453125,-0.86602783203125,1,0.84,5
2019-10-21 19:10:22.002 -0400,415,1571699421.003577,33.99016274575246,-81.02895719160109,60.30069,2.171838,19.29566223112638,2.503854051007679,5.303065177206824,-9999,415581.758489,-0.3150634765625,1.260879516601562,-1.034942626953125,1,0.84,5
2019-10-21 19:10:22.042 -0400,416,1571699421.003577,33.99016274575246,-81.02895719160109,60.30069,2.171838,19.29566223112638,2.503854051007679,5.303065177206824,-9999,415581.798474,-0.1435394287109375,1.032760620117188,-0.8124542236328125,1,0.84,5
2019-10-21 19:10:22.082 -0400,417,1571699421.003577,33.99016274575246,-81.02895719160109,60.30069,2.171838,19.29566223112638,2.503854051007679,5.303065177206824,-9999,415581.838458,-0.286529541015625,0.85833740234375,-0.7642059326171875,1,0.84,5
2019-10-21 19:10:22.122 -0400,418,1571699421.003577,33.99016274575246,-81.02895719160109,60.30069,2.171838,19.29566223112638,2.503854051007679,5.303065177206824,-9999,415581.878442,-0.1971435546875,0.765106201171875,-0.7357177734375,1,0.84,5
2019-10-21 19:10:22.172 -0400,419,1571699421.003577,33.99016274575246,-81.02895719160109,60.30069,2.171838,19.29566223112638,2.503854051007679,5.303065177206824,-9999,415581.918426,-0.08245849609375,0.375701904296875,-0.46514892578125,1,0.84,5
2019-10-21 19:10:22.202 -0400,420,1571699422.003577,33.99018551854427,-81.02894914540276,60.81401,2.094754,18.34618170552113,2.624322919772624,5.190131621215875,-9999,415581.958409625,-0.223480224609375,0.210113525390625,-0.3959197998046875,1,0.84,5
2019-10-21 19:10:22.242 -0400,421,1571699422.003577,33.99018551854427,-81.02894914540276,60.81401,2.094754,18.34618170552113,2.624322919772624,5.190131621215875,-9999,415581.998393625,-0.2253265380859375,0.2103118896484375,-0.397247314453125,1,0.84,5
2019-10-21 19:10:22.282 -0400,422,1571699422.003577,33.99018551854427,-81.02894914540276,60.81401,2.094754,18.34618170552113,2.624322919772624,5.190131621215875,-9999,415582.0383776251,-0.237823486328125,0.158294677734375,-0.4824066162109375,1,0.84,5
2019-10-21 19:10:22.322 -0400,423,1571699422.003577,33.99018551854427,-81.02894914540276,60.81401,2.094754,18.34618170552113,2.624322919772624,5.190131621215875,-9999,415582.078361625,-0.3118133544921875,0.638885498046875,-0.6057281494140625,1,0.84,5
2019-10-21 19:10:22.362 -0400,424,1571699422.003577,33.99018551854427,-81.02894914540276,60.81401,2.094754,18.34618170552113,2.624322919772624,5.190131621215875,-9999,415582.118345625,-0.4114990234375,0.4615631103515625,-0.72674560546875,1,0.84,5
2019-10-21 19:10:22.402 -0400,425,1571699422.003577,33.99018551854427,-81.02894914540276,60.81401,2.094754,18.34618170552113,2.624322919772624,5.190131621215875,-9999,415582.158330625,-0.391571044921875,0.6396636962890625,-1.13214111328125,1,0.84,5
2019-10-21 19:10:22.442 -0400,426,1571699422.003577,33.99018551854427,-81.02894914540276,60.81401,2.094754,18.34618170552113,2.624322919772624,5.190131621215875,-9999,415582.198314625,-0.6071624755859375,1.005126953125,-0.968231201171875,1,0.84,5
2019-10-21 19:10:22.482 -0400,427,1571699422.003577,33.99018551854427,-81.02894914540276,60.81401,2.094754,18.34618170552113,2.624322919772624,5.190131621215875,-9999,415582.238298625,-0.479766845703125,1.081619262695312,-1.101776123046875,1,0.84,5
2019-10-21 19:10:22.522 -0400,428,1571699422.003577,33.99018551854427,-81.02894914540276,60.81401,2.094754,18.34618170552113,2.624322919772624,5.190131621215875,-9999,415582.278282625,-0.381683349609375,1.07501220703125,-0.7230987548828125,1,0.84,5
2019-10-21 19:10:22.562 -0400,429,1571699422.003577,33.99018551854427,-81.02894914540276,60.81401,2.094754,18.34618170552113,2.624322919772624,5.190131621215875,-9999,415582.3182666251,-0.480224609375,1.347457885742188,-0.3266143798828125,1,0.84,5
2019-10-21 19:10:22.602 -0400,430,1571699422.003577,33.99018551854427,-81.02894914540276,60.81401,2.094754,18.34618170552113,2.624322919772624,5.190131621215875,-9999,415582.358250625,-0.4104461669921875,0.8315277099609375,-0.3270111083984375,1,0.84,5
2019-10-21 19:10:22.642 -0400,431,1571699422.003577,33.99018551854427,-81.02894914540276,60.81401,2.094754,18.34618170552113,2.624322919772624,5.190131621215875,-9999,415582.398234625,-0.2264251708984375,0.4085845947265625,-0.3630218505859375,1,0.84,5
2019-10-21 19:10:22.682 -0400,432,1571699422.003577,33.99018551854427,-81.02894914540276,60.81401,2.094754,18.34618170552113,2.624322919772624,5.190131621215875,-9999,415582.438218625,-0.1999969482421875,0.2648773193359375,-0.267852783203125,1,0.84,5
2019-10-21 19:10:22.722 -0400,433,1571699422.003577,33.99018551854427,-81.02894914540276,60.81401,2.094754,18.34618170552113,2.624322919772624,5.190131621215875,-9999,415582.478202625,-0.205718994140625,0.3591461181640625,-0.2724761962890625,1,0.84,5
2019-10-21 19:10:22.762 -0400,434,1571699422.003577,33.99018551854427,-81.02894914540276,60.81401,2.094754,18.34618170552113,2.624322919772624,5.190131621215875,-9999,415582.518186625,-0.2416839599609375,0.177398681640625,-0.262969970703125,1,0.84,5
2019-10-21 19:10:22.802 -0400,435,1571699422.003577,33.99018551854427,-81.02894914540276,60.81401,2.094754,18.34618170552113,2.624322919772624,5.190131621215875,-9999,415582.558171625,-0.3319854736328125,0.516754150390625,-0.5079345703125,1,0.84,5
2019-10-21 19:10:22.842 -0400,436,1571699422.003577,33.99018551854427,-81.02894914540276,60.81401,2.094754,18.34618170552113,2.624322919772624,5.190131621215875,-9999,415582.598155625,-0.6220550537109375,1.173721313476562,-0.609588623046875,1,0.84,5
2019-10-21 19:10:22.882 -0400,437,1571699422.003577,33.99018551854427,-81.02894914540276,60.81401,2.094754,18.34618170552113,2.624322919772624,5.190131621215875,-9999,415582.638139625,-0.4656982421875,1.064834594726562,-0.7321624755859375,1,0.84,5
2019-10-21 19:10:22.922 -0400,438,1571699422.003577,33.99018551854427,-81.02894914540276,60.81401,2.094754,18.34618170552113,2.624322919772624,5.190131621215875,-9999,415582.6781236251,-0.4161834716796875,1.2186279296875,-0.6581878662109375,1,0.84,5
2019-10-21 19:10:22.962 -0400,439,1571699422.003577,33.99018551854427,-81.02894914540276,60.81401,2.094754,18.34618170552113,2.624322919772624,5.190131621215875,-9999,415582.718107625,-0.4397735595703125,1.416030883789062,-0.619537353515625,1,0.84,5
2019-10-21 19:10:23.002 -0400,440,1571699422.003577,33.99018551854427,-81.02894914540276,60.81401,2.094754,18.34618170552113,2.624322919772624,5.190131621215875,-9999,415582.758091625,-0.07879638671875,1.110687255859375,-0.4844207763671875,1,0.84,5
2019-10-21 19:10:23.042 -0400,441,1571699422.003577,33.99018551854427,-81.02894914540276,60.81401,2.094754,18.34618170552113,2.624322919772624,5.190131621215875,-9999,415582.798075625,-0.2387847900390625,1.118896484375,-0.4007720947265625,1,0.84,5
2019-10-21 19:10:23.082 -0400,442,1571699422.003577,33.99018551854427,-81.02894914540276,60.81401,2.094754,18.34618170552113,2.624322919772624,5.190131621215875,-9999,415582.838059625,-0.252166748046875,0.762725830078125,-0.3533782958984375,1,0.84,5
2019-10-21 19:10:23.156 -0400,443,1571699422.003577,33.99018551854427,-81.02894914540276,60.81401,2.094754,18.34618170552113,2.624322919772624,5.190131621215875,-9999,415582.878043625,-0.226043701171875,0.5478057861328125,-0.35968017578125,1,0.84,5
2019-10-21 19:10:23.162 -0400,444,1571699422.003577,33.99018551854427,-81.02894914540276,60.81401,2.094754,18.34618170552113,2.624322919772624,5.190131621215875,-9999,415582.918027625,-0.20556640625,0.4516754150390625,-0.3303375244140625,1,0.84,5
2019-10-21 19:10:23.202 -0400,445,1571699422.003577,33.99018551854427,-81.02894914540276,60.81401,2.094754,18.34618170552113,2.624322919772624,5.190131621215875,-9999,415582.958013,-0.11517333984375,0.3870086669921875,-0.2364501953125,1,0.84,5
2019-10-21 19:10:23.246 -0400,446,1571699422.003577,33.99018551854427,-81.02894914540276,60.81401,2.094754,18.34618170552113,2.624322919772624,5.190131621215875,-9999,415582.997998,-0.234222412109375,0.4663543701171875,-0.3972625732421875,1,0.84,5
2019-10-21 19:10:23.282 -0400,447,1571699423.003575,33.99020164755211,-81.02894325323945,61.44138,2.00683,18.67370609001301,2.703339230862985,5.149416863652229,-9999,415583.037982,-0.335968017578125,0.505401611328125,-0.411773681640625,1,0.84,5
2019-10-21 19:10:23.322 -0400,448,1571699423.003575,33.99020164755211,-81.02894325323945,61.44138,2.00683,18.67370609001301,2.703339230862985,5.149416863652229,-9999,415583.077966,-0.4253997802734375,0.8952178955078125,-0.5402679443359375,1,0.84,5
2019-10-21 19:10:23.362 -0400,449,1571699423.003575,33.99020164755211,-81.02894325323945,61.44138,2.00683,18.67370609001301,2.703339230862985,5.149416863652229,-9999,415583.11795,-0.6602783203125,0.9688568115234375,-0.532379150390625,1,0.84,5
2019-10-21 19:10:23.402 -0400,450,1571699423.003575,33.99020164755211,-81.02894325323945,61.44138,2.00683,18.67370609001301,2.703339230862985,5.149416863652229,-9999,415583.157934,-0.762908935546875,1.114715576171875,-0.4268798828125,1,0.84,5
2019-10-21 19:10:23.442 -0400,451,1571699423.003575,33.99020164755211,-81.02894325323945,61.44138,2.00683,18.67370609001301,2.703339230862985,5.149416863652229,-9999,415583.197918,-0.73175048828125,1.282974243164062,-0.37957763671875,1,0.84,5
2019-10-21 19:10:23.482 -0400,452,1571699423.003575,33.99020164755211,-81.02894325323945,61.44138,2.00683,18.67370609001301,2.703339230862985,5.149416863652229,-9999,415583.237902,-0.4477691650390625,1.161514282226562,-0.1173858642578125,1,0.84,5
2019-10-21 19:10:23.522 -0400,453,1571699423.003575,33.99020164755211,-81.02894325323945,61.44138,2.00683,18.67370609001301,2.703339230862985,5.149416863652229,-9999,415583.277886,-0.479949951171875,1.263992309570312,0.070404052734375,1,0.84,5
2019-10-21 19:10:23.562 -0400,454,1571699423.003575,33.99020164755211,-81.02894325323945,61.44138,2.00683,18.67370609001301,2.703339230862985,5.149416863652229,-9999,415583.31787,-0.3762969970703125,1.0478515625,0.2376556396484375,1,0.84,5
2019-10-21 19:10:23.602 -0400,455,1571699423.003575,33.99020164755211,-81.02894325323945,61.44138,2.00683,18.67370609001301,2.703339230862985,5.149416863652229,-9999,415583.357854,-0.2771148681640625,0.8564605712890625,0.0720672607421875,1,0.84,5
2019-10-21 19:10:23.642 -0400,456,1571699423.003575,33.99020164755211,-81.02894325323945,61.44138,2.00683,18.67370609001301,2.703339230862985,5.149416863652229,-9999,415583.397838,-0.32275390625,0.61480712890625,0.0136566162109375,1,0.84,5
2019-10-21 19:10:23.700 -0400,457,1571699423.003575,33.99020164755211,-81.02894325323945,61.44138,2.00683,18.67370609001301,2.703339230862985,5.149416863652229,-9999,415583.437823,-0.3270263671875,0.3337860107421875,-0.016357421875,1,0.84,5
2019-10-21 19:10:23.722 -0400,458,1571699423.003575,33.99020164755211,-81.02894325323945,61.44138,2.00683,18.67370609001301,2.703339230862985,5.149416863652229,-9999,415583.477807,-0.36962890625,0.4219207763671875,0.04815673828125,1,0.84,5
2019-10-21 19:10:23.765 -0400,459,1571699423.003575,33.99020164755211,-81.02894325323945,61.44138,2.00683,18.67370609001301,2.703339230862985,5.149416863652229,-9999,415583.517791,-0.408935546875,0.5404205322265625,0.030426025390625,1,0.84,5
2019-10-21 19:10:23.801 -0400,460,1571699423.003575,33.99020164755211,-81.02894325323945,61.44138,2.00683,18.67370609001301,2.703339230862985,5.149416863652229,-9999,415583.5577750001,-0.501800537109375,0.6871185302734375,0.1690826416015625,1,0.84,5
2019-10-21 19:10:23.841 -0400,461,1571699423.003575,33.99020164755211,-81.02894325323945,61.44138,2.00683,18.67370609001301,2.703339230862985,5.149416863652229,-9999,415583.597759,-0.634490966796875,1.193161010742188,0.0501251220703125,1,0.84,5
2019-10-21 19:10:23.881 -0400,462,1571699423.003575,33.99020164755211,-81.02894325323945,61.44138,2.00683,18.67370609001301,2.703339230862985,5.149416863652229,-9999,415583.637743,-0.510650634765625,1.284805297851562,-0.126190185546875,1,0.84,5
2019-10-21 19:10:23.921 -0400,463,1571699423.003575,33.99020164755211,-81.02894325323945,61.44138,2.00683,18.67370609001301,2.703339230862985,5.149416863652229,-9999,415583.677727,-0.5140228271484375,1.432662963867188,-0.194000244140625,1,0.84,5
2019-10-21 19:10:23.961 -0400,464,1571699423.003575,33.99020164755211,-81.02894325323945,61.44138,2.00683,18.67370609001301,2.703339230862985,5.149416863652229,-9999,415583.717711,-0.279083251953125,1.332351684570312,-0.176300048828125,1,0.84,5
2019-10-21 19:10:24.001 -0400,465,1571699423.003575,33.99020164755211,-81.02894325323945,61.44138,2.00683,18.67370609001301,2.703339230862985,5.149416863652229,-9999,415583.757695,-0.1657867431640625,1.192092895507812,-0.4180145263671875,1,0.84,5
2019-10-21 19:10:24.041 -0400,466,1571699423.003575,33.99020164755211,-81.02894325323945,61.44138,2.00683,18.67370609001301,2.703339230862985,5.149416863652229,-9999,415583.797679,-0.3760833740234375,0.8805694580078125,-0.133819580078125,1,0.84,5
2019-10-21 19:10:24.081 -0400,467,1571699423.003575,33.99020164755211,-81.02894325323945,61.44138,2.00683,18.67370609001301,2.703339230862985,5.149416863652229,-9999,415583.837663,-0.23992919921875,0.60443115234375,-0.1870574951171875,1,0.84,5
2019-10-21 19:10:24.121 -0400,468,1571699423.003575,33.99020164755211,-81.02894325323945,61.44138,2.00683,18.67370609001301,2.703339230862985,5.149416863652229,-9999,415583.877648,-0.2313232421875,0.7169647216796875,-0.26177978515625,1,0.84,5
2019-10-21 19:10:24.161 -0400,469,1571699423.003575,33.99020164755211,-81.02894325323945,61.44138,2.00683,18.67370609001301,2.703339230862985,5.149416863652229,-9999,415583.917632,-0.2219696044921875,0.6699676513671875,-0.268768310546875,1,0.84,5
2019-10-21 19:10:24.213 -0400,470,1571699424.003576,33.99021882553057,-81.0289407040563,61.32661,1.801599,14.85602192580686,2.731773309663457,5.134389118230055,-9999,415583.9576165,-0.152496337890625,0.454132080078125,-0.2635650634765625,1,0.84,5
2019-10-21 19:10:24.241 -0400,471,1571699424.003576,33.99021882553057,-81.0289407040563,61.32661,1.801599,14.85602192580686,2.731773309663457,5.134389118230055,-9999,415583.9976005,-0.3239288330078125,0.5206756591796875,-0.148223876953125,1,0.84,5
2019-10-21 19:10:24.281 -0400,472,1571699424.003576,33.99021882553057,-81.0289407040563,61.32661,1.801599,14.85602192580686,2.731773309663457,5.134389118230055,-9999,415584.0375845,-0.4009857177734375,0.85491943359375,-0.5417938232421875,1,0.84,5
2019-10-21 19:10:24.321 -0400,473,1571699424.003576,33.99021882553057,-81.0289407040563,61.32661,1.801599,14.85602192580686,2.731773309663457,5.134389118230055,-9999,415584.0775685,-0.6907196044921875,0.963348388671875,-0.54486083984375,1,0.84,5
2019-10-21 19:10:24.361 -0400,474,1571699424.003576,33.99021882553057,-81.0289407040563,61.32661,1.801599,14.85602192580686,2.731773309663457,5.134389118230055,-9999,415584.1175525,-0.7802581787109375,1.245147705078125,-0.5764617919921875,1,0.84,5
2019-10-21 19:10:24.401 -0400,475,1571699424.003576,33.99021882553057,-81.0289407040563,61.32661,1.801599,14.85602192580686,2.731773309663457,5.134389118230055,-9999,415584.1575365,-0.679290771484375,1.393844604492188,-0.606414794921875,1,0.84,5
2019-10-21 19:10:24.441 -0400,476,1571699424.003576,33.99021882553057,-81.0289407040563,61.32661,1.801599,14.85602192580686,2.731773309663457,5.134389118230055,-9999,415584.1975205,-0.45916748046875,1.20819091796875,-0.305419921875,1,0.84,5
2019-10-21 19:10:24.481 -0400,477,1571699424.003576,33.99021882553057,-81.0289407040563,61.32661,1.801599,14.85602192580686,2.731773309663457,5.134389118230055,-9999,415584.2375045,-0.4490814208984375,1.080001831054688,-0.2662200927734375,1,0.84,5
2019-10-21 19:10:24.521 -0400,478,1571699424.003576,33.99021882553057,-81.0289407040563,61.32661,1.801599,14.85602192580686,2.731773309663457,5.134389118230055,-9999,415584.2774885,-0.3141021728515625,1.058258056640625,-0.06353759765625,1,0.84,5
2019-10-21 19:10:24.561 -0400,479,1571699424.003576,33.99021882553057,-81.0289407040563,61.32661,1.801599,14.85602192580686,2.731773309663457,5.134389118230055,-9999,415584.3174735,-0.328338623046875,0.9015655517578125,-0.1708221435546875,1,0.84,5
2019-10-21 19:10:24.601 -0400,480,1571699424.003576,33.99021882553057,-81.0289407040563,61.32661,1.801599,14.85602192580686,2.731773309663457,5.134389118230055,-9999,415584.3574575,-0.391510009765625,0.220458984375,0.1783294677734375,1,0.84,5
2019-10-21 19:10:24.641 -0400,481,1571699424.003576,33.99021882553057,-81.0289407040563,61.32661,1.801599,14.85602192580686,2.731773309663457,5.134389118230055,-9999,415584.3974415,-0.218536376953125,0.594268798828125,-0.048919677734375,1,0.84,5
2019-10-21 19:10:24.681 -0400,482,1571699424.003576,33.99021882553057,-81.0289407040563,61.32661,1.801599,14.85602192580686,2.731773309663457,5.134389118230055,-9999,415584.4374255,-0.423583984375,0.5294189453125,-0.21112060546875,1,0.84,5
2019-10-21 19:10:24.721 -0400,483,1571699424.003576,33.99021882553057,-81.0289407040563,61.32661,1.801599,14.85602192580686,2.731773309663457,5.134389118230055,-9999,415584.4774095,-0.3774566650390625,0.68011474609375,-0.504241943359375,1,0.84,5
2019-10-21 19:10:24.761 -0400,484,1571699424.003576,33.99021882553057,-81.0289407040563,61.32661,1.801599,14.85602192580686,2.731773309663457,5.134389118230055,-9999,415584.5173935,-0.4552459716796875,0.7618408203125,-0.3632965087890625,1,0.84,5
2019-10-21 19:10:24.801 -0400,485,1571699424.003576,33.99021882553057,-81.0289407040563,61.32661,1.801599,14.85602192580686,2.731773309663457,5.134389118230055,-9999,415584.5573775001,-0.441986083984375,0.8819580078125,-0.581573486328125,1,0.84,5
