loggingTime(txt),accelerometerTimestamp_sinceReboot(s),accelerometerAccelerationX(G),accelerometerAccelerationY(G),accelerometerAccelerationZ(G),batteryState,batteryLevel
2020-05-16 12:43:57.045 -0400,11173.835261,-0.01025390625,-0.2716827392578125,-1.446060180664062,1,0.96
2020-05-16 12:43:57.165 -0400,11173.955001,0.0400543212890625,-0.2195587158203125,-0.8799285888671875,1,0.96
2020-05-16 12:43:57.285 -0400,11174.074742,0.1434326171875,-0.05145263671875,-0.5299072265625,1,0.96
2020-05-16 12:43:57.405 -0400,11174.194476,0.1781158447265625,-0.0141448974609375,-0.851776123046875,1,0.96
2020-05-16 12:43:57.524 -0400,11174.314215,0.720916748046875,0.0084686279296875,-0.6286163330078125,1,0.96
2020-05-16 12:43:57.644 -0400,11174.43395,1.537109375,0.4032745361328125,-0.1893463134765625,1,0.96
2020-05-16 12:43:57.764 -0400,11174.553681,0.82061767578125,0.73291015625,-0.2491455078125,1,0.96
2020-05-16 12:43:57.884 -0400,11174.67341366667,0.5686798095703125,0.570220947265625,-0.167388916015625,1,0.96
2020-05-16 12:43:58.024 -0400,11174.81310566667,0.5465087890625,0.7199859619140625,-0.2498016357421875,1,0.96
2020-05-16 12:43:58.093 -0400,11174.88295566667,1.200408935546875,0.7315216064453125,-0.19677734375,1,0.96
2020-05-16 12:43:58.163 -0400,11174.95280066667,1.874832153320312,0.6839752197265625,-0.5914306640625,1,0.96
2020-05-16 12:43:58.233 -0400,11175.02263766667,2.10235595703125,0.5025634765625,-0.157562255859375,1,0.96
2020-05-16 12:43:58.303 -0400,11175.09247666667,1.17510986328125,0.3048553466796875,-0.3486175537109375,1,0.96
2020-05-16 12:43:58.372 -0400,11175.16232166667,0.6151275634765625,0.264984130859375,-0.1910400390625,1,0.96
2020-05-16 12:43:58.442 -0400,11175.23216466667,0.506744384765625,0.1759185791015625,-0.052398681640625,1,0.96
2020-05-16 12:43:58.512 -0400,11175.30201066667,0.4532318115234375,0.0672607421875,-0.0391845703125,1,0.96
2020-05-16 12:43:58.582 -0400,11175.37185466667,0.60302734375,0.0804443359375,0.1067352294921875,1,0.96
2020-05-16 12:43:58.652 -0400,11175.44170066667,0.7704925537109375,0.44580078125,0.0068359375,1,0.96
2020-05-16 12:43:58.722 -0400,11175.51154266667,1.3685302734375,0.9340667724609375,-0.587066650390625,1,0.96
2020-05-16 12:43:58.792 -0400,11175.581387625,1.513198852539062,0.7013397216796875,-0.6371002197265625,1,0.96
2020-05-16 12:43:58.861 -0400,11175.651232625,1.507064819335938,-0.3535308837890625,-0.7578582763671875,1,0.96
2020-05-16 12:43:58.931 -0400,11175.721077625,0.52362060546875,0.257781982421875,-0.7059783935546875,1,0.96
2020-05-16 12:43:59.001 -0400,11175.790927625,0.176055908203125,0.3288116455078125,-0.37689208984375,1,0.96
2020-05-16 12:43:59.071 -0400,11175.860776625,0.368865966796875,1.225662231445312,-0.1389617919921875,1,0.96
2020-05-16 12:43:59.141 -0400,11175.930622625,1.22271728515625,1.072006225585938,-0.3367767333984375,1,0.96
2020-05-16 12:43:59.211 -0400,11176.000470625,1.9918212890625,0.012664794921875,-0.163726806640625,1,0.96
2020-05-16 12:43:59.280 -0400,11176.070320625,1.888763427734375,0.4279632568359375,-0.1751251220703125,1,0.96
2020-05-16 12:43:59.350 -0400,11176.140168625,1.40057373046875,0.6103668212890625,-0.188507080078125,1,0.96
2020-05-16 12:43:59.420 -0400,11176.210013625,0.8331298828125,-0.1143646240234375,-0.0269775390625,1,0.96
2020-05-16 12:43:59.490 -0400,11176.279858625,0.6447601318359375,-0.077239990234375,0.0288543701171875,1,0.96
2020-05-16 12:43:59.560 -0400,11176.349704625,0.5605621337890625,0.036834716796875,-0.0182342529296875,1,0.96
2020-05-16 12:43:59.630 -0400,11176.419548625,0.621429443359375,0.1931304931640625,0.0688018798828125,1,0.96
2020-05-16 12:43:59.700 -0400,11176.489395625,0.9799041748046875,1.647567749023438,-0.1857757568359375,1,0.96
2020-05-16 12:43:59.769 -0400,11176.559241625,1.294296264648438,0.7558746337890625,-0.5736236572265625,1,0.96
2020-05-16 12:43:59.839 -0400,11176.629086625,1.186676025390625,0.78839111328125,-0.1720733642578125,1,0.96
2020-05-16 12:43:59.909 -0400,11176.698934625,0.86572265625,0.7938079833984375,-0.2432098388671875,1,0.96
2020-05-16 12:43:59.979 -0400,11176.768781625,0.528350830078125,0.62420654296875,-0.1391754150390625,1,0.96
2020-05-16 12:44:00.049 -0400,11176.838630625,0.36956787109375,0.6159820556640625,-0.099395751953125,1,0.96
2020-05-16 12:44:00.119 -0400,11176.908478625,0.5708770751953125,0.6985015869140625,0.033721923828125,1,0.96
2020-05-16 12:44:00.188 -0400,11176.978325625,2.26519775390625,1.103469848632812,-0.1216888427734375,1,0.96
2020-05-16 12:44:00.258 -0400,11177.048176625,2.022674560546875,0.4249114990234375,-0.0420989990234375,1,0.96
2020-05-16 12:44:00.328 -0400,11177.118027625,1.424453735351562,1.166748046875,-0.386505126953125,1,0.96
2020-05-16 12:44:00.398 -0400,11177.187875625,0.849853515625,-1.080764770507812,0.2082672119140625,1,0.96
2020-05-16 12:44:00.468 -0400,11177.257724625,0.549072265625,-0.2931365966796875,-0.308319091796875,1,0.96
2020-05-16 12:44:00.538 -0400,11177.327572625,0.3153839111328125,0.2252044677734375,0.087493896484375,1,0.96
2020-05-16 12:44:00.608 -0400,11177.397419625,0.3307952880859375,0.3699188232421875,0.2138671875,1,0.96
2020-05-16 12:44:00.677 -0400,11177.467263625,0.324371337890625,0.07696533203125,0.2126922607421875,1,0.96
2020-05-16 12:44:00.747 -0400,11177.537112625,1.61627197265625,1.02545166015625,0.2472076416015625,1,0.96
2020-05-16 12:44:00.817 -0400,11177.60695879167,2.513046264648438,1.568023681640625,-0.89495849609375,1,0.96
2020-05-16 12:44:00.887 -0400,11177.67680879167,1.107666015625,0.398681640625,0.5961151123046875,1,0.96
2020-05-16 12:44:00.957 -0400,11177.74665479167,0.8426666259765625,-0.1967010498046875,-0.0551300048828125,1,0.96
2020-05-16 12:44:01.027 -0400,11177.81650179167,0.3987274169921875,0.0383148193359375,-0.5975189208984375,1,0.96
2020-05-16 12:44:01.097 -0400,11177.88635079167,0.4195098876953125,0.50286865234375,-0.64697265625,1,0.96
2020-05-16 12:44:01.166 -0400,11177.95619779167,0.5420074462890625,0.3729095458984375,-0.4280548095703125,1,0.96
2020-05-16 12:44:01.236 -0400,11178.02604279167,0.980926513671875,0.343780517578125,-0.2643280029296875,1,0.96
2020-05-16 12:44:01.306 -0400,11178.09589279167,2.653518676757812,0.367523193359375,0.035369873046875,1,0.96
2020-05-16 12:44:01.378 -0400,11178.16574279167,1.677108764648438,0.5960235595703125,-0.212371826171875,1,0.96
2020-05-16 12:44:01.446 -0400,11178.23559579167,1.017303466796875,0.5265045166015625,-0.0141143798828125,1,0.96
2020-05-16 12:44:01.516 -0400,11178.30545279167,0.6767730712890625,0.3788604736328125,0.1658935546875,1,0.96
2020-05-16 12:44:01.585 -0400,11178.37530379167,0.4588470458984375,0.15008544921875,0.1464996337890625,1,0.96
2020-05-16 12:44:01.655 -0400,11178.44515979167,0.4002838134765625,0.078399658203125,0.0795745849609375,1,0.96
2020-05-16 12:44:01.725 -0400,11178.51501279167,0.43182373046875,0.1324615478515625,0.0443267822265625,1,0.96
2020-05-16 12:44:01.795 -0400,11178.584861,0.8203125,0.2466278076171875,0.008148193359375,1,0.96
2020-05-16 12:44:01.865 -0400,11178.654716,1.694229125976562,0.979827880859375,-0.604736328125,1,0.96
2020-05-16 12:44:01.935 -0400,11178.724574,1.7606201171875,0.632080078125,-0.6719207763671875,1,0.96
2020-05-16 12:44:02.004 -0400,11178.794425,1.0286865234375,0.06884765625,-0.309112548828125,1,0.96
2020-05-16 12:44:02.074 -0400,11178.864273,0.6063232421875,0.2860260009765625,-0.556182861328125,1,0.96
2020-05-16 12:44:02.144 -0400,11178.934122,0.374755859375,0.564605712890625,-0.6541748046875,1,0.96
2020-05-16 12:44:02.214 -0400,11179.003974,0.3309783935546875,0.527923583984375,-0.5155181884765625,1,0.96
2020-05-16 12:44:02.284 -0400,11179.073821,1.016326904296875,0.531097412109375,-0.3035888671875,1,0.96
2020-05-16 12:44:02.354 -0400,11179.143672,2.4598388671875,0.310302734375,0.3644866943359375,1,0.96
2020-05-16 12:44:02.424 -0400,11179.213526,1.8560791015625,0.5981597900390625,-0.533111572265625,1,0.96
2020-05-16 12:44:02.493 -0400,11179.283372,1.150405883789062,0.852630615234375,0.0050506591796875,1,0.96
2020-05-16 12:44:02.563 -0400,11179.353224,0.8583831787109375,0.4520263671875,0.064117431640625,1,0.96
2020-05-16 12:44:02.633 -0400,11179.423078,0.537750244140625,-0.01129150390625,0.0213775634765625,1,0.96
2020-05-16 12:44:02.703 -0400,11179.49293,0.275421142578125,-0.0863800048828125,-0.0087890625,1,0.96
2020-05-16 12:44:02.773 -0400,11179.56277975,0.15972900390625,0.0363311767578125,-0.048614501953125,1,0.96
2020-05-16 12:44:02.843 -0400,11179.63262475,0.287384033203125,0.2460174560546875,-0.115570068359375,1,0.96
2020-05-16 12:44:02.913 -0400,11179.70246975,2.23028564453125,0.9752197265625,0.10662841796875,1,0.96
2020-05-16 12:44:02.982 -0400,11179.77231675,2.119552612304688,0.788543701171875,-1.330795288085938,1,0.96
2020-05-16 12:44:03.052 -0400,11179.84216475,1.727462768554688,2.539932250976562,-0.431549072265625,1,0.96
2020-05-16 12:44:03.122 -0400,11179.91201675,0.6973114013671875,0.931427001953125,-0.1958465576171875,1,0.96
2020-05-16 12:44:03.192 -0400,11179.98186375,0.384002685546875,-0.0822601318359375,-0.3648834228515625,1,0.96
2020-05-16 12:44:03.262 -0400,11180.05171475,0.24365234375,0.895904541015625,-0.3967742919921875,1,0.96
2020-05-16 12:44:03.332 -0400,11180.12156875,0.5644989013671875,0.911376953125,-0.11767578125,1,0.96
2020-05-16 12:44:03.402 -0400,11180.19141975,2.736007690429688,0.4465484619140625,0.3006744384765625,1,0.96
2020-05-16 12:44:03.471 -0400,11180.26127075,1.817794799804688,-0.219451904296875,-0.265533447265625,1,0.96
2020-05-16 12:44:03.541 -0400,11180.33112675,1.303359985351562,1.007781982421875,0.1488037109375,1,0.96
2020-05-16 12:44:03.611 -0400,11180.40097975,1.0120849609375,0.5246124267578125,-0.044403076171875,1,0.96
2020-05-16 12:44:03.681 -0400,11180.47083075,0.88995361328125,0.0854949951171875,0.0803070068359375,1,0.96
2020-05-16 12:44:03.751 -0400,11180.54068675,0.5764312744140625,-0.0994720458984375,0.0244903564453125,1,0.96
2020-05-16 12:44:03.821 -0400,11180.61054091667,0.282684326171875,0.0182952880859375,-0.0836181640625,1,0.96
2020-05-16 12:44:03.891 -0400,11180.68039291667,0.421905517578125,0.14056396484375,-0.0786895751953125,1,0.96
2020-05-16 12:44:03.960 -0400,11180.75024291667,1.226119995117188,1.783462524414062,-0.6535186767578125,1,0.96
2020-05-16 12:44:04.030 -0400,11180.82009191667,1.628936767578125,0.5483856201171875,-0.6777801513671875,1,0.96
2020-05-16 12:44:04.100 -0400,11180.88994191667,0.9651031494140625,1.461776733398438,-0.2298583984375,1,0.96
2020-05-16 12:44:04.170 -0400,11180.95979091667,0.30633544921875,0.5639495849609375,-0.13775634765625,1,0.96
2020-05-16 12:44:04.240 -0400,11181.02963991667,0.40325927734375,0.5977935791015625,-0.1246337890625,1,0.96
2020-05-16 12:44:04.310 -0400,11181.09949091667,0.3625030517578125,0.6988372802734375,-0.10992431640625,1,0.96
2020-05-16 12:44:04.380 -0400,11181.16934391667,0.5764312744140625,0.784942626953125,-0.0989532470703125,1,0.96
2020-05-16 12:44:04.449 -0400,11181.23919691667,1.059234619140625,0.79022216796875,-0.0318603515625,1,0.96
2020-05-16 12:44:04.519 -0400,11181.30905091667,2.050521850585938,0.9049835205078125,0.0882720947265625,1,0.96
2020-05-16 12:44:04.589 -0400,11181.37890391667,1.60845947265625,0.1543426513671875,-0.4643096923828125,1,0.96
2020-05-16 12:44:04.659 -0400,11181.44875191667,0.9719696044921875,0.603668212890625,-0.2485504150390625,1,0.96
2020-05-16 12:44:04.729 -0400,11181.51860091667,0.4701690673828125,0.237884521484375,-0.1903533935546875,1,0.96
2020-05-16 12:44:04.799 -0400,11181.588452375,0.3559112548828125,-0.0437164306640625,0.0153350830078125,1,0.96
2020-05-16 12:44:04.868 -0400,11181.658303375,0.2493896484375,-0.0097808837890625,0.0477752685546875,1,0.96
2020-05-16 12:44:04.938 -0400,11181.728158375,0.9917144775390625,1.208892822265625,-0.0774078369140625,1,0.96
2020-05-16 12:44:05.008 -0400,11181.798015375,1.0513916015625,0.7134246826171875,-0.5142822265625,1,0.96
2020-05-16 12:44:05.078 -0400,11181.867868375,1.277084350585938,0.736846923828125,-0.4446563720703125,1,0.96
2020-05-16 12:44:05.148 -0400,11181.937716375,0.9218902587890625,1.47686767578125,-0.419830322265625,1,0.96
2020-05-16 12:44:05.218 -0400,11182.007567375,0.5092010498046875,0.6251678466796875,-0.1886138916015625,1,0.96
2020-05-16 12:44:05.288 -0400,11182.077421375,0.2921600341796875,0.7439117431640625,-0.0835723876953125,1,0.96
2020-05-16 12:44:05.357 -0400,11182.147275375,0.4441070556640625,0.818939208984375,-0.0587921142578125,1,0.96
2020-05-16 12:44:05.427 -0400,11182.217128375,1.131072998046875,1.032211303710938,-0.1178436279296875,1,0.96
2020-05-16 12:44:05.497 -0400,11182.286978375,1.645843505859375,0.8823699951171875,0.0015716552734375,1,0.96
2020-05-16 12:44:05.567 -0400,11182.356827375,1.757965087890625,0.4301910400390625,-0.17938232421875,1,0.96
2020-05-16 12:44:05.637 -0400,11182.426674375,1.443191528320312,0.4818267822265625,-0.174041748046875,1,0.96
2020-05-16 12:44:05.707 -0400,11182.496525375,0.91436767578125,0.2600860595703125,-0.0874786376953125,1,0.96
2020-05-16 12:44:05.776 -0400,11182.56637825,0.60748291015625,0.1143798828125,0.011749267578125,1,0.96
2020-05-16 12:44:05.847 -0400,11182.63622625,0.5121307373046875,0.0509490966796875,-0.0111236572265625,1,0.96
2020-05-16 12:44:05.916 -0400,11182.70606925,0.347808837890625,0.07135009765625,0.0020599365234375,1,0.96
2020-05-16 12:44:05.986 -0400,11182.77591425,0.8465118408203125,0.5608673095703125,-0.1917877197265625,1,0.96
2020-05-16 12:44:06.056 -0400,11182.84575625,1.595703125,0.5554351806640625,-1.210128784179688,1,0.96
2020-05-16 12:44:06.126 -0400,11182.91559925,1.638763427734375,0.5056304931640625,-0.6285247802734375,1,0.96
2020-05-16 12:44:06.196 -0400,11182.98544325,0.996490478515625,0.3320159912109375,-0.8172760009765625,1,0.96
2020-05-16 12:44:06.267 -0400,11183.05528825,0.663818359375,0.8501129150390625,-0.7946319580078125,1,0.96
2020-05-16 12:44:06.335 -0400,11183.12513125,0.5160980224609375,0.4066314697265625,-0.4935455322265625,1,0.96
2020-05-16 12:44:06.405 -0400,11183.19497425,0.6809234619140625,0.1802825927734375,-0.368011474609375,1,0.96
2020-05-16 12:44:06.475 -0400,11183.26482225,1.375839233398438,0.3549652099609375,-0.3462982177734375,1,0.96
2020-05-16 12:44:06.545 -0400,11183.33467225,2.245803833007812,0.35595703125,0.0384674072265625,1,0.96
2020-05-16 12:44:06.615 -0400,11183.40452025,1.10675048828125,0.3917694091796875,0.12322998046875,1,0.96
2020-05-16 12:44:06.684 -0400,11183.47436425,1.105926513671875,0.17462158203125,0.2050933837890625,1,0.96
2020-05-16 12:44:06.754 -0400,11183.54420825,1.114944458007812,0.205108642578125,0.1031951904296875,1,0.96
2020-05-16 12:44:06.824 -0400,11183.6140565,0.871795654296875,0.33087158203125,-0.1204681396484375,1,0.96
2020-05-16 12:44:06.894 -0400,11183.6839015,0.9273681640625,0.934844970703125,-0.2312774658203125,1,0.96
2020-05-16 12:44:06.964 -0400,11183.7537485,0.6824188232421875,0.7984161376953125,-0.171295166015625,1,0.96
2020-05-16 12:44:07.034 -0400,11183.8235945,0.308013916015625,0.2623291015625,0.0030517578125,1,0.96
2020-05-16 12:44:07.104 -0400,11183.8934405,0.0048370361328125,-0.099945068359375,-0.0315704345703125,1,0.96
2020-05-16 12:44:07.173 -0400,11183.9632865,-0.4288330078125,-0.4744720458984375,0.0385589599609375,1,0.96
2020-05-16 12:44:07.243 -0400,11184.0331295,-0.0590972900390625,1.698410034179688,-0.531341552734375,1,0.96
2020-05-16 12:44:07.313 -0400,11184.1029705,2.91656494140625,1.577926635742188,-1.626220703125,1,0.96
2020-05-16 12:44:07.383 -0400,11184.1728135,0.85821533203125,0.318023681640625,-0.357666015625,1,0.96
2020-05-16 12:44:07.453 -0400,11184.2426535,0.34967041015625,0.261993408203125,-0.4031219482421875,1,0.96
2020-05-16 12:44:07.523 -0400,11184.3124975,-0.0058441162109375,0.2782745361328125,-0.1071929931640625,1,0.96
2020-05-16 12:44:07.592 -0400,11184.3823425,-0.1295166015625,0.3576812744140625,-0.1561279296875,1,0.96
2020-05-16 12:44:07.662 -0400,11184.4521875,0.2168121337890625,0.62969970703125,-0.125030517578125,1,0.96
2020-05-16 12:44:07.732 -0400,11184.5220345,2.045684814453125,1.589263916015625,0.2636260986328125,1,0.96
2020-05-16 12:44:07.802 -0400,11184.59188025,1.3536376953125,1.0924072265625,-0.660614013671875,1,0.96
2020-05-16 12:44:07.872 -0400,11184.66172325,0.7177886962890625,0.7515411376953125,-0.237396240234375,1,0.96
2020-05-16 12:44:07.942 -0400,11184.73156525,0.2931060791015625,0.1772918701171875,-0.174530029296875,1,0.96
2020-05-16 12:44:08.012 -0400,11184.80140825,0.1381988525390625,0.082489013671875,-0.1177215576171875,1,0.96
2020-05-16 12:44:08.082 -0400,11184.87125425,0.2737579345703125,0.1981048583984375,-0.173248291015625,1,0.96
2020-05-16 12:44:08.151 -0400,11184.94110225,0.8357086181640625,0.2950897216796875,-0.089752197265625,1,0.96
2020-05-16 12:44:08.221 -0400,11185.01095025,1.151885986328125,0.6671295166015625,-0.2059326171875,1,0.96
2020-05-16 12:44:08.291 -0400,11185.08079825,1.958053588867188,0.8170623779296875,-0.6086578369140625,1,0.96
2020-05-16 12:44:08.361 -0400,11185.15064525,1.536514282226562,0.6480865478515625,-0.2617034912109375,1,0.96
2020-05-16 12:44:08.431 -0400,11185.22048925,0.668182373046875,0.7889556884765625,-0.1815032958984375,1,0.96
2020-05-16 12:44:08.500 -0400,11185.29033525,0.3344573974609375,0.549652099609375,-0.0288238525390625,1,0.96
2020-05-16 12:44:08.570 -0400,11185.36018025,0.35223388671875,0.5724334716796875,-0.163116455078125,1,0.96
2020-05-16 12:44:08.640 -0400,11185.43002025,0.586761474609375,0.9146270751953125,-0.2148590087890625,1,0.96
2020-05-16 12:44:08.710 -0400,11185.49986225,1.871124267578125,1.112319946289062,-0.504486083984375,1,0.96
2020-05-16 12:44:08.780 -0400,11185.569707,1.958786010742188,0.3348388671875,-0.2049560546875,1,0.96
2020-05-16 12:44:08.850 -0400,11185.63955,1.908828735351562,0.4065704345703125,-0.1996307373046875,1,0.96
2020-05-16 12:44:08.920 -0400,11185.709391,0.975372314453125,0.4672698974609375,-0.2910003662109375,1,0.96
2020-05-16 12:44:08.989 -0400,11185.779229,0.5726165771484375,0.241790771484375,-0.01422119140625,1,0.96
2020-05-16 12:44:09.059 -0400,11185.849068,0.5737457275390625,0.152679443359375,0.0271759033203125,1,0.96
2020-05-16 12:44:09.129 -0400,11185.918905,0.961517333984375,0.24969482421875,-0.073150634765625,1,0.96
2020-05-16 12:44:09.199 -0400,11185.988742,0.8788299560546875,0.2151947021484375,0.05181884765625,1,0.96
2020-05-16 12:44:09.269 -0400,11186.058586,0.937408447265625,0.4372100830078125,-0.222991943359375,1,0.96
2020-05-16 12:44:09.338 -0400,11186.128432,1.14715576171875,0.901824951171875,-0.4142913818359375,1,0.96
2020-05-16 12:44:09.408 -0400,11186.198279,1.1175537109375,0.55841064453125,-0.4837799072265625,1,0.96
2020-05-16 12:44:09.478 -0400,11186.268129,1.023223876953125,0.411041259765625,-0.138427734375,1,0.96
2020-05-16 12:44:09.548 -0400,11186.337976,0.965057373046875,0.5865020751953125,-0.2426910400390625,1,0.96
2020-05-16 12:44:09.618 -0400,11186.407824,0.8147125244140625,0.762664794921875,-0.3057403564453125,1,0.96
2020-05-16 12:44:09.688 -0400,11186.477667,0.5476226806640625,0.7394561767578125,-0.354217529296875,1,0.96
2020-05-16 12:44:09.758 -0400,11186.54751,1.01812744140625,0.8585052490234375,-0.41015625,1,0.96
2020-05-16 12:44:09.827 -0400,11186.61735375,1.680099487304688,0.6046600341796875,-0.38592529296875,1,0.96
2020-05-16 12:44:09.898 -0400,11186.68719375,1.6739501953125,0.1865997314453125,-0.2857666015625,1,0.96
2020-05-16 12:44:09.967 -0400,11186.75703275,1.287857055664062,0.54327392578125,-0.3062591552734375,1,0.96
2020-05-16 12:44:10.037 -0400,11186.82686775,0.731170654296875,0.303131103515625,-0.158843994140625,1,0.96
2020-05-16 12:44:10.107 -0400,11186.89670775,0.555206298828125,0.245880126953125,0.0094757080078125,1,0.96
2020-05-16 12:44:10.177 -0400,11186.96654875,0.6067047119140625,0.2076263427734375,0.0099639892578125,1,0.96
2020-05-16 12:44:10.247 -0400,11187.03638575,0.751434326171875,0.261444091796875,-0.0438232421875,1,0.96
2020-05-16 12:44:10.316 -0400,11187.10622575,0.8506317138671875,0.3475494384765625,-0.2137451171875,1,0.96
2020-05-16 12:44:10.386 -0400,11187.17606875,1.261764526367188,0.453582763671875,-0.1871490478515625,1,0.96
2020-05-16 12:44:10.456 -0400,11187.24591175,1.486831665039062,0.6090087890625,-0.5036468505859375,1,0.96
2020-05-16 12:44:10.526 -0400,11187.31575475,1.184402465820312,0.46630859375,-0.233856201171875,1,0.96
2020-05-16 12:44:10.596 -0400,11187.38559675,0.7410125732421875,0.3058013916015625,-0.219146728515625,1,0.96
2020-05-16 12:44:10.666 -0400,11187.45543875,0.601165771484375,0.57989501953125,-0.1397857666015625,1,0.96
2020-05-16 12:44:10.735 -0400,11187.52528175,0.696075439453125,0.662567138671875,-0.213226318359375,1,0.96
2020-05-16 12:44:10.805 -0400,11187.595123875,0.96673583984375,1.025314331054688,-0.3270416259765625,1,0.96
2020-05-16 12:44:10.875 -0400,11187.664967875,1.917266845703125,1.057235717773438,-0.4479827880859375,1,0.96
2020-05-16 12:44:10.945 -0400,11187.734812875,1.336837768554688,0.33062744140625,-0.3970947265625,1,0.96
2020-05-16 12:44:11.015 -0400,11187.804658875,1.903030395507812,0.331573486328125,-0.215972900390625,1,0.96
2020-05-16 12:44:11.085 -0400,11187.874503875,1.207382202148438,0.2301177978515625,-0.2545013427734375,1,0.96
2020-05-16 12:44:11.154 -0400,11187.944353875,0.7294464111328125,0.297698974609375,-0.0877227783203125,1,0.96
2020-05-16 12:44:11.224 -0400,11188.014204875,0.5362701416015625,0.2881622314453125,-0.053863525390625,1,0.96
2020-05-16 12:44:11.294 -0400,11188.084054875,0.469940185546875,0.178680419921875,0.0006256103515625,1,0.96
2020-05-16 12:44:11.364 -0400,11188.153902875,0.427764892578125,0.144561767578125,-0.0168609619140625,1,0.96
2020-05-16 12:44:11.434 -0400,11188.223748875,0.844573974609375,0.3485565185546875,-0.156005859375,1,0.96
2020-05-16 12:44:11.504 -0400,11188.293594875,1.3997802734375,0.4773101806640625,-0.290374755859375,1,0.96
2020-05-16 12:44:11.574 -0400,11188.363442875,1.481826782226562,0.64752197265625,-0.503753662109375,1,0.96
2020-05-16 12:44:11.643 -0400,11188.433286875,1.734954833984375,0.568267822265625,-0.2859649658203125,1,0.96
2020-05-16 12:44:11.713 -0400,11188.503134875,0.9193267822265625,0.4494781494140625,-0.307220458984375,1,0.96
2020-05-16 12:44:11.783 -0400,11188.57298475,0.5659637451171875,0.5000457763671875,-0.079559326171875,1,0.96
2020-05-16 12:44:11.853 -0400,11188.64283775,0.3925323486328125,0.5885772705078125,-0.046112060546875,1,0.96
2020-05-16 12:44:11.923 -0400,11188.71269175,0.4586029052734375,0.6851043701171875,-0.17486572265625,1,0.96
2020-05-16 12:44:11.993 -0400,11188.78254175,0.6570281982421875,0.9005126953125,-0.358428955078125,1,0.96
2020-05-16 12:44:12.062 -0400,11188.85238875,1.47100830078125,0.992340087890625,-0.3913116455078125,1,0.96
2020-05-16 12:44:12.133 -0400,11188.92223575,1.729812622070312,0.46478271484375,-0.2749176025390625,1,0.96
2020-05-16 12:44:12.202 -0400,11188.99208475,1.949630737304688,0.412994384765625,-0.230743408203125,1,0.96
2020-05-16 12:44:12.272 -0400,11189.06193475,1.14239501953125,0.237640380859375,-0.1058349609375,1,0.96
2020-05-16 12:44:12.342 -0400,11189.13178575,0.75958251953125,0.36669921875,-0.059326171875,1,0.96
2020-05-16 12:44:12.413 -0400,11189.20163275,0.782135009765625,0.36041259765625,0.0435028076171875,1,0.96
2020-05-16 12:44:12.482 -0400,11189.27148575,0.6121063232421875,0.1951904296875,0.07781982421875,1,0.96
2020-05-16 12:44:12.551 -0400,11189.34133675,0.5472564697265625,0.20135498046875,0.070220947265625,1,0.96
2020-05-16 12:44:12.621 -0400,11189.41118675,0.50396728515625,0.2506256103515625,0.0262603759765625,1,0.96
2020-05-16 12:44:12.691 -0400,11189.48103075,1.1097412109375,0.512939453125,-0.2164764404296875,1,0.96
2020-05-16 12:44:12.761 -0400,11189.55087675,1.427963256835938,0.80743408203125,-0.628631591796875,1,0.96
2020-05-16 12:44:12.831 -0400,11189.620723125,1.624130249023438,0.8177490234375,-0.383544921875,1,0.96
2020-05-16 12:44:12.901 -0400,11189.690569125,0.8554840087890625,0.021209716796875,-0.4260406494140625,1,0.96
2020-05-16 12:44:12.970 -0400,11189.760415125,0.4785003662109375,0.7197265625,-0.368621826171875,1,0.96
2020-05-16 12:44:13.040 -0400,11189.830263125,0.363250732421875,1.003067016601562,-0.3554534912109375,1,0.96
2020-05-16 12:44:13.110 -0400,11189.900110125,0.92034912109375,0.86273193359375,-0.40911865234375,1,0.96
2020-05-16 12:44:13.180 -0400,11189.969952125,1.374847412109375,0.3968048095703125,-0.201690673828125,1,0.96
2020-05-16 12:44:13.250 -0400,11190.039798125,1.341903686523438,0.3481292724609375,-0.2281951904296875,1,0.96
2020-05-16 12:44:13.320 -0400,11190.109643125,1.759140014648438,0.56048583984375,-0.084136962890625,1,0.96
2020-05-16 12:44:13.390 -0400,11190.179493125,1.170562744140625,0.4308929443359375,-0.0988006591796875,1,0.96
2020-05-16 12:44:13.459 -0400,11190.249338125,0.60980224609375,0.2783050537109375,-0.0863800048828125,1,0.96
2020-05-16 12:44:13.529 -0400,11190.319184125,0.551116943359375,0.3105621337890625,0.06439208984375,1,0.96
2020-05-16 12:44:13.599 -0400,11190.389030125,0.6233062744140625,0.191864013671875,0.0150299072265625,1,0.96
2020-05-16 12:44:13.669 -0400,11190.458881125,0.966217041015625,0.34521484375,-0.147613525390625,1,0.96
2020-05-16 12:44:13.739 -0400,11190.528731125,1.104156494140625,0.407318115234375,-0.27630615234375,1,0.96
2020-05-16 12:44:13.809 -0400,11190.59857825,1.330398559570312,0.6479034423828125,-0.5963897705078125,1,0.96
2020-05-16 12:44:13.879 -0400,11190.66842425,1.223297119140625,0.711700439453125,-0.49395751953125,1,0.96
2020-05-16 12:44:13.948 -0400,11190.73826925,0.5428314208984375,0.4204254150390625,-0.4409332275390625,1,0.96
2020-05-16 12:44:14.018 -0400,11190.80811525,0.4595184326171875,0.44580078125,-0.2588958740234375,1,0.96
2020-05-16 12:44:14.088 -0400,11190.87796625,0.624267578125,0.5269927978515625,-0.2469940185546875,1,0.96
2020-05-16 12:44:14.158 -0400,11190.94781725,0.682464599609375,0.6287689208984375,-0.3687896728515625,1,0.96
2020-05-16 12:44:14.228 -0400,11191.01766525,0.773284912109375,0.63616943359375,-0.4318084716796875,1,0.96
2020-05-16 12:44:14.298 -0400,11191.08751425,0.968719482421875,0.64410400390625,-0.4893035888671875,1,0.96
2020-05-16 12:44:14.368 -0400,11191.15736225,1.487701416015625,0.8146209716796875,-0.600616455078125,1,0.96
2020-05-16 12:44:14.437 -0400,11191.22721225,1.21343994140625,0.596954345703125,-0.468658447265625,1,0.96
2020-05-16 12:44:14.507 -0400,11191.29706225,1.0458984375,0.6179046630859375,-0.4126739501953125,1,0.96
2020-05-16 12:44:14.577 -0400,11191.36691125,0.942840576171875,0.45574951171875,-0.2262115478515625,1,0.96
2020-05-16 12:44:14.647 -0400,11191.43676225,0.6409149169921875,0.3863525390625,-0.0906982421875,1,0.96
2020-05-16 12:44:14.717 -0400,11191.50661225,0.5603485107421875,0.35443115234375,-0.066802978515625,1,0.96
2020-05-16 12:44:14.787 -0400,11191.576459625,0.457977294921875,0.319183349609375,-0.136199951171875,1,0.96
2020-05-16 12:44:14.856 -0400,11191.646310625,0.4867095947265625,0.3176727294921875,-0.1864471435546875,1,0.96
2020-05-16 12:44:14.926 -0400,11191.716160625,0.649200439453125,0.35345458984375,-0.231903076171875,1,0.96
2020-05-16 12:44:14.996 -0400,11191.786010625,1.266220092773438,0.3897857666015625,-0.1519012451171875,1,0.96
2020-05-16 12:44:15.066 -0400,11191.855858625,0.9325103759765625,0.45819091796875,-0.4369354248046875,1,0.96
2020-05-16 12:44:15.136 -0400,11191.925707625,1.591598510742188,0.4623260498046875,-0.307952880859375,1,0.96
2020-05-16 12:44:15.206 -0400,11191.995551625,1.126510620117188,0.598297119140625,-0.6640777587890625,1,0.96
2020-05-16 12:44:15.276 -0400,11192.065394625,0.736053466796875,0.4525909423828125,-0.36822509765625,1,0.96
2020-05-16 12:44:15.345 -0400,11192.135238625,0.5302886962890625,0.416015625,-0.3166961669921875,1,0.96
2020-05-16 12:44:15.415 -0400,11192.205080625,0.4117279052734375,0.3629302978515625,-0.236785888671875,1,0.96
2020-05-16 12:44:15.485 -0400,11192.274920625,0.2853851318359375,0.3847198486328125,-0.1639862060546875,1,0.96
2020-05-16 12:44:15.555 -0400,11192.344758625,0.61309814453125,0.608306884765625,-0.155853271484375,1,0.96
2020-05-16 12:44:15.625 -0400,11192.414598625,1.758529663085938,1.029464721679688,-0.51727294921875,1,0.96
2020-05-16 12:44:15.695 -0400,11192.484437625,2.152969360351562,0.5967864990234375,-0.0524749755859375,1,0.96
2020-05-16 12:44:15.764 -0400,11192.554278625,1.4881591796875,0.4246978759765625,-0.3768310546875,1,0.96
2020-05-16 12:44:15.834 -0400,11192.62411979167,0.7613525390625,0.33917236328125,-0.2163238525390625,1,0.96
2020-05-16 12:44:15.904 -0400,11192.69396179167,0.381103515625,0.17816162109375,-0.109344482421875,1,0.96
2020-05-16 12:44:15.974 -0400,11192.76380579167,0.2274322509765625,0.13812255859375,-0.0545806884765625,1,0.96
2020-05-16 12:44:16.044 -0400,11192.83364879167,0.3078155517578125,0.3019866943359375,-0.0257568359375,1,0.96
2020-05-16 12:44:16.114 -0400,11192.90348979167,0.5902252197265625,0.4772491455078125,-0.1075439453125,1,0.96
2020-05-16 12:44:16.183 -0400,11192.97332879167,1.29791259765625,0.82720947265625,-0.3058929443359375,1,0.96
2020-05-16 12:44:16.253 -0400,11193.04316779167,1.26397705078125,0.973724365234375,-0.601318359375,1,0.96
2020-05-16 12:44:16.323 -0400,11193.11300779167,1.103485107421875,0.5741729736328125,-0.502685546875,1,0.96
2020-05-16 12:44:16.393 -0400,11193.18285079167,0.7261505126953125,0.7143096923828125,-0.3134307861328125,1,0.96
2020-05-16 12:44:16.463 -0400,11193.25269179167,0.2863922119140625,0.6445770263671875,-0.199462890625,1,0.96
2020-05-16 12:44:16.533 -0400,11193.32253379167,0.319732666015625,0.6137237548828125,-0.1355743408203125,1,0.96
2020-05-16 12:44:16.603 -0400,11193.39237479167,0.7456817626953125,0.8470458984375,-0.16107177734375,1,0.96
2020-05-16 12:44:16.672 -0400,11193.46221879167,1.990859985351562,1.17755126953125,-0.4447174072265625,1,0.96
2020-05-16 12:44:16.742 -0400,11193.53206179167,2.141891479492188,0.414459228515625,-0.1566009521484375,1,0.96
2020-05-16 12:44:16.812 -0400,11193.60190004167,1.53668212890625,0.446380615234375,-0.15106201171875,1,0.96
2020-05-16 12:44:16.882 -0400,11193.67173904167,0.9319915771484375,0.3524932861328125,-0.132598876953125,1,0.96
2020-05-16 12:44:16.952 -0400,11193.74158104167,0.6945037841796875,0.2773895263671875,-0.0027008056640625,1,0.96
2020-05-16 12:44:17.022 -0400,11193.81142604167,0.587890625,0.09588623046875,0.0713653564453125,1,0.96
2020-05-16 12:44:17.091 -0400,11193.88127004167,0.467071533203125,0.1169281005859375,0.046417236328125,1,0.96
2020-05-16 12:44:17.161 -0400,11193.95111704167,0.387847900390625,0.24554443359375,-0.0196075439453125,1,0.96
2020-05-16 12:44:17.231 -0400,11194.02096404167,0.90716552734375,0.683624267578125,-0.2388763427734375,1,0.96
2020-05-16 12:44:17.306 -0400,11194.09080704167,1.367660522460938,0.6517333984375,-0.4091949462890625,1,0.96
2020-05-16 12:44:17.371 -0400,11194.16065004167,1.760635375976562,0.73822021484375,-0.62078857421875,1,0.96
2020-05-16 12:44:17.441 -0400,11194.23048904167,0.864410400390625,0.3931121826171875,-0.4754791259765625,1,0.96
2020-05-16 12:44:17.510 -0400,11194.30032804167,0.792327880859375,0.67352294921875,-0.36480712890625,1,0.96
2020-05-16 12:44:17.580 -0400,11194.37016704167,0.80926513671875,0.8276519775390625,-0.4554290771484375,1,0.96
2020-05-16 12:44:17.650 -0400,11194.44000504167,0.63861083984375,0.5601806640625,-0.3173828125,1,0.96
2020-05-16 12:44:17.720 -0400,11194.50984304167,0.6345977783203125,0.568115234375,-0.297393798828125,1,0.96
2020-05-16 12:44:17.790 -0400,11194.579690625,1.272201538085938,0.666229248046875,-0.2767181396484375,1,0.96
2020-05-16 12:44:17.860 -0400,11194.649537625,1.730194091796875,0.38623046875,-0.138092041015625,1,0.96
2020-05-16 12:44:17.930 -0400,11194.719387625,1.89764404296875,0.1658172607421875,-0.0399627685546875,1,0.96
2020-05-16 12:44:17.999 -0400,11194.789232625,1.149932861328125,0.3352508544921875,-0.0879974365234375,1,0.96
2020-05-16 12:44:18.069 -0400,11194.859072625,0.6574859619140625,0.3225860595703125,-0.0356903076171875,1,0.96
2020-05-16 12:44:18.139 -0400,11194.928915625,0.56207275390625,0.206207275390625,0.0941925048828125,1,0.96
2020-05-16 12:44:18.209 -0400,11194.998759625,0.3986053466796875,0.1444854736328125,0.0514373779296875,1,0.96
2020-05-16 12:44:18.279 -0400,11195.068603625,0.4219970703125,0.1752471923828125,0.0436859130859375,1,0.96
2020-05-16 12:44:18.349 -0400,11195.138450625,1.22259521484375,0.4107818603515625,0.0326080322265625,1,0.96
2020-05-16 12:44:18.419 -0400,11195.208296625,1.191513061523438,0.8992919921875,-0.7844696044921875,1,0.96
2020-05-16 12:44:18.488 -0400,11195.278145625,2.111038208007812,0.780548095703125,-0.643707275390625,1,0.96
2020-05-16 12:44:18.558 -0400,11195.347994625,1.001419067382812,0.0378570556640625,-0.5319976806640625,1,0.96
2020-05-16 12:44:18.628 -0400,11195.417847625,0.682098388671875,0.5149078369140625,-0.4176177978515625,1,0.96
2020-05-16 12:44:18.698 -0400,11195.487700625,0.63995361328125,0.648529052734375,-0.4835205078125,1,0.96
2020-05-16 12:44:18.768 -0400,11195.557551625,0.635650634765625,0.41552734375,-0.3740997314453125,1,0.96
2020-05-16 12:44:18.837 -0400,11195.62740291667,0.6859283447265625,0.3649444580078125,-0.2759246826171875,1,0.96
2020-05-16 12:44:18.907 -0400,11195.69725291667,0.77191162109375,0.3145751953125,-0.250885009765625,1,0.96
2020-05-16 12:44:18.977 -0400,11195.76710191667,0.9726104736328125,0.3368377685546875,-0.1988983154296875,1,0.96
2020-05-16 12:44:19.047 -0400,11195.83694991667,0.8962860107421875,0.38812255859375,-0.1331939697265625,1,0.96
2020-05-16 12:44:19.117 -0400,11195.90679791667,1.96392822265625,0.8311920166015625,-0.3563385009765625,1,0.96
2020-05-16 12:44:19.187 -0400,11195.97664591667,1.142974853515625,0.4072418212890625,-0.175933837890625,1,0.96
2020-05-16 12:44:19.257 -0400,11196.04649191667,1.097824096679688,0.4476318359375,-0.1375274658203125,1,0.96
2020-05-16 12:44:19.326 -0400,11196.11633991667,0.7447662353515625,0.2169189453125,-0.1003875732421875,1,0.96
2020-05-16 12:44:19.396 -0400,11196.18618791667,0.5923919677734375,0.32733154296875,-0.02777099609375,1,0.96
2020-05-16 12:44:19.466 -0400,11196.25604191667,0.8101959228515625,0.4001312255859375,-0.0074462890625,1,0.96
2020-05-16 12:44:19.536 -0400,11196.32589191667,0.8104400634765625,0.3921966552734375,0.0392608642578125,1,0.96
2020-05-16 12:44:19.606 -0400,11196.39574091667,0.752838134765625,0.41827392578125,-0.0370025634765625,1,0.96
2020-05-16 12:44:19.676 -0400,11196.46559391667,0.7073974609375,0.4625244140625,-0.1362152099609375,1,0.96
2020-05-16 12:44:19.746 -0400,11196.53543991667,0.9288482666015625,0.4439849853515625,-0.3268890380859375,1,0.96
2020-05-16 12:44:19.815 -0400,11196.60528541667,1.672271728515625,0.3857269287109375,-0.2475433349609375,1,0.96
2020-05-16 12:44:19.885 -0400,11196.67513441667,0.9907684326171875,0.386962890625,-0.3903656005859375,1,0.96
2020-05-16 12:44:19.955 -0400,11196.74498541667,0.8690948486328125,0.4319915771484375,-0.492156982421875,1,0.96
2020-05-16 12:44:20.025 -0400,11196.81483541667,0.7577056884765625,0.3456268310546875,-0.2522430419921875,1,0.96
2020-05-16 12:44:20.095 -0400,11196.88468141667,0.62249755859375,0.3755340576171875,-0.3395843505859375,1,0.96
2020-05-16 12:44:20.165 -0400,11196.95453341667,0.671661376953125,0.36895751953125,-0.3412628173828125,1,0.96
2020-05-16 12:44:20.234 -0400,11197.02438741667,0.644775390625,0.279052734375,-0.2802276611328125,1,0.96
2020-05-16 12:44:20.304 -0400,11197.09424041667,0.8695526123046875,0.303619384765625,-0.3289947509765625,1,0.96
2020-05-16 12:44:20.374 -0400,11197.16408941667,0.836883544921875,0.3840484619140625,-0.2057647705078125,1,0.96
2020-05-16 12:44:20.444 -0400,11197.23394141667,1.572341918945312,0.5811004638671875,-0.3056182861328125,1,0.96
2020-05-16 12:44:20.514 -0400,11197.30379241667,1.326202392578125,0.478759765625,-0.1791839599609375,1,0.96
2020-05-16 12:44:20.584 -0400,11197.37364341667,1.02288818359375,0.3279571533203125,-0.16644287109375,1,0.96
2020-05-16 12:44:20.654 -0400,11197.44349141667,0.8509979248046875,0.339569091796875,-0.1227264404296875,1,0.96
2020-05-16 12:44:20.724 -0400,11197.51333441667,0.8297882080078125,0.3052825927734375,-0.0691986083984375,1,0.96
2020-05-16 12:44:20.793 -0400,11197.58318329167,0.7286834716796875,0.252532958984375,-0.0264434814453125,1,0.96
2020-05-16 12:44:20.863 -0400,11197.65302829167,0.6850128173828125,0.330078125,-0.0778961181640625,1,0.96
2020-05-16 12:44:20.933 -0400,11197.72287629167,0.8394012451171875,0.3785400390625,-0.103363037109375,1,0.96
2020-05-16 12:44:21.003 -0400,11197.79272329167,1.148330688476562,0.42510986328125,-0.1555938720703125,1,0.96
2020-05-16 12:44:21.073 -0400,11197.86257729167,1.265579223632812,0.5139617919921875,-0.1803131103515625,1,0.96
2020-05-16 12:44:21.143 -0400,11197.93243229167,0.943634033203125,0.4520263671875,-0.4481658935546875,1,0.96
2020-05-16 12:44:21.212 -0400,11198.00228129167,0.99456787109375,0.43438720703125,-0.37884521484375,1,0.96
2020-05-16 12:44:21.285 -0400,11198.07212629167,0.7053680419921875,0.383087158203125,-0.4273223876953125,1,0.96
2020-05-16 12:44:21.352 -0400,11198.14197129167,0.430755615234375,0.5071868896484375,-0.5152130126953125,1,0.96
2020-05-16 12:44:21.422 -0400,11198.21181529167,0.5209197998046875,0.4634552001953125,-0.464111328125,1,0.96
2020-05-16 12:44:21.492 -0400,11198.28165929167,0.949737548828125,0.4969635009765625,-0.5390625,1,0.96
2020-05-16 12:44:21.562 -0400,11198.35150229167,0.9728546142578125,0.3718109130859375,-0.3237152099609375,1,0.96
2020-05-16 12:44:21.631 -0400,11198.42134429167,1.960830688476562,0.5486907958984375,-0.33160400390625,1,0.96
2020-05-16 12:44:21.701 -0400,11198.49118529167,1.365402221679688,0.166839599609375,-0.2009735107421875,1,0.96
2020-05-16 12:44:21.771 -0400,11198.56102529167,1.044937133789062,0.54034423828125,-0.09808349609375,1,0.96
2020-05-16 12:44:21.841 -0400,11198.63087125,0.7167510986328125,0.3765869140625,-0.0675811767578125,1,0.96
2020-05-16 12:44:21.911 -0400,11198.70071525,0.73248291015625,0.236785888671875,-0.0262298583984375,1,0.96
2020-05-16 12:44:21.981 -0400,11198.77055525,0.6994781494140625,0.151947021484375,-0.0172882080078125,1,0.96
2020-05-16 12:44:22.050 -0400,11198.84039625,0.871337890625,0.1733551025390625,-0.0695343017578125,1,0.96
2020-05-16 12:44:22.120 -0400,11198.91024425,1.02667236328125,0.5000457763671875,-0.2483673095703125,1,0.96
2020-05-16 12:44:22.190 -0400,11198.98008925,1.227615356445312,0.4670257568359375,-0.692474365234375,1,0.96
2020-05-16 12:44:22.260 -0400,11199.04993425,1.03302001953125,0.5566864013671875,-0.3431396484375,1,0.96
2020-05-16 12:44:22.330 -0400,11199.11977925,0.81640625,0.7468719482421875,-0.3495941162109375,1,0.96
2020-05-16 12:44:22.406 -0400,11199.18962625,0.6787872314453125,0.4326171875,-0.367279052734375,1,0.96
2020-05-16 12:44:22.470 -0400,11199.25947225,0.619720458984375,0.4532928466796875,-0.427978515625,1,0.96
2020-05-16 12:44:22.539 -0400,11199.32931825,0.652008056640625,0.4488525390625,-0.4105224609375,1,0.96
2020-05-16 12:44:22.609 -0400,11199.39916525,1.14300537109375,0.58038330078125,-0.5373382568359375,1,0.96
2020-05-16 12:44:22.679 -0400,11199.46901125,1.901535034179688,0.2903594970703125,-0.2148284912109375,1,0.96
2020-05-16 12:44:22.749 -0400,11199.53885325,1.549819946289062,0.1551971435546875,-0.204925537109375,1,0.96
2020-05-16 12:44:22.819 -0400,11199.60869475,1.165679931640625,0.6894683837890625,-0.120208740234375,1,0.96
2020-05-16 12:44:22.889 -0400,11199.67854275,0.7244873046875,0.338836669921875,-0.0244293212890625,1,0.96
2020-05-16 12:44:22.959 -0400,11199.74839275,0.5550079345703125,0.231719970703125,0.0256195068359375,1,0.96
2020-05-16 12:44:23.028 -0400,11199.81824175,0.5109100341796875,0.1977996826171875,0.0111846923828125,1,0.96
2020-05-16 12:44:23.098 -0400,11199.88809275,0.6074676513671875,0.3177490234375,-0.0528411865234375,1,0.96
2020-05-16 12:44:23.168 -0400,11199.95794075,1.244537353515625,0.529815673828125,-0.131561279296875,1,0.96
2020-05-16 12:44:23.238 -0400,11200.02778675,1.201004028320312,0.606781005859375,-0.4598846435546875,1,0.96
2020-05-16 12:44:23.308 -0400,11200.09763175,1.512771606445312,0.535858154296875,-0.4854278564453125,1,0.96
2020-05-16 12:44:23.378 -0400,11200.16747675,0.784515380859375,0.556060791015625,-0.48504638671875,1,0.96
2020-05-16 12:44:23.447 -0400,11200.23732175,0.4901885986328125,0.55303955078125,-0.3026123046875,1,0.96
2020-05-16 12:44:23.517 -0400,11200.30716575,0.6215057373046875,0.472137451171875,-0.3047027587890625,1,0.96
2020-05-16 12:44:23.587 -0400,11200.37700775,0.677825927734375,0.3794708251953125,-0.24957275390625,1,0.96
2020-05-16 12:44:23.657 -0400,11200.44684875,0.6910858154296875,0.3505859375,-0.2299652099609375,1,0.96
2020-05-16 12:44:23.727 -0400,11200.51668875,0.9340667724609375,0.4221954345703125,-0.233856201171875,1,0.96
2020-05-16 12:44:23.797 -0400,11200.58653054167,1.904693603515625,0.6407318115234375,-0.348876953125,1,0.96
2020-05-16 12:44:23.866 -0400,11200.65637854167,1.154434204101562,0.4415130615234375,-0.2404327392578125,1,0.96
2020-05-16 12:44:23.936 -0400,11200.72622354167,1.244110107421875,0.534393310546875,-0.284698486328125,1,0.96
2020-05-16 12:44:24.006 -0400,11200.79606754167,0.750396728515625,0.1642913818359375,-0.12286376953125,1,0.96
2020-05-16 12:44:24.076 -0400,11200.86591254167,0.564483642578125,0.227020263671875,-0.095428466796875,1,0.96
2020-05-16 12:44:24.146 -0400,11200.93575554167,0.543548583984375,0.25909423828125,-0.0793914794921875,1,0.96
2020-05-16 12:44:24.216 -0400,11201.00560054167,0.7056732177734375,0.299530029296875,-0.082061767578125,1,0.96
2020-05-16 12:44:24.296 -0400,11201.07544254167,1.312850952148438,0.3881988525390625,-0.08050537109375,1,0.96
2020-05-16 12:44:24.355 -0400,11201.14528554167,1.317474365234375,0.5746002197265625,-0.2611083984375,1,0.96
2020-05-16 12:44:24.425 -0400,11201.21513054167,1.279678344726562,0.3813018798828125,-0.421295166015625,1,0.96
2020-05-16 12:44:24.495 -0400,11201.28497454167,0.8727569580078125,0.0518035888671875,-0.244140625,1,0.96
2020-05-16 12:44:24.565 -0400,11201.35482254167,0.4781646728515625,0.387908935546875,-0.186431884765625,1,0.96
2020-05-16 12:44:24.635 -0400,11201.42466854167,0.5249176025390625,0.5756378173828125,-0.278289794921875,1,0.96
2020-05-16 12:44:24.705 -0400,11201.49450854167,0.63818359375,0.6978302001953125,-0.4083709716796875,1,0.96
2020-05-16 12:44:24.775 -0400,11201.56434754167,1.163604736328125,0.6752471923828125,-0.30902099609375,1,0.96
2020-05-16 12:44:24.844 -0400,11201.63418841667,1.6060791015625,0.4796905517578125,-0.5103912353515625,1,0.96
2020-05-16 12:44:24.914 -0400,11201.70403141667,1.287612915039062,0.2987518310546875,-0.2779083251953125,1,0.96
2020-05-16 12:44:24.984 -0400,11201.77387241667,1.543365478515625,0.4376678466796875,-0.238372802734375,1,0.96
2020-05-16 12:44:25.073 -0400,11201.84370941667,0.9547882080078125,0.2559051513671875,-0.11639404296875,1,0.96
2020-05-16 12:44:25.124 -0400,11201.91354741667,0.7043914794921875,0.326385498046875,-0.0739898681640625,1,0.96
2020-05-16 12:44:25.194 -0400,11201.98338941667,0.5490264892578125,0.237823486328125,-0.032379150390625,1,0.96
2020-05-16 12:44:25.263 -0400,11202.05322841667,0.4678955078125,0.1765594482421875,-0.0371246337890625,1,0.96
2020-05-16 12:44:25.333 -0400,11202.12306541667,0.419830322265625,0.20013427734375,-0.0314788818359375,1,0.96
2020-05-16 12:44:25.403 -0400,11202.19290341667,0.5370941162109375,0.2873687744140625,-0.0355987548828125,1,0.96
2020-05-16 12:44:25.473 -0400,11202.26274041667,1.560531616210938,0.7229156494140625,-0.099884033203125,1,0.96
2020-05-16 12:44:25.543 -0400,11202.33258041667,2.2125244140625,1.198394775390625,-0.430999755859375,1,0.96
2020-05-16 12:44:25.613 -0400,11202.40241841667,1.199050903320312,0.5805511474609375,-0.6392822265625,1,0.96
2020-05-16 12:44:25.682 -0400,11202.47225541667,0.7500457763671875,0.2847137451171875,-0.2495880126953125,1,0.96
2020-05-16 12:44:25.752 -0400,11202.54209241667,0.3515167236328125,0.4569244384765625,-0.4239349365234375,1,0.96
2020-05-16 12:44:25.822 -0400,11202.61193029167,0.3107452392578125,0.5891876220703125,-0.4181060791015625,1,0.96
2020-05-16 12:44:25.892 -0400,11202.68176629167,0.9327392578125,0.5503387451171875,-0.5123138427734375,1,0.96
2020-05-16 12:44:25.962 -0400,11202.75160729167,1.3880615234375,0.4627532958984375,-0.343109130859375,1,0.96
2020-05-16 12:44:26.032 -0400,11202.82144729167,1.041015625,0.324127197265625,-0.2218017578125,1,0.96
2020-05-16 12:44:26.101 -0400,11202.89128729167,1.158477783203125,0.535797119140625,-0.31744384765625,1,0.96
2020-05-16 12:44:26.171 -0400,11202.96112729167,1.693740844726562,0.4754791259765625,-0.0555419921875,1,0.96
2020-05-16 12:44:26.241 -0400,11203.03097129167,1.380645751953125,0.19671630859375,0.012115478515625,1,0.96
2020-05-16 12:44:26.311 -0400,11203.10081429167,0.6997833251953125,0.3663482666015625,-0.10296630859375,1,0.96
2020-05-16 12:44:26.381 -0400,11203.17065829167,0.5647430419921875,0.36859130859375,-0.02325439453125,1,0.96
2020-05-16 12:44:26.450 -0400,11203.24050329167,0.4898834228515625,0.186737060546875,0.006195068359375,1,0.96
2020-05-16 12:44:26.520 -0400,11203.31034729167,0.6650238037109375,0.1172637939453125,-0.01751708984375,1,0.96
2020-05-16 12:44:26.590 -0400,11203.38019029167,0.7161865234375,0.3856048583984375,-0.0531158447265625,1,0.96
2020-05-16 12:44:26.660 -0400,11203.45003429167,1.352737426757812,0.7647552490234375,-0.0651397705078125,1,0.96
2020-05-16 12:44:26.730 -0400,11203.51987729167,1.257705688476562,0.782501220703125,-0.594879150390625,1,0.96
2020-05-16 12:44:26.800 -0400,11203.58972341667,1.160552978515625,0.909271240234375,-0.6365203857421875,1,0.96
2020-05-16 12:44:26.870 -0400,11203.65956741667,0.716796875,0.514007568359375,-0.548797607421875,1,0.96
2020-05-16 12:44:26.939 -0400,11203.72941241667,0.3718719482421875,0.2968597412109375,-0.4736785888671875,1,0.96
2020-05-16 12:44:27.010 -0400,11203.79925441667,0.4833831787109375,0.4837646484375,-0.4271087646484375,1,0.96
2020-05-16 12:44:27.079 -0400,11203.86909541667,2.057449340820312,0.5381927490234375,-0.5351104736328125,1,0.96
2020-05-16 12:44:27.149 -0400,11203.93893741667,1.562118530273438,0.112762451171875,-0.045501708984375,1,0.96
2020-05-16 12:44:27.219 -0400,11204.00877941667,1.210006713867188,0.636077880859375,-0.2481689453125,1,0.96
2020-05-16 12:44:27.291 -0400,11204.07861641667,0.9007720947265625,0.59979248046875,-0.0712890625,1,0.96
2020-05-16 12:44:27.359 -0400,11204.14845241667,0.639007568359375,0.2142333984375,-0.0312042236328125,1,0.96
2020-05-16 12:44:27.428 -0400,11204.21829041667,0.3232269287109375,-0.0272674560546875,-0.0293426513671875,1,0.96
2020-05-16 12:44:27.498 -0400,11204.28812641667,0.23583984375,0.144927978515625,-0.1093292236328125,1,0.96
2020-05-16 12:44:27.568 -0400,11204.35796741667,0.64910888671875,0.5431060791015625,-0.2313995361328125,1,0.96
2020-05-16 12:44:27.638 -0400,11204.42780841667,1.957611083984375,0.842681884765625,-0.56182861328125,1,0.96
2020-05-16 12:44:27.708 -0400,11204.49764941667,1.440475463867188,0.2530517578125,-0.7117462158203125,1,0.96
2020-05-16 12:44:27.778 -0400,11204.56748641667,1.111923217773438,0.5732879638671875,-0.2424774169921875,1,0.96
2020-05-16 12:44:27.847 -0400,11204.63732525,0.6484222412109375,0.6427154541015625,-0.4225616455078125,1,0.96
2020-05-16 12:44:27.917 -0400,11204.70716825,0.65618896484375,0.633575439453125,-0.4128875732421875,1,0.96
2020-05-16 12:44:27.987 -0400,11204.77701025,0.691741943359375,0.424652099609375,-0.2330169677734375,1,0.96
2020-05-16 12:44:28.057 -0400,11204.84685025,0.540740966796875,0.4174652099609375,-0.22760009765625,1,0.96
2020-05-16 12:44:28.127 -0400,11204.91669325,0.4757080078125,0.4347991943359375,-0.2527313232421875,1,0.96
2020-05-16 12:44:28.197 -0400,11204.98653525,0.6790924072265625,0.42230224609375,-0.1439056396484375,1,0.96
2020-05-16 12:44:28.267 -0400,11205.05637825,2.475311279296875,0.7375640869140625,-0.328887939453125,1,0.96
2020-05-16 12:44:28.336 -0400,11205.12622025,1.880126953125,0.456878662109375,-0.3094940185546875,1,0.96
2020-05-16 12:44:28.406 -0400,11205.19606025,0.9854583740234375,0.28558349609375,-0.141143798828125,1,0.96
2020-05-16 12:44:28.476 -0400,11205.26589625,0.6497039794921875,0.332183837890625,0.0046844482421875,1,0.96
2020-05-16 12:44:28.546 -0400,11205.33573625,0.532958984375,0.161712646484375,0.1055145263671875,1,0.96
2020-05-16 12:44:28.616 -0400,11205.40557725,0.5367584228515625,0.0974578857421875,0.071868896484375,1,0.96
2020-05-16 12:44:28.685 -0400,11205.47541525,1.105865478515625,0.2222137451171875,0.138763427734375,1,0.96
2020-05-16 12:44:28.755 -0400,11205.54525925,1.059829711914062,1.066116333007812,-0.6231842041015625,1,0.96
2020-05-16 12:44:28.825 -0400,11205.6151,0.97259521484375,0.520782470703125,-0.4691925048828125,1,0.96
2020-05-16 12:44:28.895 -0400,11205.684942,1.070037841796875,1.443695068359375,-0.5930633544921875,1,0.96
2020-05-16 12:44:28.965 -0400,11205.754784,0.505279541015625,0.5169525146484375,-0.3914642333984375,1,0.96
2020-05-16 12:44:29.035 -0400,11205.824622,0.33154296875,0.54248046875,-0.16900634765625,1,0.96
2020-05-16 12:44:29.105 -0400,11205.894465,0.512420654296875,0.5918731689453125,-0.1549072265625,1,0.96
2020-05-16 12:44:29.175 -0400,11205.964308,1.928024291992188,1.044845581054688,-0.735748291015625,1,0.96
2020-05-16 12:44:29.244 -0400,11206.034154,1.905288696289062,0.4920654296875,-0.0982513427734375,1,0.96
2020-05-16 12:44:29.314 -0400,11206.103996,1.2513427734375,0.283599853515625,-0.162994384765625,1,0.96
2020-05-16 12:44:29.384 -0400,11206.173839,0.75140380859375,0.5981292724609375,-0.130889892578125,1,0.96
2020-05-16 12:44:29.454 -0400,11206.243681,0.6572265625,0.4650726318359375,-0.0383453369140625,1,0.96
2020-05-16 12:44:29.524 -0400,11206.313521,0.6900787353515625,0.222503662109375,-0.0215911865234375,1,0.96
2020-05-16 12:44:29.593 -0400,11206.38336,0.867523193359375,0.208099365234375,-0.0256195068359375,1,0.96
2020-05-16 12:44:29.663 -0400,11206.453203,1.6556396484375,0.4114532470703125,-0.0590362548828125,1,0.96
2020-05-16 12:44:29.733 -0400,11206.523049,1.041397094726562,0.5941925048828125,-0.51519775390625,1,0.96
2020-05-16 12:44:29.803 -0400,11206.59289379167,0.8825836181640625,0.4986724853515625,-0.5160064697265625,1,0.96
2020-05-16 12:44:29.873 -0400,11206.66273479167,0.7253570556640625,0.28521728515625,-0.1912994384765625,1,0.96
2020-05-16 12:44:29.943 -0400,11206.73257679167,0.5154571533203125,0.7042236328125,-0.27978515625,1,0.96
2020-05-16 12:44:30.013 -0400,11206.80242179167,0.7940673828125,0.621490478515625,-0.384521484375,1,0.96
2020-05-16 12:44:30.082 -0400,11206.87226979167,1.078033447265625,0.6129302978515625,-0.416046142578125,1,0.96
2020-05-16 12:44:30.152 -0400,11206.94211679167,0.9273834228515625,0.38916015625,-0.3342437744140625,1,0.96
2020-05-16 12:44:30.222 -0400,11207.01196779167,0.7143707275390625,0.4752655029296875,-0.3333740234375,1,0.96
2020-05-16 12:44:30.301 -0400,11207.08181879167,1.691925048828125,0.9915618896484375,-0.6738739013671875,1,0.96
2020-05-16 12:44:30.362 -0400,11207.15167079167,1.197219848632812,0.310089111328125,-0.1960601806640625,1,0.96
2020-05-16 12:44:30.432 -0400,11207.22152079167,1.3541259765625,0.444671630859375,-0.128814697265625,1,0.96
2020-05-16 12:44:30.501 -0400,11207.29136979167,0.9078826904296875,0.2863311767578125,-0.11761474609375,1,0.96
2020-05-16 12:44:30.571 -0400,11207.36121779167,0.69500732421875,0.354583740234375,-0.0352935791015625,1,0.96
2020-05-16 12:44:30.641 -0400,11207.43106379167,0.61639404296875,0.2939910888671875,-0.0147705078125,1,0.96
2020-05-16 12:44:30.711 -0400,11207.50090879167,0.569671630859375,0.220611572265625,-0.0382843017578125,1,0.96
2020-05-16 12:44:30.781 -0400,11207.57075579167,0.7826080322265625,0.339080810546875,-0.14642333984375,1,0.96
2020-05-16 12:44:30.851 -0400,11207.640603125,1.089370727539062,0.4072113037109375,-0.2306365966796875,1,0.96
2020-05-16 12:44:30.921 -0400,11207.710449125,1.379791259765625,0.4924468994140625,-0.40374755859375,1,0.96
2020-05-16 12:44:30.991 -0400,11207.780294125,1.125885009765625,0.5928497314453125,-0.478973388671875,1,0.96
2020-05-16 12:44:31.060 -0400,11207.850142125,1.082122802734375,0.6551361083984375,-0.4649658203125,1,0.96
2020-05-16 12:44:31.130 -0400,11207.919988125,0.800445556640625,0.3379058837890625,-0.334991455078125,1,0.96
2020-05-16 12:44:31.200 -0400,11207.989835125,0.6032867431640625,0.5876007080078125,-0.375030517578125,1,0.96
2020-05-16 12:44:31.270 -0400,11208.059686125,0.54534912109375,0.68115234375,-0.4217529296875,1,0.96
2020-05-16 12:44:31.340 -0400,11208.129537125,0.6716156005859375,0.5137939453125,-0.35791015625,1,0.96
2020-05-16 12:44:31.410 -0400,11208.199386125,1.235076904296875,0.52984619140625,-0.290008544921875,1,0.96
2020-05-16 12:44:31.479 -0400,11208.269232125,1.619781494140625,0.5063018798828125,-0.3056793212890625,1,0.96
2020-05-16 12:44:31.549 -0400,11208.339082125,1.59930419921875,0.344268798828125,-0.1696319580078125,1,0.96
2020-05-16 12:44:31.619 -0400,11208.408929125,1.446304321289062,0.436553955078125,-0.1728515625,1,0.96
2020-05-16 12:44:31.689 -0400,11208.478777125,0.7926788330078125,0.29022216796875,-0.1307830810546875,1,0.96
2020-05-16 12:44:31.759 -0400,11208.548625125,0.5849151611328125,0.2836456298828125,-0.0824127197265625,1,0.96
2020-05-16 12:44:31.829 -0400,11208.618472125,0.493133544921875,0.161407470703125,-0.0432281494140625,1,0.96
2020-05-16 12:44:31.898 -0400,11208.688317125,0.4670562744140625,0.1497802734375,-0.0246734619140625,1,0.96
2020-05-16 12:44:31.968 -0400,11208.758163125,0.565704345703125,0.32330322265625,-0.07958984375,1,0.96
2020-05-16 12:44:32.038 -0400,11208.828009125,1.188186645507812,0.723724365234375,-0.1067962646484375,1,0.96
2020-05-16 12:44:32.108 -0400,11208.897853125,1.396209716796875,0.7767791748046875,-0.3283843994140625,1,0.96
2020-05-16 12:44:32.178 -0400,11208.967693125,1.315811157226562,1.012557983398438,-0.549560546875,1,0.96
2020-05-16 12:44:32.248 -0400,11209.037537125,0.928314208984375,0.397247314453125,-0.20257568359375,1,0.96
2020-05-16 12:44:32.318 -0400,11209.107382125,0.6923828125,0.3357391357421875,-0.289703369140625,1,0.96
2020-05-16 12:44:32.387 -0400,11209.177222125,0.5086517333984375,0.6815185546875,-0.4111785888671875,1,0.96
2020-05-16 12:44:32.457 -0400,11209.247063125,0.434844970703125,0.6316375732421875,-0.4409027099609375,1,0.96
2020-05-16 12:44:32.527 -0400,11209.316904125,0.8076171875,0.612457275390625,-0.4390106201171875,1,0.96
2020-05-16 12:44:32.597 -0400,11209.386751125,1.591140747070312,0.536346435546875,-0.4022674560546875,1,0.96
2020-05-16 12:44:32.667 -0400,11209.456594125,1.194976806640625,0.2591400146484375,-0.07806396484375,1,0.96
2020-05-16 12:44:32.737 -0400,11209.526438125,1.905624389648438,0.27783203125,-0.2268829345703125,1,0.96
2020-05-16 12:44:32.806 -0400,11209.596276625,1.10992431640625,0.4702606201171875,-0.12567138671875,1,0.96
2020-05-16 12:44:32.876 -0400,11209.666117625,0.769622802734375,0.396484375,-0.05517578125,1,0.96
2020-05-16 12:44:32.946 -0400,11209.735960625,0.54791259765625,0.21282958984375,-0.0001678466796875,1,0.96
2020-05-16 12:44:33.016 -0400,11209.805798625,0.364990234375,0.1616668701171875,-0.0362396240234375,1,0.96
2020-05-16 12:44:33.086 -0400,11209.875639625,0.4124298095703125,0.2158355712890625,-0.0276031494140625,1,0.96
2020-05-16 12:44:33.156 -0400,11209.945479625,0.7770843505859375,0.310272216796875,-0.0467071533203125,1,0.96
2020-05-16 12:44:33.240 -0400,11210.015320625,1.966552734375,0.899139404296875,-0.1583404541015625,1,0.96
2020-05-16 12:44:33.295 -0400,11210.085162625,1.501754760742188,0.938385009765625,-0.7933807373046875,1,0.96
2020-05-16 12:44:33.365 -0400,11210.155005625,1.154037475585938,0.2377471923828125,-0.1827239990234375,1,0.96
2020-05-16 12:44:33.435 -0400,11210.224844625,0.7328338623046875,0.290252685546875,-0.2554779052734375,1,0.96
2020-05-16 12:44:33.505 -0400,11210.294685625,0.4339599609375,0.6874237060546875,-0.3258209228515625,1,0.96
2020-05-16 12:44:33.575 -0400,11210.364524625,0.4933929443359375,0.749786376953125,-0.487701416015625,1,0.96
2020-05-16 12:44:33.644 -0400,11210.434366625,0.9080810546875,0.6278076171875,-0.470062255859375,1,0.96
2020-05-16 12:44:33.714 -0400,11210.504204625,1.178695678710938,0.3304901123046875,-0.358245849609375,1,0.96
2020-05-16 12:44:33.784 -0400,11210.574045625,1.421539306640625,0.405517578125,-0.3564605712890625,1,0.96
2020-05-16 12:44:33.854 -0400,11210.643885875,1.808074951171875,0.450653076171875,-0.263153076171875,1,0.96
2020-05-16 12:44:33.924 -0400,11210.713727875,1.2696533203125,0.3332366943359375,0.02899169921875,1,0.96
2020-05-16 12:44:33.994 -0400,11210.783575875,0.643585205078125,0.3037109375,-0.073760986328125,1,0.96
2020-05-16 12:44:34.064 -0400,11210.853419875,0.41632080078125,0.32318115234375,0.039581298828125,1,0.96
2020-05-16 12:44:34.133 -0400,11210.923268875,0.2658843994140625,0.1869049072265625,0.01312255859375,1,0.96
2020-05-16 12:44:34.203 -0400,11210.993119875,0.3370819091796875,0.2036895751953125,-0.018341064453125,1,0.96
2020-05-16 12:44:34.273 -0400,11211.062970875,0.542572021484375,0.4751129150390625,-0.062713623046875,1,0.96
2020-05-16 12:44:34.343 -0400,11211.132821875,2.183395385742188,1.151199340820312,-0.5611572265625,1,0.96
2020-05-16 12:44:34.413 -0400,11211.202670875,1.2537841796875,0.7216033935546875,-0.815277099609375,1,0.96
2020-05-16 12:44:34.483 -0400,11211.272517875,0.696868896484375,0.443634033203125,-0.5187530517578125,1,0.96
2020-05-16 12:44:34.552 -0400,11211.342362875,0.3808441162109375,0.452239990234375,-0.563201904296875,1,0.96
2020-05-16 12:44:34.622 -0400,11211.412210875,0.39715576171875,0.39727783203125,-0.4941558837890625,1,0.96
2020-05-16 12:44:34.692 -0400,11211.482057875,0.7127685546875,0.340118408203125,-0.309906005859375,1,0.96
2020-05-16 12:44:34.762 -0400,11211.551903875,1.866561889648438,0.5046539306640625,-0.1548919677734375,1,0.96
2020-05-16 12:44:34.832 -0400,11211.62174779167,1.553329467773438,0.5182037353515625,-0.1887664794921875,1,0.96
2020-05-16 12:44:34.902 -0400,11211.69159579167,1.37908935546875,0.4835968017578125,-0.004547119140625,1,0.96
2020-05-16 12:44:34.972 -0400,11211.76144579167,0.8636322021484375,0.533966064453125,-0.0350341796875,1,0.96
2020-05-16 12:44:35.041 -0400,11211.83129379167,0.6988067626953125,0.27227783203125,-0.01934814453125,1,0.96
2020-05-16 12:44:35.111 -0400,11211.90114179167,0.6187286376953125,0.1351470947265625,0.00189208984375,1,0.96
2020-05-16 12:44:35.181 -0400,11211.97098879167,0.4476776123046875,0.166839599609375,0.0035400390625,1,0.96
2020-05-16 12:44:35.251 -0400,11212.04083879167,0.59967041015625,0.310302734375,-0.0435791015625,1,0.96
2020-05-16 12:44:35.321 -0400,11212.11068879167,1.62188720703125,0.64617919921875,-0.263885498046875,1,0.96
2020-05-16 12:44:35.391 -0400,11212.18053479167,1.428848266601562,0.6854705810546875,-0.6297760009765625,1,0.96
2020-05-16 12:44:35.461 -0400,11212.25037879167,1.253097534179688,0.0076751708984375,-0.49700927734375,1,0.96
2020-05-16 12:44:35.530 -0400,11212.32021979167,0.8635101318359375,0.26080322265625,-0.2427215576171875,1,0.96
2020-05-16 12:44:35.600 -0400,11212.39006079167,0.3890838623046875,0.404449462890625,-0.26434326171875,1,0.96
2020-05-16 12:44:35.670 -0400,11212.45990379167,0.3407745361328125,0.50445556640625,-0.2693939208984375,1,0.96
2020-05-16 12:44:35.740 -0400,11212.52974579167,0.7403717041015625,0.425689697265625,-0.266815185546875,1,0.96
2020-05-16 12:44:35.810 -0400,11212.59958925,1.15313720703125,0.32122802734375,-0.22113037109375,1,0.96
2020-05-16 12:44:35.879 -0400,11212.66943225,0.907318115234375,0.403045654296875,-0.3245849609375,1,0.96
2020-05-16 12:44:35.949 -0400,11212.73927825,1.379852294921875,0.5422210693359375,-0.43939208984375,1,0.96
2020-05-16 12:44:36.019 -0400,11212.80912225,1.350555419921875,0.269317626953125,-0.233245849609375,1,0.96
2020-05-16 12:44:36.089 -0400,11212.87896025,1.196029663085938,0.3509521484375,-0.4217681884765625,1,0.96
2020-05-16 12:44:36.159 -0400,11212.94879725,0.9384307861328125,0.380340576171875,-0.1571807861328125,1,0.96
2020-05-16 12:44:36.229 -0400,11213.01863625,0.8489532470703125,0.2403564453125,-0.0990142822265625,1,0.96
2020-05-16 12:44:36.299 -0400,11213.08847525,0.6985321044921875,0.2680206298828125,-0.0664215087890625,1,0.96
2020-05-16 12:44:36.368 -0400,11213.15831425,0.4997711181640625,0.2861785888671875,-0.043609619140625,1,0.96
2020-05-16 12:44:36.438 -0400,11213.22815725,0.4983978271484375,0.281768798828125,-0.03167724609375,1,0.96
2020-05-16 12:44:36.508 -0400,11213.29800025,0.96990966796875,0.2926483154296875,0.05645751953125,1,0.96
2020-05-16 12:44:36.578 -0400,11213.36784425,1.395980834960938,0.563934326171875,0.1206207275390625,1,0.96
2020-05-16 12:44:36.648 -0400,11213.43769025,1.495651245117188,0.88885498046875,-0.5957794189453125,1,0.96
2020-05-16 12:44:36.718 -0400,11213.50753625,0.885467529296875,0.3318939208984375,-0.2049407958984375,1,0.96
2020-05-16 12:44:36.788 -0400,11213.57737925,0.6053924560546875,0.202362060546875,-0.2271575927734375,1,0.96
2020-05-16 12:44:36.857 -0400,11213.647221875,0.47540283203125,0.4178619384765625,-0.2988128662109375,1,0.96
2020-05-16 12:44:36.927 -0400,11213.717059875,0.60430908203125,0.5327606201171875,-0.4755401611328125,1,0.96
2020-05-16 12:44:36.997 -0400,11213.786900875,1.217681884765625,0.48236083984375,-0.4650421142578125,1,0.96
2020-05-16 12:44:37.067 -0400,11213.856739875,1.718856811523438,0.23272705078125,-0.013763427734375,1,0.96
2020-05-16 12:44:37.137 -0400,11213.926581875,1.366683959960938,0.3468475341796875,-0.14019775390625,1,0.96
2020-05-16 12:44:37.206 -0400,11213.996426875,0.987060546875,0.4805908203125,-0.17852783203125,1,0.96
2020-05-16 12:44:37.277 -0400,11214.066269875,0.832916259765625,0.37030029296875,0.00604248046875,1,0.96
2020-05-16 12:44:37.346 -0400,11214.136111875,0.7513580322265625,0.1451568603515625,0.09783935546875,1,0.96
2020-05-16 12:44:37.416 -0400,11214.205954875,0.744781494140625,0.2487335205078125,0.120269775390625,1,0.96
2020-05-16 12:44:37.486 -0400,11214.275795875,0.958831787109375,0.51873779296875,-0.134979248046875,1,0.96
2020-05-16 12:44:37.556 -0400,11214.345635875,1.034698486328125,0.493804931640625,-0.465911865234375,1,0.96
2020-05-16 12:44:37.626 -0400,11214.415475875,0.7711639404296875,0.22210693359375,-0.412841796875,1,0.96
2020-05-16 12:44:37.695 -0400,11214.485309875,0.805877685546875,0.226531982421875,-0.5200653076171875,1,0.96
2020-05-16 12:44:37.765 -0400,11214.555144875,0.647369384765625,0.591094970703125,-0.37322998046875,1,0.96
2020-05-16 12:44:37.835 -0400,11214.624980375,0.7959136962890625,0.4800262451171875,-0.3189697265625,1,0.96
2020-05-16 12:44:37.905 -0400,11214.694820375,1.000900268554688,0.5713958740234375,-0.2620391845703125,1,0.96
2020-05-16 12:44:37.975 -0400,11214.764659375,1.371475219726562,0.4422149658203125,-0.2139129638671875,1,0.96
2020-05-16 12:44:38.045 -0400,11214.834496375,1.2376708984375,0.4165802001953125,-0.212158203125,1,0.96
2020-05-16 12:44:38.114 -0400,11214.904335375,1.2510986328125,0.455413818359375,-0.1944427490234375,1,0.96
2020-05-16 12:44:38.184 -0400,11214.974172375,0.77642822265625,0.225250244140625,-0.136566162109375,1,0.96
2020-05-16 12:44:38.254 -0400,11215.044008375,0.725921630859375,0.266357421875,-0.0698394775390625,1,0.96
2020-05-16 12:44:38.324 -0400,11215.113843375,0.71917724609375,0.2686767578125,-0.0565948486328125,1,0.96
2020-05-16 12:44:38.394 -0400,11215.183678375,0.725006103515625,0.2496490478515625,0.0358734130859375,1,0.96
2020-05-16 12:44:38.464 -0400,11215.253519375,0.6863861083984375,0.33074951171875,-0.0181427001953125,1,0.96
2020-05-16 12:44:38.533 -0400,11215.323358375,1.198348999023438,0.5084381103515625,-0.1408843994140625,1,0.96
2020-05-16 12:44:38.603 -0400,11215.393195375,1.54534912109375,0.5090789794921875,-0.211669921875,1,0.96
2020-05-16 12:44:38.673 -0400,11215.463033375,1.304061889648438,0.6494903564453125,-0.6781005859375,1,0.96
2020-05-16 12:44:38.743 -0400,11215.532872375,0.7899017333984375,0.4810028076171875,-0.50567626953125,1,0.96
2020-05-16 12:44:38.813 -0400,11215.602709,0.4358367919921875,0.5368499755859375,-0.562286376953125,1,0.96
2020-05-16 12:44:38.883 -0400,11215.672547,0.5029449462890625,0.6326751708984375,-0.3993377685546875,1,0.96
2020-05-16 12:44:38.953 -0400,11215.742381,1.266571044921875,0.7027130126953125,-0.47015380859375,1,0.96
2020-05-16 12:44:39.022 -0400,11215.812221,1.185745239257812,0.3359832763671875,-0.1017303466796875,1,0.96
2020-05-16 12:44:39.092 -0400,11215.882062,1.293685913085938,0.3321685791015625,-0.047149658203125,1,0.96
2020-05-16 12:44:39.162 -0400,11215.9519,1.050262451171875,0.412261962890625,-0.0370941162109375,1,0.96
2020-05-16 12:44:39.232 -0400,11216.021735,0.812835693359375,0.3165130615234375,-0.045318603515625,1,0.96
2020-05-16 12:44:39.302 -0400,11216.091574,0.608489990234375,0.2547454833984375,-0.0769195556640625,1,0.96
2020-05-16 12:44:39.372 -0400,11216.161412,0.4466400146484375,0.25927734375,-0.108917236328125,1,0.96
2020-05-16 12:44:39.442 -0400,11216.23125,0.383148193359375,0.331573486328125,-0.141082763671875,1,0.96
2020-05-16 12:44:39.511 -0400,11216.301088,0.6327056884765625,0.5282135009765625,-0.2685699462890625,1,0.96
2020-05-16 12:44:39.581 -0400,11216.370928,1.963043212890625,0.93743896484375,-0.5193023681640625,1,0.96
2020-05-16 12:44:39.651 -0400,11216.440767,1.423721313476562,0.88201904296875,-0.82879638671875,1,0.96
2020-05-16 12:44:39.721 -0400,11216.510608,0.7870635986328125,0.4640045166015625,-0.3021392822265625,1,0.96
2020-05-16 12:44:39.791 -0400,11216.580445,0.4640655517578125,0.408477783203125,-0.2888641357421875,1,0.96
2020-05-16 12:44:39.860 -0400,11216.65028779167,0.287872314453125,0.4027252197265625,-0.1485748291015625,1,0.96
2020-05-16 12:44:39.930 -0400,11216.72013179167,0.50244140625,0.404388427734375,-0.13671875,1,0.96
2020-05-16 12:44:40.000 -0400,11216.78997979167,1.273727416992188,0.4884185791015625,-0.080780029296875,1,0.96
2020-05-16 12:44:40.070 -0400,11216.85982779167,1.37359619140625,0.4346160888671875,-0.0875701904296875,1,0.96
2020-05-16 12:44:40.140 -0400,11216.92967379167,1.391372680664062,0.4137420654296875,-0.1199951171875,1,0.96
2020-05-16 12:44:40.210 -0400,11216.99952679167,1.168365478515625,0.3721923828125,0.0605926513671875,1,0.96
2020-05-16 12:44:40.279 -0400,11217.06937879167,0.563232421875,0.3104400634765625,-0.071533203125,1,0.96
2020-05-16 12:44:40.349 -0400,11217.13922979167,0.405303955078125,0.3096923828125,-0.0209503173828125,1,0.96
2020-05-16 12:44:40.419 -0400,11217.20907479167,0.453948974609375,0.2767486572265625,-0.003936767578125,1,0.96
2020-05-16 12:44:40.489 -0400,11217.27892579167,1.013381958007812,0.4109039306640625,-0.0994873046875,1,0.96
2020-05-16 12:44:40.568 -0400,11217.34385779167,1.71234130859375,0.52313232421875,0.0441436767578125,1,0.96
2020-05-16 12:44:40.619 -0400,11217.40883179167,1.135833740234375,0.75335693359375,-0.57684326171875,1,0.96
2020-05-16 12:44:40.684 -0400,11217.47380679167,0.8348846435546875,0.68060302734375,-0.5187835693359375,1,0.96
2020-05-16 12:44:40.749 -0400,11217.53878079167,1.0704345703125,0.2444610595703125,-0.599151611328125,1,0.96
2020-05-16 12:44:40.814 -0400,11217.60375416667,0.9229736328125,0.3249359130859375,-0.212890625,1,0.96
2020-05-16 12:44:40.879 -0400,11217.66872916667,1.007369995117188,0.3596038818359375,-0.044403076171875,1,0.96
2020-05-16 12:44:40.944 -0400,11217.73370316667,0.73895263671875,0.5697021484375,-0.130126953125,1,0.96
2020-05-16 12:44:41.009 -0400,11217.79867816667,0.620574951171875,0.27734375,-0.1154022216796875,1,0.96
2020-05-16 12:44:41.074 -0400,11217.86365216667,0.574951171875,0.2602386474609375,-0.1336517333984375,1,0.96
2020-05-16 12:44:41.139 -0400,11217.92862716667,0.5331268310546875,0.2753448486328125,-0.18408203125,1,0.96
2020-05-16 12:44:41.204 -0400,11217.99360116667,0.6154022216796875,0.3181304931640625,-0.2545013427734375,1,0.96
2020-05-16 12:44:41.269 -0400,11218.05857616667,0.8247528076171875,0.3858642578125,-0.383392333984375,1,0.96
2020-05-16 12:44:41.334 -0400,11218.12355016667,0.860595703125,0.4387969970703125,-0.4134521484375,1,0.96
2020-05-16 12:44:41.399 -0400,11218.18852516667,0.7636871337890625,0.39483642578125,-0.372528076171875,1,0.96
2020-05-16 12:44:41.464 -0400,11218.25349916667,0.7367095947265625,0.5585784912109375,-0.136749267578125,1,0.96
2020-05-16 12:44:41.529 -0400,11218.31847416667,1.958038330078125,0.975341796875,-0.025299072265625,1,0.96
2020-05-16 12:44:41.594 -0400,11218.38344816667,0.8546295166015625,0.1151275634765625,-0.4883880615234375,1,0.96
2020-05-16 12:44:41.659 -0400,11218.44842316667,1.305511474609375,1.03289794921875,-0.1993255615234375,1,0.96
2020-05-16 12:44:41.724 -0400,11218.51339716667,0.921966552734375,0.4278411865234375,-0.094146728515625,1,0.96
2020-05-16 12:44:41.788 -0400,11218.57837216667,0.9375762939453125,0.1681671142578125,-0.0024261474609375,1,0.96
2020-05-16 12:44:41.854 -0400,11218.64334741667,0.646331787109375,0.260101318359375,-0.1228790283203125,1,0.96
2020-05-16 12:44:41.919 -0400,11218.70832141667,0.4976043701171875,0.4185638427734375,-0.1357421875,1,0.96
2020-05-16 12:44:41.984 -0400,11218.77329641667,0.5394744873046875,0.2938995361328125,-0.07537841796875,1,0.96
2020-05-16 12:44:42.048 -0400,11218.83827041667,0.70379638671875,0.2618560791015625,-0.0774688720703125,1,0.96
2020-05-16 12:44:42.114 -0400,11218.90324541667,1.346954345703125,0.43212890625,-0.01678466796875,1,0.96
2020-05-16 12:44:42.178 -0400,11218.96821941667,1.355453491210938,0.97674560546875,-0.861785888671875,1,0.96
2020-05-16 12:44:42.244 -0400,11219.03319441667,1.744186401367188,-0.1922149658203125,-0.4731903076171875,1,0.96
2020-05-16 12:44:42.308 -0400,11219.09816841667,0.9698486328125,0.2900543212890625,-0.262359619140625,1,0.96
2020-05-16 12:44:42.374 -0400,11219.16314341667,0.64599609375,0.419769287109375,-0.089324951171875,1,0.96
2020-05-16 12:44:42.438 -0400,11219.22811741667,0.388885498046875,0.4630279541015625,-0.0724945068359375,1,0.96
2020-05-16 12:44:42.503 -0400,11219.29309241667,0.301513671875,0.3203277587890625,-0.04571533203125,1,0.96
2020-05-16 12:44:42.568 -0400,11219.35806641667,0.493011474609375,0.454925537109375,-0.0751495361328125,1,0.96
2020-05-16 12:44:42.633 -0400,11219.42304141667,0.719879150390625,0.608245849609375,-0.14453125,1,0.96
2020-05-16 12:44:42.698 -0400,11219.48801641667,2.378814697265625,1.20428466796875,-0.64947509765625,1,0.96
2020-05-16 12:44:42.763 -0400,11219.55299041667,1.579742431640625,0.1271820068359375,0.0344696044921875,1,0.96
2020-05-16 12:44:42.828 -0400,11219.61796525,0.8652496337890625,0.1228179931640625,-0.2603912353515625,1,0.96
2020-05-16 12:44:42.893 -0400,11219.68293925,0.4965057373046875,0.579254150390625,-0.169189453125,1,0.96
2020-05-16 12:44:42.958 -0400,11219.74791425,0.54620361328125,0.35418701171875,-0.1140899658203125,1,0.96
2020-05-16 12:44:43.023 -0400,11219.81288825,0.9264373779296875,0.0723114013671875,0.097625732421875,1,0.96
2020-05-16 12:44:43.088 -0400,11219.87786325,1.27252197265625,0.167266845703125,0.2771148681640625,1,0.96
2020-05-16 12:44:43.153 -0400,11219.94283725,1.125320434570312,0.7863922119140625,-0.1337432861328125,1,0.96
2020-05-16 12:44:43.218 -0400,11220.00781225,1.148941040039062,0.3845672607421875,-0.58685302734375,1,0.96
2020-05-16 12:44:43.283 -0400,11220.07278625,0.7835845947265625,0.5865020751953125,-0.111083984375,1,0.96
2020-05-16 12:44:43.348 -0400,11220.13776125,0.6563568115234375,-0.119720458984375,-0.31451416015625,1,0.96
2020-05-16 12:44:43.413 -0400,11220.20273625,0.729522705078125,0.3529815673828125,-0.4294586181640625,1,0.96
2020-05-16 12:44:43.478 -0400,11220.26771025,0.9559478759765625,0.5567626953125,-0.5011749267578125,1,0.96
2020-05-16 12:44:43.543 -0400,11220.33268525,0.890106201171875,0.5052947998046875,-0.422149658203125,1,0.96
2020-05-16 12:44:43.608 -0400,11220.39765925,1.586868286132812,0.5317230224609375,-0.5471343994140625,1,0.96
2020-05-16 12:44:43.673 -0400,11220.46263425,1.36334228515625,0.288055419921875,-0.040985107421875,1,0.96
2020-05-16 12:44:43.738 -0400,11220.52760825,1.6702880859375,0.2301025390625,-0.0121307373046875,1,0.96
2020-05-16 12:44:43.803 -0400,11220.59258325,1.229568481445312,0.5941619873046875,-0.1580657958984375,1,0.96
2020-05-16 12:44:43.868 -0400,11220.657558,0.8698577880859375,0.3132781982421875,0.0395660400390625,1,0.96
2020-05-16 12:44:43.933 -0400,11220.722533,0.7386627197265625,0.24688720703125,0.0608062744140625,1,0.96
2020-05-16 12:44:43.998 -0400,11220.787508,0.649566650390625,0.11590576171875,0.0322113037109375,1,0.96
2020-05-16 12:44:44.063 -0400,11220.852482,0.7158966064453125,0.1487579345703125,0.0519866943359375,1,0.96
2020-05-16 12:44:44.128 -0400,11220.917457,0.8159027099609375,0.3832855224609375,-0.1652984619140625,1,0.96
2020-05-16 12:44:44.193 -0400,11220.982431,1.236068725585938,0.46875,-0.4072265625,1,0.96
2020-05-16 12:44:44.258 -0400,11221.047406,1.244827270507812,0.3181915283203125,-0.45147705078125,1,0.96
2020-05-16 12:44:44.323 -0400,11221.11238,1.490921020507812,0.435028076171875,-0.7619171142578125,1,0.96
2020-05-16 12:44:44.387 -0400,11221.177355,0.792144775390625,0.6240234375,-0.4456329345703125,1,0.96
2020-05-16 12:44:44.453 -0400,11221.242329,0.55010986328125,0.4017791748046875,-0.3098907470703125,1,0.96
2020-05-16 12:44:44.517 -0400,11221.307304,0.4792633056640625,0.5394439697265625,-0.3331451416015625,1,0.96
2020-05-16 12:44:44.583 -0400,11221.372278,0.6490631103515625,0.48272705078125,-0.29510498046875,1,0.96
2020-05-16 12:44:44.647 -0400,11221.437253,1.08392333984375,0.5349273681640625,-0.2924957275390625,1,0.96
2020-05-16 12:44:44.713 -0400,11221.502228,1.519454956054688,0.3839874267578125,-0.221160888671875,1,0.96
2020-05-16 12:44:44.777 -0400,11221.567202,1.663131713867188,0.3446044921875,-0.140716552734375,1,0.96
2020-05-16 12:44:44.843 -0400,11221.632176875,1.42279052734375,0.508514404296875,-0.2479248046875,1,0.96
2020-05-16 12:44:44.907 -0400,11221.697150875,0.72308349609375,0.28057861328125,-0.1852569580078125,1,0.96
2020-05-16 12:44:44.973 -0400,11221.762125875,0.4825897216796875,0.189727783203125,-0.1255340576171875,1,0.96
2020-05-16 12:44:45.037 -0400,11221.827099875,0.315399169921875,0.124176025390625,-0.0687713623046875,1,0.96
2020-05-16 12:44:45.110 -0400,11221.892074875,0.5477447509765625,0.197113037109375,-0.0324249267578125,1,0.95
2020-05-16 12:44:45.167 -0400,11221.957048875,1.431625366210938,0.4159698486328125,0.0880279541015625,1,0.95
2020-05-16 12:44:45.232 -0400,11222.022023875,1.617172241210938,0.9185943603515625,-0.44329833984375,1,0.95
2020-05-16 12:44:45.297 -0400,11222.086998875,1.598297119140625,0.64422607421875,-0.5413360595703125,1,0.95
2020-05-16 12:44:45.362 -0400,11222.151972875,0.85272216796875,0.20147705078125,-0.1885833740234375,1,0.95
2020-05-16 12:44:45.427 -0400,11222.216947875,0.5779876708984375,0.1795196533203125,-0.2212982177734375,1,0.95
2020-05-16 12:44:45.492 -0400,11222.281921875,0.4818115234375,0.542633056640625,-0.2624359130859375,1,0.95
2020-05-16 12:44:45.557 -0400,11222.346896875,0.5948638916015625,0.59271240234375,-0.347503662109375,1,0.95
2020-05-16 12:44:45.622 -0400,11222.411870875,1.026702880859375,0.5416412353515625,-0.2965240478515625,1,0.95
2020-05-16 12:44:45.687 -0400,11222.476845875,1.475479125976562,0.3848876953125,-0.204376220703125,1,0.95
2020-05-16 12:44:45.752 -0400,11222.541819875,1.118377685546875,0.37677001953125,-0.20281982421875,1,0.95
2020-05-16 12:44:45.817 -0400,11222.60679475,1.256072998046875,0.441253662109375,-0.199188232421875,1,0.95
2020-05-16 12:44:45.882 -0400,11222.67176975,1.03570556640625,0.4062652587890625,-0.15264892578125,1,0.95
2020-05-16 12:44:45.947 -0400,11222.73674375,0.681549072265625,0.263580322265625,-0.093719482421875,1,0.95
2020-05-16 12:44:46.012 -0400,11222.80171875,0.5021209716796875,0.2734375,-0.06829833984375,1,0.95
2020-05-16 12:44:46.077 -0400,11222.86669275,0.448394775390625,0.26123046875,-0.06561279296875,1,0.95
2020-05-16 12:44:46.142 -0400,11222.93166775,0.60430908203125,0.2889862060546875,-0.01416015625,1,0.95
2020-05-16 12:44:46.207 -0400,11222.99664175,0.8918609619140625,0.3860931396484375,0.0234222412109375,1,0.95
2020-05-16 12:44:46.272 -0400,11223.06161675,1.426055908203125,0.6036529541015625,-0.049652099609375,1,0.95
2020-05-16 12:44:46.337 -0400,11223.12659075,1.387588500976562,0.8836212158203125,-0.330963134765625,1,0.95
2020-05-16 12:44:46.402 -0400,11223.19156575,1.411392211914062,0.2382354736328125,-0.4607696533203125,1,0.95
2020-05-16 12:44:46.467 -0400,11223.25654075,0.8657073974609375,0.280029296875,-0.3480224609375,1,0.95
2020-05-16 12:44:46.532 -0400,11223.32151475,0.4254150390625,0.3654022216796875,-0.264984130859375,1,0.95
2020-05-16 12:44:46.597 -0400,11223.38648975,0.2286529541015625,0.4059906005859375,-0.256988525390625,1,0.95
2020-05-16 12:44:46.663 -0400,11223.45146375,0.2759552001953125,0.312744140625,-0.1988067626953125,1,0.95
2020-05-16 12:44:46.728 -0400,11223.51643875,0.77606201171875,0.4362030029296875,-0.3350067138671875,1,0.95
2020-05-16 12:44:46.792 -0400,11223.58141275,1.190338134765625,0.53619384765625,-0.1356353759765625,1,0.95
2020-05-16 12:44:46.857 -0400,11223.64638725,1.672195434570312,0.520751953125,-0.3777313232421875,1,0.95
2020-05-16 12:44:46.922 -0400,11223.71136125,1.04046630859375,0.3809661865234375,-0.1059722900390625,1,0.95
2020-05-16 12:44:46.986 -0400,11223.77633625,1.744552612304688,0.41033935546875,-0.2468109130859375,1,0.95
2020-05-16 12:44:47.052 -0400,11223.84131125,0.892242431640625,0.3637237548828125,-0.416717529296875,1,0.95
2020-05-16 12:44:47.116 -0400,11223.90628525,0.7685089111328125,0.2213134765625,-0.3070220947265625,1,0.95
2020-05-16 12:44:47.182 -0400,11223.97126025,0.5570220947265625,0.1810760498046875,-0.1607208251953125,1,0.95
2020-05-16 12:44:47.248 -0400,11224.03623425,0.4367523193359375,0.2142181396484375,-0.13616943359375,1,0.95
2020-05-16 12:44:47.312 -0400,11224.10120925,0.3791046142578125,0.155364990234375,0.0584869384765625,1,0.95
2020-05-16 12:44:47.376 -0400,11224.16618325,0.472808837890625,0.214202880859375,0.2172088623046875,1,0.95
2020-05-16 12:44:47.442 -0400,11224.23115825,2.217880249023438,0.6420440673828125,0.666656494140625,1,0.95
2020-05-16 12:44:47.506 -0400,11224.29613225,1.549346923828125,1.726425170898438,-1.240371704101562,1,0.95
2020-05-16 12:44:47.572 -0400,11224.36110725,1.112213134765625,0.5175628662109375,0.3519287109375,1,0.95
2020-05-16 12:44:47.636 -0400,11224.42608225,0.856597900390625,-0.0773162841796875,-0.2782440185546875,1,0.95
2020-05-16 12:44:47.701 -0400,11224.49105625,0.2969512939453125,0.1788482666015625,-0.398681640625,1,0.95
2020-05-16 12:44:47.766 -0400,11224.55603125,0.3625335693359375,0.6286773681640625,-0.57196044921875,1,0.95
2020-05-16 12:44:47.831 -0400,11224.62100516667,0.7646026611328125,0.290618896484375,-0.4401702880859375,1,0.95
2020-05-16 12:44:47.896 -0400,11224.68598016667,1.1827392578125,0.2365264892578125,-0.3248138427734375,1,0.95
2020-05-16 12:44:47.961 -0400,11224.75095416667,1.365524291992188,0.409912109375,-0.17523193359375,1,0.95
2020-05-16 12:44:48.026 -0400,11224.81592916667,1.737991333007812,0.6824951171875,-0.111297607421875,1,0.95
2020-05-16 12:44:48.091 -0400,11224.88090316667,1.540359497070312,0.4140625,-0.1254119873046875,1,0.95
2020-05-16 12:44:48.156 -0400,11224.94587816667,0.8467864990234375,0.4141693115234375,-0.1306915283203125,1,0.95
2020-05-16 12:44:48.222 -0400,11225.01085316667,0.6499481201171875,0.3993682861328125,-0.001800537109375,1,0.95
2020-05-16 12:44:48.286 -0400,11225.07582716667,0.714019775390625,0.20452880859375,0.0212860107421875,1,0.95
2020-05-16 12:44:48.351 -0400,11225.14080216667,0.6893157958984375,0.11932373046875,0.0766448974609375,1,0.95
2020-05-16 12:44:48.416 -0400,11225.20577616667,0.5557403564453125,0.1798553466796875,0.1284637451171875,1,0.95
2020-05-16 12:44:48.481 -0400,11225.27075116667,0.9970703125,0.3972015380859375,0.1665191650390625,1,0.95
2020-05-16 12:44:48.546 -0400,11225.33572516667,1.113616943359375,0.8590087890625,-0.6601715087890625,1,0.95
2020-05-16 12:44:48.611 -0400,11225.40070016667,1.622528076171875,0.684417724609375,-0.789825439453125,1,0.95
2020-05-16 12:44:48.676 -0400,11225.46567516667,1.008865356445312,0.0918731689453125,-0.7639007568359375,1,0.95
2020-05-16 12:44:48.741 -0400,11225.53064916667,0.56683349609375,0.58599853515625,-0.5044403076171875,1,0.95
2020-05-16 12:44:48.806 -0400,11225.59562416667,0.40655517578125,0.354278564453125,-0.300537109375,1,0.95
2020-05-16 12:44:48.871 -0400,11225.660598625,0.4596099853515625,0.621307373046875,-0.21612548828125,1,0.95
2020-05-16 12:44:48.936 -0400,11225.725573625,0.682708740234375,0.7059783935546875,-0.226593017578125,1,0.95
2020-05-16 12:44:49.001 -0400,11225.790547625,2.579299926757812,1.143096923828125,-0.5113677978515625,1,0.95
2020-05-16 12:44:49.066 -0400,11225.855522625,1.739349365234375,0.3209686279296875,-0.15069580078125,1,0.95
2020-05-16 12:44:49.131 -0400,11225.920496625,1.359222412109375,0.605712890625,-0.296478271484375,1,0.95
2020-05-16 12:44:49.196 -0400,11225.985471625,0.7828521728515625,0.3439178466796875,-0.25091552734375,1,0.95
2020-05-16 12:44:49.261 -0400,11226.050446625,0.52374267578125,0.213134765625,-0.150299072265625,1,0.95
2020-05-16 12:44:49.326 -0400,11226.115420625,0.3762969970703125,0.095001220703125,-0.0962677001953125,1,0.95
2020-05-16 12:44:49.393 -0400,11226.180395625,0.48260498046875,0.1605377197265625,-0.0314788818359375,1,0.95
2020-05-16 12:44:49.456 -0400,11226.245369625,0.481231689453125,0.19195556640625,0.0326690673828125,1,0.95
2020-05-16 12:44:49.521 -0400,11226.310344625,1.875213623046875,0.56268310546875,0.1257476806640625,1,0.95
2020-05-16 12:44:49.585 -0400,11226.375318625,1.849014282226562,1.16802978515625,-0.9217529296875,1,0.95
2020-05-16 12:44:49.651 -0400,11226.440293625,1.169708251953125,0.6295166015625,-0.046051025390625,1,0.95
2020-05-16 12:44:49.715 -0400,11226.505268625,0.8180999755859375,0.0762786865234375,-0.0944671630859375,1,0.95
2020-05-16 12:44:49.781 -0400,11226.570242625,0.61041259765625,0.2574005126953125,-0.399139404296875,1,0.95
2020-05-16 12:44:49.846 -0400,11226.63521775,0.556610107421875,0.5417327880859375,-0.6539154052734375,1,0.95
2020-05-16 12:44:49.911 -0400,11226.70019175,0.6291961669921875,0.4488983154296875,-0.61212158203125,1,0.95
2020-05-16 12:44:49.975 -0400,11226.76516675,1.107330322265625,0.165191650390625,-0.435791015625,1,0.95
2020-05-16 12:44:50.040 -0400,11226.83014075,1.549880981445312,0.0058441162109375,-0.17108154296875,1,0.95
2020-05-16 12:44:50.105 -0400,11226.89511575,1.573272705078125,0.5534515380859375,-0.189422607421875,1,0.95
2020-05-16 12:44:50.170 -0400,11226.96009075,1.8011474609375,0.731903076171875,-0.268951416015625,1,0.95
2020-05-16 12:44:50.236 -0400,11227.02506475,0.960540771484375,0.4194488525390625,-0.119232177734375,1,0.95
2020-05-16 12:44:50.301 -0400,11227.09003975,0.72412109375,0.1966400146484375,0.062408447265625,1,0.95
2020-05-16 12:44:50.368 -0400,11227.15501375,0.4473876953125,0.05474853515625,0.109375,1,0.95
2020-05-16 12:44:50.430 -0400,11227.21998875,0.28558349609375,0.031097412109375,0.0662384033203125,1,0.95
2020-05-16 12:44:50.495 -0400,11227.28496275,0.4105224609375,0.04339599609375,0.0917816162109375,1,0.95
2020-05-16 12:44:50.560 -0400,11227.34993775,1.130203247070312,0.5904083251953125,0.3990478515625,1,0.95
2020-05-16 12:44:50.625 -0400,11227.41491275,1.988876342773438,1.184844970703125,-0.984619140625,1,0.95
2020-05-16 12:44:50.690 -0400,11227.47988675,1.52801513671875,0.674041748046875,-0.2755279541015625,1,0.95
2020-05-16 12:44:50.755 -0400,11227.54486175,0.83624267578125,0.3656768798828125,-0.2335357666015625,1,0.95
2020-05-16 12:44:50.820 -0400,11227.60983575,0.63629150390625,0.154571533203125,-0.2902679443359375,1,0.95
2020-05-16 12:44:50.885 -0400,11227.674810125,0.479949951171875,0.56524658203125,-0.286468505859375,1,0.95
2020-05-16 12:44:50.950 -0400,11227.739784125,0.6601104736328125,0.8712921142578125,-0.2537841796875,1,0.95
2020-05-16 12:44:51.015 -0400,11227.804759125,1.094100952148438,0.99114990234375,-0.1460723876953125,1,0.95
2020-05-16 12:44:51.080 -0400,11227.869733125,1.903823852539062,0.5845947265625,-0.0397186279296875,1,0.95
2020-05-16 12:44:51.145 -0400,11227.934708125,1.819183349609375,0.4758453369140625,-0.6687469482421875,1,0.95
2020-05-16 12:44:51.210 -0400,11227.999683125,1.929794311523438,0.716583251953125,-0.3393096923828125,1,0.95
2020-05-16 12:44:51.275 -0400,11228.064657125,1.183120727539062,0.0183258056640625,-0.22198486328125,1,0.95
2020-05-16 12:44:51.341 -0400,11228.129632125,0.7115936279296875,-0.2157440185546875,-0.0951080322265625,1,0.95
2020-05-16 12:44:51.405 -0400,11228.194606125,0.5060882568359375,-0.0949554443359375,-0.0701904296875,1,0.95
2020-05-16 12:44:51.470 -0400,11228.259581125,0.257110595703125,-0.1102294921875,0.1256256103515625,1,0.95
2020-05-16 12:44:51.535 -0400,11228.324555125,0.0942230224609375,0.172210693359375,0.3287353515625,1,0.95
2020-05-16 12:44:51.600 -0400,11228.389530125,1.087005615234375,1.968490600585938,0.2281036376953125,1,0.95
2020-05-16 12:44:51.665 -0400,11228.454505125,1.377960205078125,1.252975463867188,-0.6568603515625,1,0.95
2020-05-16 12:44:51.730 -0400,11228.519479125,0.87762451171875,0.3995819091796875,-0.5639495849609375,1,0.95
2020-05-16 12:44:51.795 -0400,11228.584454125,0.599578857421875,0.21893310546875,-0.54071044921875,1,0.95
2020-05-16 12:44:51.860 -0400,11228.64942875,0.38543701171875,0.5591278076171875,-0.3524322509765625,1,0.95
2020-05-16 12:44:51.925 -0400,11228.71440375,0.69537353515625,1.111358642578125,-0.685394287109375,1,0.95
2020-05-16 12:44:51.990 -0400,11228.77937775,1.312393188476562,0.805908203125,-0.7470703125,1,0.95
2020-05-16 12:44:52.054 -0400,11228.84435275,2.074615478515625,0.169647216796875,-0.0247955322265625,1,0.95
2020-05-16 12:44:52.120 -0400,11228.90932775,1.813644409179688,0.1378173828125,-0.255889892578125,1,0.95
2020-05-16 12:44:52.184 -0400,11228.97430175,1.22698974609375,0.6865386962890625,-0.2597503662109375,1,0.95
2020-05-16 12:44:52.250 -0400,11229.03927675,0.67718505859375,0.3013916015625,-0.08319091796875,1,0.95
2020-05-16 12:44:52.314 -0400,11229.10425075,0.43292236328125,0.0073699951171875,0.04278564453125,1,0.95
2020-05-16 12:44:52.380 -0400,11229.16922575,0.17742919921875,-0.125946044921875,0.059173583984375,1,0.95
2020-05-16 12:44:52.445 -0400,11229.23419975,0.063751220703125,-0.144012451171875,0.1498565673828125,1,0.95
2020-05-16 12:44:52.510 -0400,11229.29917475,1.141616821289062,0.59814453125,0.22265625,1,0.95
2020-05-16 12:44:52.574 -0400,11229.36414975,1.648117065429688,1.131332397460938,-1.179443359375,1,0.95
2020-05-16 12:44:52.640 -0400,11229.42912375,1.169647216796875,0.451568603515625,-0.089080810546875,1,0.95
2020-05-16 12:44:52.704 -0400,11229.49409875,1.444915771484375,0.2733154296875,-0.544281005859375,1,0.95
2020-05-16 12:44:52.769 -0400,11229.55907275,0.787384033203125,0.531463623046875,-0.5330352783203125,1,0.95
2020-05-16 12:44:52.834 -0400,11229.624047375,0.4323272705078125,0.67071533203125,-0.5137939453125,1,0.95
2020-05-16 12:44:52.899 -0400,11229.689021375,0.3426361083984375,0.689910888671875,-0.35693359375,1,0.95
2020-05-16 12:44:52.964 -0400,11229.753996375,2.59625244140625,1.5201416015625,-0.6888580322265625,1,0.95
2020-05-16 12:44:53.029 -0400,11229.818971375,1.982666015625,-0.0334930419921875,-0.1407623291015625,1,0.95
2020-05-16 12:44:53.094 -0400,11229.883945375,1.48187255859375,0.16619873046875,-0.1334381103515625,1,0.95
2020-05-16 12:44:53.159 -0400,11229.948920375,1.123382568359375,0.76519775390625,-0.1873626708984375,1,0.95
2020-05-16 12:44:53.224 -0400,11230.013894375,0.82769775390625,0.409637451171875,-0.021759033203125,1,0.95
2020-05-16 12:44:53.289 -0400,11230.078869375,0.6003875732421875,0.2612457275390625,-0.0623626708984375,1,0.95
2020-05-16 12:44:53.354 -0400,11230.143843375,0.77099609375,0.5088958740234375,-0.22735595703125,1,0.95
2020-05-16 12:44:53.419 -0400,11230.208818375,0.861328125,0.478607177734375,-0.3258056640625,1,0.95
2020-05-16 12:44:53.484 -0400,11230.273793375,0.55609130859375,0.423797607421875,-0.3407745361328125,1,0.95
2020-05-16 12:44:53.549 -0400,11230.338767375,0.4644622802734375,0.6580810546875,-0.6447296142578125,1,0.95
2020-05-16 12:44:53.614 -0400,11230.403742375,0.48382568359375,0.4190521240234375,-0.5943145751953125,1,0.95
2020-05-16 12:44:53.679 -0400,11230.468716375,0.5539398193359375,0.2548828125,-0.5190887451171875,1,0.95
2020-05-16 12:44:53.744 -0400,11230.533691375,0.847930908203125,0.2404327392578125,-0.634552001953125,1,0.95
2020-05-16 12:44:53.809 -0400,11230.598666375,0.795623779296875,0.2551116943359375,-0.706573486328125,1,0.95
2020-05-16 12:44:53.874 -0400,11230.66364029167,0.7048797607421875,0.2957305908203125,-0.582366943359375,1,0.95
2020-05-16 12:44:53.939 -0400,11230.72861529167,0.678497314453125,0.3646392822265625,-0.4048614501953125,1,0.95
2020-05-16 12:44:54.004 -0400,11230.79358929167,0.6588134765625,0.4152374267578125,-0.322967529296875,1,0.95
2020-05-16 12:44:54.069 -0400,11230.85856429167,0.59521484375,0.3135223388671875,-0.31500244140625,1,0.95
2020-05-16 12:44:54.134 -0400,11230.92353829167,0.64166259765625,0.2108917236328125,-0.377838134765625,1,0.95
2020-05-16 12:44:54.199 -0400,11230.98851329167,0.715576171875,0.2926177978515625,-0.463653564453125,1,0.95
2020-05-16 12:44:54.268 -0400,11231.05348829167,0.836334228515625,0.31610107421875,-0.4744720458984375,1,0.95
2020-05-16 12:44:54.329 -0400,11231.11846229167,0.7125244140625,-0.2664337158203125,-0.6003875732421875,1,0.95
2020-05-16 12:44:54.394 -0400,11231.18343729167,0.3720245361328125,0.02197265625,-0.353118896484375,1,0.95
2020-05-16 12:44:54.459 -0400,11231.24841129167,3.820068359375,2.236434936523438,-1.357528686523438,1,0.95
2020-05-16 12:44:54.524 -0400,11231.31338629167,1.86517333984375,0.2851715087890625,-0.3033294677734375,1,0.95
2020-05-16 12:44:54.589 -0400,11231.37836029167,1.247283935546875,0.7722015380859375,-0.1671142578125,1,0.95
2020-05-16 12:44:54.654 -0400,11231.44333529167,0.474639892578125,0.38055419921875,-0.2619781494140625,1,0.95
2020-05-16 12:44:54.719 -0400,11231.50831029167,0.1840972900390625,0.11614990234375,-0.194091796875,1,0.95
2020-05-16 12:44:54.783 -0400,11231.57328429167,0.2222747802734375,0.1440582275390625,-0.156494140625,1,0.95
2020-05-16 12:44:54.849 -0400,11231.638259125,0.71636962890625,0.15716552734375,-0.0762176513671875,1,0.95
2020-05-16 12:44:54.913 -0400,11231.703233125,1.316360473632812,0.4780731201171875,0.1089935302734375,1,0.95
2020-05-16 12:44:54.979 -0400,11231.768208125,1.738998413085938,0.9215545654296875,-0.39337158203125,1,0.95
2020-05-16 12:44:55.043 -0400,11231.833182125,1.057113647460938,0.285369873046875,-0.7104339599609375,1,0.95
2020-05-16 12:44:55.109 -0400,11231.898157125,1.198959350585938,0.513092041015625,-0.045654296875,1,0.95
2020-05-16 12:44:55.173 -0400,11231.963132125,0.666717529296875,0.1328125,-0.1196136474609375,1,0.95
2020-05-16 12:44:55.238 -0400,11232.028106125,0.4583587646484375,0.376983642578125,-0.2014007568359375,1,0.95
2020-05-16 12:44:55.303 -0400,11232.093081125,0.7146453857421875,0.4902801513671875,-0.3214111328125,1,0.95
2020-05-16 12:44:55.368 -0400,11232.158055125,0.8629913330078125,0.64068603515625,-0.2089691162109375,1,0.95
2020-05-16 12:44:55.433 -0400,11232.223030125,1.071792602539062,0.613037109375,-0.5055084228515625,1,0.95
2020-05-16 12:44:55.498 -0400,11232.288004125,0.9014129638671875,0.5908355712890625,-0.6252593994140625,1,0.95
2020-05-16 12:44:55.563 -0400,11232.352979125,0.8624420166015625,0.392608642578125,-0.51788330078125,1,0.95
2020-05-16 12:44:55.628 -0400,11232.417953125,1.05816650390625,0.5193328857421875,-0.664520263671875,1,0.95
2020-05-16 12:44:55.693 -0400,11232.482928125,0.9216461181640625,0.5024566650390625,-0.708404541015625,1,0.95
2020-05-16 12:44:55.758 -0400,11232.547903125,0.649200439453125,0.3519744873046875,-0.5600738525390625,1,0.95
2020-05-16 12:44:55.823 -0400,11232.612877125,0.570587158203125,0.3472900390625,-0.5872039794921875,1,0.95
2020-05-16 12:44:55.888 -0400,11232.67785279167,0.5556793212890625,0.3264617919921875,-0.6280517578125,1,0.95
2020-05-16 12:44:55.953 -0400,11232.74282679167,0.45343017578125,0.2438201904296875,-0.6688690185546875,1,0.95
2020-05-16 12:44:56.018 -0400,11232.80780179167,0.373443603515625,0.1962890625,-0.72674560546875,1,0.95
2020-05-16 12:44:56.083 -0400,11232.87277679167,0.2844085693359375,0.1457366943359375,-0.789306640625,1,0.95
2020-05-16 12:44:56.148 -0400,11232.93775079167,0.2745361328125,0.113800048828125,-0.834686279296875,1,0.95
2020-05-16 12:44:56.213 -0400,11233.00272579167,0.2014617919921875,0.1348876953125,-0.8899688720703125,1,0.95
2020-05-16 12:44:56.278 -0400,11233.06769979167,0.204498291015625,0.19085693359375,-1.001739501953125,1,0.95
2020-05-16 12:44:56.346 -0400,11233.13267479167,0.373046875,0.2205963134765625,-1.108428955078125,1,0.95
2020-05-16 12:44:56.418 -0400,11233.20764579167,0.3212890625,0.2374267578125,-1.062759399414062,1,0.95
2020-05-16 12:44:56.488 -0400,11233.27761779167,0.396514892578125,0.2529449462890625,-1.107452392578125,1,0.95
2020-05-16 12:44:56.558 -0400,11233.34759079167,0.2404632568359375,0.0371246337890625,-1.020767211914062,1,0.95
2020-05-16 12:44:56.628 -0400,11233.41756279167,0.1797332763671875,-0.198394775390625,-0.86627197265625,1,0.95
2020-05-16 12:44:56.698 -0400,11233.48753579167,0.1185302734375,-0.2024078369140625,-0.7972869873046875,1,0.95
2020-05-16 12:44:56.768 -0400,11233.55750879167,0.0542755126953125,-0.06268310546875,-0.8554229736328125,1,0.95
2020-05-16 12:44:56.839 -0400,11233.627479125,0.3400421142578125,0.228179931640625,-1.142623901367188,1,0.95
2020-05-16 12:44:56.908 -0400,11233.697452125,0.19952392578125,0.3892822265625,-1.087646484375,1,0.95
2020-05-16 12:44:56.978 -0400,11233.767425125,0.1400909423828125,0.279052734375,-0.804901123046875,1,0.95
2020-05-16 12:44:57.048 -0400,11233.837397125,0.2418365478515625,0.2352752685546875,-0.5871429443359375,1,0.95
2020-05-16 12:44:57.118 -0400,11233.907370125,0.3086395263671875,0.3097686767578125,-0.5511322021484375,1,0.95
2020-05-16 12:44:57.188 -0400,11233.977342125,0.3733978271484375,0.32952880859375,-0.5811614990234375,1,0.95
2020-05-16 12:44:57.258 -0400,11234.047315125,0.6304168701171875,0.3123321533203125,-0.6534576416015625,1,0.95
2020-05-16 12:44:57.328 -0400,11234.117288125,0.8485565185546875,0.266571044921875,-0.6905517578125,1,0.95
2020-05-16 12:44:57.398 -0400,11234.187260125,1.109298706054688,0.3929443359375,-0.537261962890625,1,0.95
2020-05-16 12:44:57.468 -0400,11234.257233125,1.36993408203125,0.5468292236328125,-0.8337554931640625,1,0.95
2020-05-16 12:44:57.538 -0400,11234.327206125,0.9263153076171875,0.454620361328125,-0.5969085693359375,1,0.95
2020-05-16 12:44:57.608 -0400,11234.397178125,0.6264801025390625,0.3680267333984375,-0.4128265380859375,1,0.95
2020-05-16 12:44:57.678 -0400,11234.467151125,0.4005279541015625,0.37646484375,-0.3943023681640625,1,0.95
2020-05-16 12:44:57.747 -0400,11234.537123125,0.3845062255859375,0.3011016845703125,-0.3198394775390625,1,0.95
2020-05-16 12:44:57.817 -0400,11234.607096125,0.5232086181640625,0.458770751953125,-0.4535980224609375,1,0.95
2020-05-16 12:44:57.884 -0400,11234.67207291667,0.902740478515625,0.3452911376953125,-0.02801513671875,1,0.95
2020-05-16 12:44:57.948 -0400,11234.73704691667,1.786026000976562,0.51300048828125,0.3965301513671875,1,0.95
2020-05-16 12:44:58.012 -0400,11234.80202191667,1.691513061523438,0.5298309326171875,-0.632659912109375,1,0.95
2020-05-16 12:44:58.077 -0400,11234.86699591667,1.004776000976562,0.6056060791015625,-0.073455810546875,1,0.95
2020-05-16 12:44:58.142 -0400,11234.93197091667,0.6113433837890625,0.1927490234375,-0.0087738037109375,1,0.95
2020-05-16 12:44:58.207 -0400,11234.99694491667,0.3712158203125,0.114837646484375,-0.0312652587890625,1,0.95
2020-05-16 12:44:58.272 -0400,11235.06191991667,0.1934814453125,0.1292877197265625,0.05810546875,1,0.95
2020-05-16 12:44:58.337 -0400,11235.12689491667,0.330841064453125,0.2630767822265625,0.048675537109375,1,0.95
2020-05-16 12:44:58.402 -0400,11235.19186891667,1.155731201171875,0.330169677734375,0.055816650390625,1,0.95
2020-05-16 12:44:58.467 -0400,11235.25684391667,1.888778686523438,0.9156341552734375,-0.1537933349609375,1,0.95
2020-05-16 12:44:58.532 -0400,11235.32181791667,1.442657470703125,0.4918212890625,-0.6612701416015625,1,0.95
2020-05-16 12:44:58.597 -0400,11235.38679291667,1.1319580078125,0.7243194580078125,-0.065765380859375,1,0.95
2020-05-16 12:44:58.662 -0400,11235.45176791667,0.7399749755859375,0.2874755859375,-0.4310760498046875,1,0.95
2020-05-16 12:44:58.728 -0400,11235.51674191667,0.5256805419921875,0.4763946533203125,-0.58001708984375,1,0.95
2020-05-16 12:44:58.792 -0400,11235.58171691667,0.4344024658203125,0.4347381591796875,-0.621337890625,1,0.95
2020-05-16 12:44:58.857 -0400,11235.64669079167,0.4989776611328125,0.32720947265625,-0.55267333984375,1,0.95
2020-05-16 12:44:58.922 -0400,11235.71166579167,1.016632080078125,0.73712158203125,-0.34075927734375,1,0.95
2020-05-16 12:44:58.987 -0400,11235.77664079167,4.170852661132812,-0.2286224365234375,-0.3585052490234375,1,0.95
2020-05-16 12:44:59.052 -0400,11235.84161479167,2.238494873046875,0.88177490234375,-0.525054931640625,1,0.95
2020-05-16 12:44:59.117 -0400,11235.90658979167,1.609298706054688,0.42279052734375,-0.174957275390625,1,0.95
2020-05-16 12:44:59.182 -0400,11235.97156379167,0.6908721923828125,0.3868408203125,0.142425537109375,1,0.95
2020-05-16 12:44:59.248 -0400,11236.03653879167,0.3620452880859375,0.086517333984375,-0.035003662109375,1,0.95
2020-05-16 12:44:59.312 -0400,11236.10151379167,0.16522216796875,-0.0554046630859375,0.066009521484375,1,0.95
2020-05-16 12:44:59.377 -0400,11236.16648779167,0.2185516357421875,0.028472900390625,0.118499755859375,1,0.95
2020-05-16 12:44:59.442 -0400,11236.23146279167,0.213958740234375,0.3467559814453125,0.0143890380859375,1,0.95
2020-05-16 12:44:59.507 -0400,11236.29643679167,1.050384521484375,0.8824310302734375,-0.308990478515625,1,0.95
2020-05-16 12:44:59.572 -0400,11236.36141179167,1.2796630859375,0.9287567138671875,-1.030166625976562,1,0.95
2020-05-16 12:44:59.637 -0400,11236.42638679167,1.592269897460938,0.78515625,-0.5606689453125,1,0.95
2020-05-16 12:44:59.702 -0400,11236.49136079167,1.271102905273438,0.654449462890625,-0.675689697265625,1,0.95
2020-05-16 12:44:59.767 -0400,11236.55633579167,0.8550262451171875,0.770751953125,-0.5164642333984375,1,0.95
2020-05-16 12:44:59.831 -0400,11236.621309625,0.6450958251953125,0.4928131103515625,-0.4039306640625,1,0.95
2020-05-16 12:44:59.897 -0400,11236.686284625,0.600982666015625,0.407684326171875,-0.4483642578125,1,0.95
2020-05-16 12:44:59.962 -0400,11236.751259625,0.49810791015625,0.346588134765625,-0.477294921875,1,0.95
2020-05-16 12:45:00.027 -0400,11236.816233625,0.747161865234375,0.2177581787109375,-0.3355865478515625,1,0.95
2020-05-16 12:45:00.091 -0400,11236.881208625,1.838394165039062,0.586273193359375,0.4747161865234375,1,0.95
2020-05-16 12:45:00.157 -0400,11236.946183625,1.30267333984375,0.385589599609375,-0.645294189453125,1,0.95
2020-05-16 12:45:00.221 -0400,11237.011157625,0.72406005859375,0.481353759765625,-0.0806427001953125,1,0.95
2020-05-16 12:45:00.286 -0400,11237.076132625,0.50006103515625,-0.0324249267578125,0.336822509765625,1,0.95
2020-05-16 12:45:00.351 -0400,11237.141106625,0.324371337890625,-0.230316162109375,0.466796875,1,0.95
2020-05-16 12:45:00.416 -0400,11237.206081625,0.4342803955078125,-0.025299072265625,-0.067535400390625,1,0.95
2020-05-16 12:45:00.481 -0400,11237.271056625,1.585052490234375,3.790664672851562,-0.999664306640625,1,0.95
2020-05-16 12:45:00.546 -0400,11237.336030625,0.3504180908203125,3.304702758789062,-1.772705078125,1,0.95
2020-05-16 12:45:00.611 -0400,11237.401005625,-0.3115692138671875,1.134475708007812,-0.304473876953125,1,0.95
2020-05-16 12:45:00.676 -0400,11237.465979625,-0.214569091796875,0.2740631103515625,-0.1988983154296875,1,0.95
2020-05-16 12:45:00.741 -0400,11237.530954625,-0.1327056884765625,0.1905670166015625,-0.143035888671875,1,0.95
2020-05-16 12:45:00.806 -0400,11237.595929625,-0.1764984130859375,0.1108856201171875,-0.1097869873046875,1,0.95
2020-05-16 12:45:00.871 -0400,11237.660903125,-0.012359619140625,1.222763061523438,-0.1267242431640625,1,0.95
2020-05-16 12:45:00.936 -0400,11237.725878125,1.8736572265625,1.996627807617188,-0.9498748779296875,1,0.95
2020-05-16 12:45:01.002 -0400,11237.790852125,0.6143341064453125,1.492263793945312,-0.4853973388671875,1,0.95
2020-05-16 12:45:01.066 -0400,11237.855827125,0.43109130859375,0.6575469970703125,-0.5586090087890625,1,0.95
2020-05-16 12:45:01.131 -0400,11237.920802125,0.162353515625,0.407989501953125,-0.0767974853515625,1,0.95
2020-05-16 12:45:01.196 -0400,11237.985776125,0.1005096435546875,0.072357177734375,-0.0242156982421875,1,0.95
2020-05-16 12:45:01.261 -0400,11238.050751125,0.1343231201171875,0.118560791015625,-0.072906494140625,1,0.95
2020-05-16 12:45:01.326 -0400,11238.115726125,0.214813232421875,0.16326904296875,0.13580322265625,1,0.95
2020-05-16 12:45:01.391 -0400,11238.180700125,0.7047576904296875,2.064376831054688,0.0523223876953125,1,0.95
2020-05-16 12:45:01.456 -0400,11238.245675125,1.068435668945312,0.9116973876953125,-0.6934051513671875,1,0.95
2020-05-16 12:45:01.521 -0400,11238.310649125,1.209518432617188,1.124435424804688,-0.45245361328125,1,0.95
2020-05-16 12:45:01.586 -0400,11238.375624125,0.9189453125,1.03375244140625,-0.292572021484375,1,0.95
2020-05-16 12:45:01.651 -0400,11238.440599125,0.4552764892578125,0.5706024169921875,-0.1799163818359375,1,0.95
2020-05-16 12:45:01.716 -0400,11238.505573125,0.2924346923828125,0.5946807861328125,-0.22625732421875,1,0.95
2020-05-16 12:45:01.781 -0400,11238.570548125,0.3657989501953125,0.50506591796875,-0.168853759765625,1,0.95
2020-05-16 12:45:01.846 -0400,11238.635523,0.7413787841796875,0.4795989990234375,-0.0843658447265625,1,0.95
2020-05-16 12:45:01.911 -0400,11238.700498,2.972152709960938,0.9896697998046875,-0.0991058349609375,1,0.95
2020-05-16 12:45:01.976 -0400,11238.765473,2.019790649414062,0.7574310302734375,-0.5553131103515625,1,0.95
2020-05-16 12:45:02.041 -0400,11238.830447,1.301895141601562,0.3369598388671875,-0.25067138671875,1,0.95
2020-05-16 12:45:02.106 -0400,11238.895422,0.940765380859375,0.3936004638671875,-0.1303558349609375,1,0.95
2020-05-16 12:45:02.171 -0400,11238.960397,0.43841552734375,0.0253448486328125,-0.079559326171875,1,0.95
2020-05-16 12:45:02.236 -0400,11239.025371,0.2577972412109375,-0.0554351806640625,-0.0348052978515625,1,0.95
2020-05-16 12:45:02.300 -0400,11239.090346,0.3657989501953125,-0.077484130859375,0.020263671875,1,0.95
2020-05-16 12:45:02.368 -0400,11239.15532,0.377410888671875,0.092437744140625,0.0891571044921875,1,0.95
2020-05-16 12:45:02.431 -0400,11239.220295,1.243377685546875,1.803817749023438,-0.16156005859375,1,0.95
2020-05-16 12:45:02.496 -0400,11239.28527,1.689468383789062,0.6148529052734375,-1.263778686523438,1,0.95
2020-05-16 12:45:02.560 -0400,11239.350244,1.461868286132812,2.12640380859375,-0.76513671875,1,0.95
2020-05-16 12:45:02.626 -0400,11239.415219,0.756622314453125,1.171173095703125,-0.2979583740234375,1,0.95
2020-05-16 12:45:02.690 -0400,11239.480193,0.3665313720703125,0.790985107421875,-0.351409912109375,1,0.95
2020-05-16 12:45:02.756 -0400,11239.545168,0.0323486328125,0.6284332275390625,-0.207305908203125,1,0.95
2020-05-16 12:45:02.820 -0400,11239.610143,0.2030029296875,0.58978271484375,-0.2034759521484375,1,0.95
2020-05-16 12:45:02.886 -0400,11239.675116125,1.152694702148438,0.9287261962890625,-0.221435546875,1,0.95
2020-05-16 12:45:02.950 -0400,11239.740091125,1.962387084960938,0.998291015625,0.3744964599609375,1,0.95
2020-05-16 12:45:03.016 -0400,11239.805066125,1.573577880859375,0.60137939453125,-0.16314697265625,1,0.95
2020-05-16 12:45:03.081 -0400,11239.870040125,1.224502563476562,0.5202178955078125,-0.128570556640625,1,0.95
2020-05-16 12:45:03.145 -0400,11239.935015125,0.6756134033203125,0.31805419921875,-0.0318603515625,1,0.95
2020-05-16 12:45:03.210 -0400,11239.999989125,0.41180419921875,0.2860870361328125,-0.259857177734375,1,0.95
2020-05-16 12:45:03.275 -0400,11240.064964125,0.20184326171875,0.2009429931640625,-0.2802734375,1,0.95
2020-05-16 12:45:03.340 -0400,11240.129939125,0.18798828125,0.1113128662109375,-0.60845947265625,1,0.95
2020-05-16 12:45:03.405 -0400,11240.194913125,0.585052490234375,0.2180938720703125,-1.2781982421875,1,0.95
2020-05-16 12:45:03.470 -0400,11240.259888125,0.4600982666015625,0.290496826171875,-1.334854125976562,1,0.95
2020-05-16 12:45:03.535 -0400,11240.324862125,0.3490447998046875,-0.066619873046875,-1.304351806640625,1,0.95
2020-05-16 12:45:03.600 -0400,11240.389837125,0.0537261962890625,-0.225616455078125,-0.9883880615234375,1,0.95
2020-05-16 12:45:03.680 -0400,11240.469806125,-0.0479583740234375,-0.2368011474609375,-0.6475830078125,1,0.95
2020-05-16 12:45:03.750 -0400,11240.539779125,0.07501220703125,0.05908203125,-0.801025390625,1,0.95
2020-05-16 12:45:03.820 -0400,11240.609751125,0.0401611328125,-0.06207275390625,-0.8061676025390625,1,0.95
2020-05-16 12:45:03.890 -0400,11240.679724,-0.013427734375,-0.059600830078125,-1.0643310546875,1,0.95
2020-05-16 12:45:03.960 -0400,11240.749696,0.3194732666015625,0.0183868408203125,-1.50054931640625,1,0.95
2020-05-16 12:45:04.030 -0400,11240.819669,-0.0756072998046875,0.394683837890625,-1.328536987304688,1,0.95
2020-05-16 12:45:04.100 -0400,11240.889642,-0.0051422119140625,-0.0511474609375,-1.007293701171875,1,0.95
2020-05-16 12:45:04.170 -0400,11240.959614,-0.0742950439453125,0.1308746337890625,-0.898590087890625,1,0.95
2020-05-16 12:45:04.240 -0400,11241.029587,0.0040283203125,0.059112548828125,-0.804107666015625,1,0.95
2020-05-16 12:45:04.311 -0400,11241.09956,-0.01080322265625,0.1930999755859375,-1.018264770507812,1,0.95
