loggingTime(txt),accelerometerTimestamp_sinceReboot(s),accelerometerAccelerationX(G),accelerometerAccelerationY(G),accelerometerAccelerationZ(G),batteryState,batteryLevel
2020-05-16 12:30:05.744 -0400,10342.52630516667,0.0377960205078125,0.0419921875,-1.324050903320312,1,0.97
2020-05-16 12:30:05.856 -0400,10342.64604116667,-0.025360107421875,0.032073974609375,-0.7029876708984375,1,0.97
2020-05-16 12:30:05.976 -0400,10342.765770625,0.0393218994140625,-0.1779632568359375,-0.5871734619140625,1,0.97
2020-05-16 12:30:06.096 -0400,10342.885508625,0.244476318359375,0.03106689453125,-0.8756256103515625,1,0.97
2020-05-16 12:30:06.215 -0400,10343.005238625,1.081024169921875,0.48406982421875,-0.7844085693359375,1,0.97
2020-05-16 12:30:06.335 -0400,10343.124965625,1.712600708007812,0.680145263671875,-0.2852325439453125,1,0.97
2020-05-16 12:30:06.455 -0400,10343.244691625,0.61212158203125,0.3545379638671875,-0.200103759765625,1,0.97
2020-05-16 12:30:06.576 -0400,10343.364411625,0.6322021484375,0.5118560791015625,-0.1353759765625,1,0.97
2020-05-16 12:30:06.655 -0400,10343.444228625,1.068130493164062,0.7245635986328125,-0.2426910400390625,1,0.97
2020-05-16 12:30:06.736 -0400,10343.514067625,1.697219848632812,0.9238128662109375,-0.5208587646484375,1,0.97
2020-05-16 12:30:06.794 -0400,10343.583907625,1.068466186523438,0.3944854736328125,-0.3504638671875,1,0.97
2020-05-16 12:30:06.864 -0400,10343.653749625,1.260757446289062,0.4412078857421875,-0.189910888671875,1,0.97
2020-05-16 12:30:06.934 -0400,10343.72359041667,0.849151611328125,0.3126678466796875,-0.218292236328125,1,0.97
2020-05-16 12:30:07.004 -0400,10343.79343141667,0.5540313720703125,0.2455291748046875,-0.1560516357421875,1,0.97
2020-05-16 12:30:07.073 -0400,10343.86327341667,0.5880584716796875,0.3452301025390625,-0.07861328125,1,0.97
2020-05-16 12:30:07.143 -0400,10343.93311741667,1.154449462890625,0.408538818359375,-0.1334228515625,1,0.97
2020-05-16 12:30:07.213 -0400,10344.00295741667,1.280776977539062,0.2429656982421875,-0.0245819091796875,1,0.97
2020-05-16 12:30:07.283 -0400,10344.07279741667,1.25982666015625,0.334808349609375,-0.0565643310546875,1,0.97
2020-05-16 12:30:07.353 -0400,10344.14264141667,1.154098510742188,0.6678619384765625,-0.35089111328125,1,0.97
2020-05-16 12:30:07.423 -0400,10344.21248541667,1.040252685546875,0.348175048828125,-0.1858367919921875,1,0.97
2020-05-16 12:30:07.493 -0400,10344.28233541667,0.546783447265625,0.1911468505859375,-0.26910400390625,1,0.97
2020-05-16 12:30:07.562 -0400,10344.35218341667,0.39324951171875,0.3116455078125,-0.196868896484375,1,0.97
2020-05-16 12:30:07.632 -0400,10344.42202441667,0.649993896484375,0.4798736572265625,-0.3016357421875,1,0.97
2020-05-16 12:30:07.702 -0400,10344.49186841667,1.080169677734375,0.4443206787109375,-0.4414825439453125,1,0.97
2020-05-16 12:30:07.772 -0400,10344.56171141667,1.412994384765625,0.4349822998046875,-0.488250732421875,1,0.97
2020-05-16 12:30:07.842 -0400,10344.63155541667,1.266921997070312,0.5876312255859375,-0.5070037841796875,1,0.97
2020-05-16 12:30:07.912 -0400,10344.70139841667,1.087738037109375,0.480712890625,-0.3061676025390625,1,0.97
2020-05-16 12:30:07.981 -0400,10344.77124141667,1.140289306640625,0.297271728515625,-0.108245849609375,1,0.97
2020-05-16 12:30:08.051 -0400,10344.84109241667,0.6804351806640625,0.338104248046875,-0.1224365234375,1,0.97
2020-05-16 12:30:08.121 -0400,10344.91094141667,0.539886474609375,0.3907318115234375,-0.052581787109375,1,0.97
2020-05-16 12:30:08.191 -0400,10344.98078941667,0.858489990234375,0.3597259521484375,-0.040924072265625,1,0.97
2020-05-16 12:30:08.261 -0400,10345.05063441667,1.307647705078125,0.2851715087890625,0.019775390625,1,0.97
2020-05-16 12:30:08.331 -0400,10345.12048241667,1.427169799804688,0.289794921875,-0.051116943359375,1,0.97
2020-05-16 12:30:08.401 -0400,10345.19032841667,1.071914672851562,0.757232666015625,-0.25225830078125,1,0.97
2020-05-16 12:30:08.471 -0400,10345.26017741667,1.068954467773438,0.0806732177734375,-0.2718353271484375,1,0.97
2020-05-16 12:30:08.540 -0400,10345.33002341667,0.758148193359375,0.2688446044921875,-0.3738250732421875,1,0.97
2020-05-16 12:30:08.610 -0400,10345.39986541667,0.4328460693359375,0.392181396484375,-0.371978759765625,1,0.97
2020-05-16 12:30:08.680 -0400,10345.46970741667,0.50067138671875,0.431732177734375,-0.1279754638671875,1,0.97
2020-05-16 12:30:08.750 -0400,10345.53955141667,0.988433837890625,0.53082275390625,-0.357025146484375,1,0.97
2020-05-16 12:30:08.820 -0400,10345.60939741667,1.137252807617188,0.466461181640625,-0.3798980712890625,1,0.97
2020-05-16 12:30:08.890 -0400,10345.67924041667,1.433212280273438,0.8230133056640625,-0.5444793701171875,1,0.97
2020-05-16 12:30:08.959 -0400,10345.749083875,1.3438720703125,0.5659332275390625,-0.3787384033203125,1,0.97
2020-05-16 12:30:09.030 -0400,10345.818929875,1.329330444335938,0.2773284912109375,-0.19842529296875,1,0.97
2020-05-16 12:30:09.099 -0400,10345.888776875,0.7566070556640625,0.343658447265625,-0.10455322265625,1,0.97
2020-05-16 12:30:09.169 -0400,10345.958619875,0.556793212890625,0.3726348876953125,-0.0424652099609375,1,0.97
2020-05-16 12:30:09.239 -0400,10346.028461875,0.772979736328125,0.3108367919921875,-0.014129638671875,1,0.97
2020-05-16 12:30:09.309 -0400,10346.098302875,1.125869750976562,0.2866668701171875,-0.023529052734375,1,0.97
2020-05-16 12:30:09.379 -0400,10346.168143875,1.232559204101562,0.2844085693359375,0.0139312744140625,1,0.97
2020-05-16 12:30:09.448 -0400,10346.237985875,1.09283447265625,0.5459136962890625,-0.382720947265625,1,0.97
2020-05-16 12:30:09.518 -0400,10346.307832875,1.177810668945312,0.41510009765625,-0.1521148681640625,1,0.97
2020-05-16 12:30:09.588 -0400,10346.377679875,0.6990509033203125,0.241119384765625,-0.312164306640625,1,0.97
2020-05-16 12:30:09.658 -0400,10346.447526875,0.4813995361328125,0.2670440673828125,-0.2813720703125,1,0.97
2020-05-16 12:30:09.728 -0400,10346.517373875,0.6729583740234375,0.067138671875,-0.416656494140625,1,0.97
2020-05-16 12:30:09.797 -0400,10346.587218875,0.940185546875,0.7451171875,-0.284912109375,1,0.97
2020-05-16 12:30:09.867 -0400,10346.657059875,1.020782470703125,0.62548828125,-0.4617919921875,1,0.97
2020-05-16 12:30:09.937 -0400,10346.7269075,1.64251708984375,0.8558502197265625,-0.55810546875,1,0.97
2020-05-16 12:30:10.007 -0400,10346.7967505,1.282501220703125,0.307952880859375,-0.3038177490234375,1,0.97
2020-05-16 12:30:10.077 -0400,10346.8665955,1.211776733398438,0.34576416015625,-0.1926422119140625,1,0.97
2020-05-16 12:30:10.147 -0400,10346.9364385,0.6393890380859375,0.348175048828125,-0.1490020751953125,1,0.97
2020-05-16 12:30:10.217 -0400,10347.0062825,0.5142364501953125,0.4066162109375,-0.0425262451171875,1,0.97
2020-05-16 12:30:10.287 -0400,10347.0761315,0.8497467041015625,0.3145904541015625,-0.022735595703125,1,0.97
2020-05-16 12:30:10.356 -0400,10347.1459795,1.139739990234375,0.2083892822265625,0.0833587646484375,1,0.97
2020-05-16 12:30:10.426 -0400,10347.2158245,1.134307861328125,0.37310791015625,-0.0282135009765625,1,0.97
2020-05-16 12:30:10.496 -0400,10347.2856695,1.037490844726562,0.521881103515625,-0.1477813720703125,1,0.97
2020-05-16 12:30:10.566 -0400,10347.3555165,1.201675415039062,0.60845947265625,-0.357330322265625,1,0.97
2020-05-16 12:30:10.636 -0400,10347.4253615,0.689208984375,0.3079986572265625,-0.3304901123046875,1,0.97
2020-05-16 12:30:10.705 -0400,10347.4952045,0.5917510986328125,0.1991729736328125,-0.2583465576171875,1,0.97
2020-05-16 12:30:10.775 -0400,10347.5650455,0.7479400634765625,0.4920501708984375,-0.3675537109375,1,0.97
2020-05-16 12:30:10.845 -0400,10347.6348875,0.926971435546875,0.5672760009765625,-0.5562744140625,1,0.97
2020-05-16 12:30:10.915 -0400,10347.7047275,1.301101684570312,0.5019378662109375,-0.4360504150390625,1,0.97
2020-05-16 12:30:10.985 -0400,10347.7745715,1.504043579101562,0.63140869140625,-0.5294342041015625,1,0.97
2020-05-16 12:30:11.055 -0400,10347.8444155,1.508102416992188,0.3444366455078125,-0.2220458984375,1,0.97
2020-05-16 12:30:11.125 -0400,10347.9142585,1.086990356445312,0.4016876220703125,-0.2816162109375,1,0.97
2020-05-16 12:30:11.194 -0400,10347.9841025,0.6121978759765625,0.3331146240234375,-0.1434173583984375,1,0.97
2020-05-16 12:30:11.264 -0400,10348.0539435,0.6225433349609375,0.296417236328125,-0.052093505859375,1,0.97
2020-05-16 12:30:11.334 -0400,10348.1237845,0.8242950439453125,0.1835174560546875,-0.0037078857421875,1,0.97
2020-05-16 12:30:11.404 -0400,10348.1936305,0.8224334716796875,0.2163848876953125,0.083587646484375,1,0.97
2020-05-16 12:30:11.474 -0400,10348.2634795,1.070907592773438,0.518951416015625,-0.0026702880859375,1,0.97
2020-05-16 12:30:11.544 -0400,10348.3333285,1.182769775390625,0.780364990234375,-0.5639495849609375,1,0.97
2020-05-16 12:30:11.613 -0400,10348.4031795,1.158523559570312,0.5673980712890625,-0.1747894287109375,1,0.97
2020-05-16 12:30:11.683 -0400,10348.4730315,0.6568145751953125,0.2688140869140625,-0.370941162109375,1,0.97
2020-05-16 12:30:11.753 -0400,10348.5428845,0.600006103515625,0.44329833984375,-0.308563232421875,1,0.97
2020-05-16 12:30:11.823 -0400,10348.6127355,0.9018707275390625,0.6309051513671875,-0.41400146484375,1,0.97
2020-05-16 12:30:11.893 -0400,10348.6825875,0.92816162109375,0.560302734375,-0.4781341552734375,1,0.97
2020-05-16 12:30:11.963 -0400,10348.75243766667,1.079544067382812,0.57012939453125,-0.4030609130859375,1,0.97
2020-05-16 12:30:12.033 -0400,10348.82228766667,1.535171508789062,0.7150421142578125,-0.59222412109375,1,0.97
2020-05-16 12:30:12.103 -0400,10348.89213566667,1.677215576171875,0.350128173828125,-0.212677001953125,1,0.97
2020-05-16 12:30:12.172 -0400,10348.96197966667,0.96490478515625,0.360443115234375,-0.2970428466796875,1,0.97
2020-05-16 12:30:12.242 -0400,10349.03181766667,0.6841583251953125,0.4340362548828125,-0.122283935546875,1,0.97
2020-05-16 12:30:12.312 -0400,10349.10165566667,0.7345123291015625,0.2989044189453125,-0.06695556640625,1,0.97
2020-05-16 12:30:12.382 -0400,10349.17149766667,0.7477569580078125,0.16229248046875,0.0189361572265625,1,0.97
2020-05-16 12:30:12.452 -0400,10349.24134066667,0.7522125244140625,0.2583770751953125,0.0325927734375,1,0.97
2020-05-16 12:30:12.522 -0400,10349.31118366667,1.081680297851562,0.8546295166015625,-0.0716400146484375,1,0.97
2020-05-16 12:30:12.591 -0400,10349.38102766667,1.411148071289062,0.556488037109375,-0.4555511474609375,1,0.97
2020-05-16 12:30:12.661 -0400,10349.45087366667,0.7539825439453125,0.322021484375,-0.3057098388671875,1,0.97
2020-05-16 12:30:12.731 -0400,10349.52071266667,0.5068206787109375,0.3402099609375,-0.18255615234375,1,0.97
2020-05-16 12:30:12.801 -0400,10349.59055066667,0.5833282470703125,0.5839691162109375,-0.293548583984375,1,0.97
2020-05-16 12:30:12.871 -0400,10349.66039066667,0.9290008544921875,0.6407470703125,-0.465240478515625,1,0.97
2020-05-16 12:30:12.941 -0400,10349.73023,1.252273559570312,0.741424560546875,-0.367523193359375,1,0.97
2020-05-16 12:30:13.010 -0400,10349.800076,1.445526123046875,0.6839141845703125,-0.5201873779296875,1,0.97
2020-05-16 12:30:13.080 -0400,10349.869922,1.420547485351562,0.4973297119140625,-0.3376312255859375,1,0.97
2020-05-16 12:30:13.150 -0400,10349.939769,1.293472290039062,0.3615264892578125,-0.276336669921875,1,0.97
2020-05-16 12:30:13.220 -0400,10350.009613,0.735076904296875,0.285858154296875,-0.17877197265625,1,0.97
2020-05-16 12:30:13.290 -0400,10350.079461,0.577789306640625,0.294097900390625,-0.07720947265625,1,0.97
2020-05-16 12:30:13.360 -0400,10350.149308,0.5376129150390625,0.1983489990234375,-0.0163421630859375,1,0.97
2020-05-16 12:30:13.429 -0400,10350.219154,0.7546234130859375,0.22265625,0.020751953125,1,0.97
2020-05-16 12:30:13.499 -0400,10350.288996,0.939178466796875,0.282440185546875,0.0666351318359375,1,0.97
2020-05-16 12:30:13.569 -0400,10350.35884,1.215469360351562,0.653228759765625,-0.1319732666015625,1,0.97
2020-05-16 12:30:13.639 -0400,10350.428688,1.6807861328125,0.71893310546875,-0.4243927001953125,1,0.97
2020-05-16 12:30:13.709 -0400,10350.498531,0.87445068359375,0.332061767578125,-0.270294189453125,1,0.97
2020-05-16 12:30:13.779 -0400,10350.568375,0.661346435546875,0.1660919189453125,-0.305267333984375,1,0.97
2020-05-16 12:30:13.849 -0400,10350.638221,0.6650238037109375,0.6025848388671875,-0.3929443359375,1,0.97
2020-05-16 12:30:13.918 -0400,10350.70806854167,0.7704010009765625,0.5977325439453125,-0.50244140625,1,0.97
2020-05-16 12:30:13.988 -0400,10350.77791554167,1.082015991210938,0.6152496337890625,-0.630157470703125,1,0.97
2020-05-16 12:30:14.058 -0400,10350.84776054167,2.023086547851562,0.766143798828125,-0.7369842529296875,1,0.97
2020-05-16 12:30:14.128 -0400,10350.91760654167,1.41717529296875,0.2570037841796875,-0.3390960693359375,1,0.97
2020-05-16 12:30:14.198 -0400,10350.98745054167,1.365020751953125,0.5377044677734375,-0.2025909423828125,1,0.97
2020-05-16 12:30:14.268 -0400,10351.05729354167,0.714630126953125,0.3388824462890625,-0.14276123046875,1,0.97
2020-05-16 12:30:14.338 -0400,10351.12713454167,0.5961456298828125,0.3471832275390625,-0.0009765625,1,0.97
2020-05-16 12:30:14.407 -0400,10351.19697554167,0.626312255859375,0.200958251953125,0.0669708251953125,1,0.97
2020-05-16 12:30:14.477 -0400,10351.26681954167,0.697357177734375,0.222930908203125,0.0920562744140625,1,0.97
2020-05-16 12:30:14.547 -0400,10351.33666654167,0.75201416015625,0.29364013671875,0.071075439453125,1,0.97
2020-05-16 12:30:14.617 -0400,10351.40651054167,1.350616455078125,0.63275146484375,-0.2415771484375,1,0.97
2020-05-16 12:30:14.687 -0400,10351.47635654167,1.779708862304688,0.64434814453125,-0.481475830078125,1,0.97
2020-05-16 12:30:14.757 -0400,10351.54620454167,0.7052154541015625,0.2301025390625,-0.4342498779296875,1,0.97
2020-05-16 12:30:14.826 -0400,10351.61605354167,0.6347808837890625,-0.142791748046875,-0.3686370849609375,1,0.97
2020-05-16 12:30:14.896 -0400,10351.68589354167,0.6058502197265625,0.8364105224609375,-0.3284454345703125,1,0.97
2020-05-16 12:30:14.966 -0400,10351.75573316667,0.8610687255859375,0.578826904296875,-0.5614166259765625,1,0.97
2020-05-16 12:30:15.036 -0400,10351.82557316667,1.66070556640625,0.8646087646484375,-0.5343170166015625,1,0.97
2020-05-16 12:30:15.106 -0400,10351.89541116667,1.475296020507812,0.26885986328125,-0.361053466796875,1,0.97
2020-05-16 12:30:15.176 -0400,10351.96525116667,1.460250854492188,0.504180908203125,-0.2873687744140625,1,0.97
2020-05-16 12:30:15.245 -0400,10352.03509116667,0.9807586669921875,0.527587890625,-0.2959442138671875,1,0.97
2020-05-16 12:30:15.315 -0400,10352.10493116667,0.6302490234375,0.3486175537109375,-0.06793212890625,1,0.97
2020-05-16 12:30:15.385 -0400,10352.17477216667,0.5841064453125,0.2718658447265625,0.0006256103515625,1,0.97
2020-05-16 12:30:15.455 -0400,10352.24461616667,0.827606201171875,0.2432861328125,0.03582763671875,1,0.97
2020-05-16 12:30:15.525 -0400,10352.31446116667,0.965972900390625,0.238922119140625,0.1016693115234375,1,0.97
2020-05-16 12:30:15.594 -0400,10352.38430316667,0.9009246826171875,0.3502197265625,-0.0427093505859375,1,0.97
2020-05-16 12:30:15.664 -0400,10352.45414816667,1.03155517578125,0.5137176513671875,-0.1703338623046875,1,0.97
2020-05-16 12:30:15.734 -0400,10352.52399216667,1.512115478515625,0.664581298828125,-0.44598388671875,1,0.97
2020-05-16 12:30:15.804 -0400,10352.59383716667,0.7618408203125,0.386016845703125,-0.4221954345703125,1,0.97
2020-05-16 12:30:15.874 -0400,10352.66368816667,0.6696929931640625,0.3268280029296875,-0.3554534912109375,1,0.97
2020-05-16 12:30:15.944 -0400,10352.733534,0.837188720703125,0.5383148193359375,-0.5252685546875,1,0.97
2020-05-16 12:30:16.014 -0400,10352.803383,0.925537109375,0.6679840087890625,-0.721343994140625,1,0.97
2020-05-16 12:30:16.083 -0400,10352.873232,1.3876953125,0.5825958251953125,-0.6222991943359375,1,0.97
2020-05-16 12:30:16.153 -0400,10352.943081,1.57806396484375,0.376129150390625,-0.4427337646484375,1,0.97
2020-05-16 12:30:16.223 -0400,10353.012928,1.744308471679688,0.3910675048828125,-0.2841796875,1,0.97
2020-05-16 12:30:16.293 -0400,10353.082774,1.02569580078125,0.417083740234375,-0.2191009521484375,1,0.97
2020-05-16 12:30:16.363 -0400,10353.152614,0.7017059326171875,0.3809814453125,-0.1013336181640625,1,0.97
2020-05-16 12:30:16.433 -0400,10353.222459,0.609344482421875,0.2530364990234375,0.0186767578125,1,0.97
2020-05-16 12:30:16.503 -0400,10353.2923,0.7127685546875,0.199676513671875,0.0295257568359375,1,0.97
2020-05-16 12:30:16.573 -0400,10353.362144,0.6349334716796875,0.19720458984375,0.027496337890625,1,0.97
2020-05-16 12:30:16.642 -0400,10353.431991,0.834686279296875,0.3462982177734375,-0.1017303466796875,1,0.97
2020-05-16 12:30:16.712 -0400,10353.501844,1.29754638671875,0.599456787109375,-0.1199188232421875,1,0.97
2020-05-16 12:30:16.782 -0400,10353.571692,1.712158203125,0.959075927734375,-0.686798095703125,1,0.97
2020-05-16 12:30:16.852 -0400,10353.641538,0.749755859375,0.7984466552734375,-0.4950714111328125,1,0.97
2020-05-16 12:30:16.922 -0400,10353.71138104167,0.813568115234375,0.0537567138671875,-0.3096923828125,1,0.97
2020-05-16 12:30:16.992 -0400,10353.78122304167,0.78204345703125,0.6011962890625,-0.3927459716796875,1,0.97
2020-05-16 12:30:17.061 -0400,10353.85106304167,0.9081878662109375,1.042160034179688,-0.559539794921875,1,0.97
2020-05-16 12:30:17.131 -0400,10353.92090104167,1.913589477539062,1.123870849609375,-0.8402557373046875,1,0.97
2020-05-16 12:30:17.201 -0400,10353.99074004167,1.737564086914062,0.201568603515625,-0.417388916015625,1,0.97
2020-05-16 12:30:17.271 -0400,10354.06058504167,1.52667236328125,0.5399017333984375,-0.320281982421875,1,0.97
2020-05-16 12:30:17.341 -0400,10354.13042904167,0.93988037109375,0.4178009033203125,-0.328094482421875,1,0.97
2020-05-16 12:30:17.411 -0400,10354.20027004167,0.7091827392578125,0.260894775390625,-0.12115478515625,1,0.97
2020-05-16 12:30:17.480 -0400,10354.27011704167,0.6444854736328125,0.1753082275390625,-0.065704345703125,1,0.97
2020-05-16 12:30:17.550 -0400,10354.33996204167,0.6959686279296875,0.163604736328125,-0.02178955078125,1,0.97
2020-05-16 12:30:17.620 -0400,10354.40980704167,0.670074462890625,0.7388916015625,-0.1977691650390625,1,0.97
2020-05-16 12:30:17.690 -0400,10354.47964804167,0.554718017578125,0.761474609375,-0.2233428955078125,1,0.97
2020-05-16 12:30:17.760 -0400,10354.54948904167,0.6863555908203125,0.508941650390625,-0.6421661376953125,1,0.97
2020-05-16 12:30:17.830 -0400,10354.61933104167,0.8875885009765625,0.336578369140625,-0.421051025390625,1,0.97
2020-05-16 12:30:17.899 -0400,10354.68917104167,0.8415679931640625,0.8384552001953125,-0.4347076416015625,1,0.97
2020-05-16 12:30:17.969 -0400,10354.75901266667,0.8973846435546875,0.853668212890625,-0.4447174072265625,1,0.97
2020-05-16 12:30:18.039 -0400,10354.82885466667,1.131362915039062,0.6971893310546875,-0.25665283203125,1,0.97
2020-05-16 12:30:18.109 -0400,10354.89869866667,1.07073974609375,0.743072509765625,-0.3861541748046875,1,0.97
2020-05-16 12:30:18.179 -0400,10354.96854166667,1.27276611328125,1.099319458007812,-0.4980316162109375,1,0.97
2020-05-16 12:30:18.249 -0400,10355.03838366667,1.426513671875,0.380523681640625,-0.382659912109375,1,0.97
2020-05-16 12:30:18.319 -0400,10355.10822866667,1.483596801757812,0.527740478515625,-0.314422607421875,1,0.97
2020-05-16 12:30:18.388 -0400,10355.17806966667,0.756195068359375,0.26904296875,-0.21453857421875,1,0.97
2020-05-16 12:30:18.458 -0400,10355.24791266667,0.60418701171875,0.3362884521484375,-0.0570831298828125,1,0.97
2020-05-16 12:30:18.528 -0400,10355.31776466667,0.78570556640625,0.335968017578125,-0.0548248291015625,1,0.97
2020-05-16 12:30:18.598 -0400,10355.38761466667,0.97918701171875,0.2705535888671875,0.000213623046875,1,0.97
2020-05-16 12:30:18.668 -0400,10355.45745966667,0.655517578125,0.2692718505859375,-0.084930419921875,1,0.97
2020-05-16 12:30:18.738 -0400,10355.52730866667,1.029449462890625,0.3966064453125,0.0128326416015625,1,0.97
2020-05-16 12:30:18.808 -0400,10355.59715666667,1.35589599609375,0.6096343994140625,-0.2888336181640625,1,0.97
2020-05-16 12:30:18.877 -0400,10355.66699866667,1.243377685546875,0.9581451416015625,-0.5411834716796875,1,0.97
2020-05-16 12:30:18.947 -0400,10355.73684191667,0.7482147216796875,0.4307708740234375,-0.2020263671875,1,0.97
2020-05-16 12:30:19.017 -0400,10355.80668691667,0.8792266845703125,0.376129150390625,-0.418426513671875,1,0.97
2020-05-16 12:30:19.087 -0400,10355.87653291667,0.8634490966796875,0.6254730224609375,-0.66619873046875,1,0.97
2020-05-16 12:30:19.157 -0400,10355.94637891667,1.017807006835938,0.7003936767578125,-0.5093536376953125,1,0.97
2020-05-16 12:30:19.227 -0400,10356.01622791667,1.404861450195312,0.8647918701171875,-0.6531524658203125,1,0.97
2020-05-16 12:30:19.296 -0400,10356.08607291667,1.647506713867188,0.5996551513671875,-0.27545166015625,1,0.97
2020-05-16 12:30:19.366 -0400,10356.15591691667,1.635833740234375,-0.2618865966796875,0.0708160400390625,1,0.97
2020-05-16 12:30:19.436 -0400,10356.22576491667,0.9045867919921875,0.39892578125,0.0118560791015625,1,0.97
2020-05-16 12:30:19.506 -0400,10356.29561391667,0.7303314208984375,0.2455291748046875,0.0871734619140625,1,0.97
2020-05-16 12:30:19.576 -0400,10356.36546591667,0.5923004150390625,0.103729248046875,-0.0114898681640625,1,0.97
2020-05-16 12:30:19.645 -0400,10356.43531591667,0.5787200927734375,0.2198944091796875,0.0302276611328125,1,0.97
2020-05-16 12:30:19.715 -0400,10356.50516691667,0.4949951171875,0.2833099365234375,-0.0035858154296875,1,0.97
2020-05-16 12:30:19.785 -0400,10356.57501191667,0.8425445556640625,0.4769287109375,-0.041778564453125,1,0.97
2020-05-16 12:30:19.855 -0400,10356.64486191667,1.5462646484375,0.891632080078125,-0.4257965087890625,1,0.97
2020-05-16 12:30:19.925 -0400,10356.71471329167,1.4576416015625,1.06842041015625,-0.6638031005859375,1,0.97
2020-05-16 12:30:19.995 -0400,10356.78456329167,0.6238555908203125,0.2280120849609375,-0.310333251953125,1,0.97
2020-05-16 12:30:20.065 -0400,10356.85441029167,0.6291656494140625,0.4037017822265625,-0.2692718505859375,1,0.97
2020-05-16 12:30:20.134 -0400,10356.92426129167,0.878875732421875,0.8607177734375,-0.50213623046875,1,0.97
2020-05-16 12:30:20.204 -0400,10356.99411129167,1.026229858398438,0.8303985595703125,-0.6309356689453125,1,0.97
2020-05-16 12:30:20.274 -0400,10357.06395829167,1.548187255859375,0.6931610107421875,-0.6350555419921875,1,0.97
2020-05-16 12:30:20.344 -0400,10357.13380629167,1.81463623046875,0.854248046875,-0.3267974853515625,1,0.97
2020-05-16 12:30:20.414 -0400,10357.20365429167,1.750045776367188,0.6319580078125,-0.2120208740234375,1,0.97
2020-05-16 12:30:20.484 -0400,10357.27350029167,0.94342041015625,0.3542938232421875,-0.19146728515625,1,0.97
2020-05-16 12:30:20.554 -0400,10357.34334629167,0.8273773193359375,0.392059326171875,0.002532958984375,1,0.97
2020-05-16 12:30:20.623 -0400,10357.41319129167,0.9179229736328125,0.2543487548828125,0.03466796875,1,0.97
2020-05-16 12:30:20.693 -0400,10357.48303629167,0.821044921875,0.1510467529296875,0.0981292724609375,1,0.97
2020-05-16 12:30:20.763 -0400,10357.55288229167,0.669647216796875,0.24969482421875,0.090179443359375,1,0.97
2020-05-16 12:30:20.833 -0400,10357.62272729167,0.730926513671875,0.6563568115234375,-0.123931884765625,1,0.97
2020-05-16 12:30:20.903 -0400,10357.69257529167,1.39263916015625,0.6695556640625,-0.2413482666015625,1,0.97
2020-05-16 12:30:20.973 -0400,10357.76242154167,1.203109741210938,0.7647552490234375,-0.443450927734375,1,0.97
2020-05-16 12:30:21.043 -0400,10357.83226554167,0.74005126953125,0.4742584228515625,-0.44171142578125,1,0.97
2020-05-16 12:30:21.112 -0400,10357.90211154167,1.010665893554688,0.3718719482421875,-0.3757781982421875,1,0.97
2020-05-16 12:30:21.182 -0400,10357.97195854167,1.065780639648438,0.6921539306640625,-0.61688232421875,1,0.97
2020-05-16 12:30:21.252 -0400,10358.04180454167,1.116455078125,0.813507080078125,-0.567169189453125,1,0.97
2020-05-16 12:30:21.322 -0400,10358.11165454167,1.373199462890625,0.833343505859375,-0.63031005859375,1,0.97
2020-05-16 12:30:21.392 -0400,10358.18150554167,1.638046264648438,0.3912811279296875,-0.306304931640625,1,0.97
2020-05-16 12:30:21.462 -0400,10358.25134954167,1.269210815429688,-0.0113067626953125,-0.2235565185546875,1,0.97
2020-05-16 12:30:21.531 -0400,10358.32119654167,0.742828369140625,0.2571868896484375,-0.1260223388671875,1,0.97
2020-05-16 12:30:21.601 -0400,10358.39104554167,0.6512603759765625,0.43115234375,-0.0043182373046875,1,0.97
2020-05-16 12:30:21.671 -0400,10358.46089554167,0.8677978515625,0.288543701171875,0.0499725341796875,1,0.97
2020-05-16 12:30:21.741 -0400,10358.53074254167,0.9009246826171875,0.160797119140625,0.12420654296875,1,0.97
2020-05-16 12:30:21.811 -0400,10358.60058854167,0.93731689453125,0.31195068359375,0.0388336181640625,1,0.97
2020-05-16 12:30:21.881 -0400,10358.67043354167,1.125289916992188,0.5659332275390625,-0.225189208984375,1,0.97
2020-05-16 12:30:21.951 -0400,10358.740279125,1.559585571289062,0.654022216796875,-0.3379058837890625,1,0.97
2020-05-16 12:30:22.020 -0400,10358.810123125,0.8552093505859375,0.356475830078125,-0.404327392578125,1,0.97
2020-05-16 12:30:22.090 -0400,10358.879973125,0.727813720703125,0.3559417724609375,-0.3105010986328125,1,0.97
2020-05-16 12:30:22.160 -0400,10358.949821125,0.8725738525390625,0.52825927734375,-0.4800262451171875,1,0.97
2020-05-16 12:30:22.230 -0400,10359.019668125,1.014739990234375,0.583831787109375,-0.7660369873046875,1,0.97
2020-05-16 12:30:22.312 -0400,10359.089512125,1.28094482421875,0.588409423828125,-0.602508544921875,1,0.97
2020-05-16 12:30:22.370 -0400,10359.159354125,1.415863037109375,0.5228729248046875,-0.4825592041015625,1,0.97
2020-05-16 12:30:22.439 -0400,10359.229197125,1.650787353515625,0.2894439697265625,-0.266937255859375,1,0.97
2020-05-16 12:30:22.509 -0400,10359.299039125,1.24188232421875,0.4400482177734375,-0.2291259765625,1,0.97
2020-05-16 12:30:22.579 -0400,10359.368880125,0.7274017333984375,0.3940277099609375,-0.0766754150390625,1,0.97
2020-05-16 12:30:22.649 -0400,10359.438719125,0.624298095703125,0.3497467041015625,0.052978515625,1,0.97
2020-05-16 12:30:22.719 -0400,10359.508558125,0.6384124755859375,0.2191314697265625,0.0826873779296875,1,0.97
2020-05-16 12:30:22.789 -0400,10359.578400125,0.8766326904296875,0.2405242919921875,0.1115875244140625,1,0.97
2020-05-16 12:30:22.858 -0400,10359.648244125,0.947845458984375,0.2895660400390625,0.032012939453125,1,0.97
2020-05-16 12:30:22.928 -0400,10359.71809225,0.9362945556640625,0.5004425048828125,-0.2950897216796875,1,0.97
2020-05-16 12:30:22.999 -0400,10359.78794225,1.656005859375,0.507354736328125,-0.472412109375,1,0.97
2020-05-16 12:30:23.068 -0400,10359.85779125,0.9699554443359375,0.1481170654296875,-0.5597686767578125,1,0.97
2020-05-16 12:30:23.138 -0400,10359.92763825,0.7136383056640625,0.1686248779296875,-0.49847412109375,1,0.97
2020-05-16 12:30:23.208 -0400,10359.99748625,0.716400146484375,0.5636749267578125,-0.4886474609375,1,0.97
2020-05-16 12:30:23.278 -0400,10360.06733525,0.912506103515625,0.527618408203125,-0.6678924560546875,1,0.97
2020-05-16 12:30:23.347 -0400,10360.13718325,1.20916748046875,0.5174560546875,-0.5526885986328125,1,0.97
2020-05-16 12:30:23.417 -0400,10360.20702625,1.3048095703125,0.51861572265625,-0.5627288818359375,1,0.97
2020-05-16 12:30:23.487 -0400,10360.27686925,1.46246337890625,0.529083251953125,-0.452117919921875,1,0.97
2020-05-16 12:30:23.557 -0400,10360.34671025,1.634521484375,0.298919677734375,-0.1874237060546875,1,0.97
2020-05-16 12:30:23.627 -0400,10360.41655225,0.9214324951171875,0.3193359375,-0.2241973876953125,1,0.97
2020-05-16 12:30:23.697 -0400,10360.48639125,0.5452117919921875,0.3414764404296875,-0.073883056640625,1,0.97
2020-05-16 12:30:23.766 -0400,10360.55623225,0.45428466796875,0.2807769775390625,-0.024200439453125,1,0.97
2020-05-16 12:30:23.836 -0400,10360.62607425,0.5285797119140625,0.1757049560546875,-0.000762939453125,1,0.97
2020-05-16 12:30:23.906 -0400,10360.69591525,0.7611236572265625,0.2185211181640625,0.013153076171875,1,0.97
2020-05-16 12:30:23.976 -0400,10360.76576204167,1.203811645507812,0.503570556640625,-0.2554931640625,1,0.97
2020-05-16 12:30:24.046 -0400,10360.83560804167,1.584381103515625,0.770263671875,-0.822601318359375,1,0.97
2020-05-16 12:30:24.116 -0400,10360.90545604167,1.309555053710938,0.167999267578125,-0.2409820556640625,1,0.97
2020-05-16 12:30:24.185 -0400,10360.97530004167,0.758392333984375,0.0080413818359375,-0.476348876953125,1,0.97
2020-05-16 12:30:24.260 -0400,10361.04515004167,0.446441650390625,0.526580810546875,-0.4130859375,1,0.97
2020-05-16 12:30:24.325 -0400,10361.11499804167,0.4962005615234375,0.6529541015625,-0.557373046875,1,0.97
2020-05-16 12:30:24.395 -0400,10361.18484804167,1.07257080078125,0.4194793701171875,-0.718963623046875,1,0.97
2020-05-16 12:30:24.467 -0400,10361.25469504167,1.2781982421875,-0.021026611328125,-0.4713287353515625,1,0.97
2020-05-16 12:30:24.535 -0400,10361.32454404167,1.417388916015625,0.29205322265625,-0.5523223876953125,1,0.97
2020-05-16 12:30:24.605 -0400,10361.39439204167,1.3548583984375,0.62347412109375,-0.537322998046875,1,0.97
2020-05-16 12:30:24.674 -0400,10361.46424204167,1.536834716796875,0.21746826171875,-0.129425048828125,1,0.97
2020-05-16 12:30:24.744 -0400,10361.53409204167,0.783935546875,0.118560791015625,-0.0931396484375,1,0.97
2020-05-16 12:30:24.814 -0400,10361.60393804167,0.446685791015625,0.30615234375,-0.0797882080078125,1,0.97
2020-05-16 12:30:24.884 -0400,10361.67378604167,0.544769287109375,0.319549560546875,-0.054901123046875,1,0.97
2020-05-16 12:30:24.954 -0400,10361.74363266667,0.681915283203125,0.192047119140625,-0.057098388671875,1,0.97
2020-05-16 12:30:25.024 -0400,10361.81348066667,0.803741455078125,0.163818359375,-0.1482391357421875,1,0.97
2020-05-16 12:30:25.094 -0400,10361.88332466667,1.272598266601562,0.3721160888671875,-0.22552490234375,1,0.97
2020-05-16 12:30:25.164 -0400,10361.95316766667,1.8819580078125,0.5931854248046875,-0.5938262939453125,1,0.97
2020-05-16 12:30:25.233 -0400,10362.02301566667,1.304214477539062,0.30975341796875,-0.3710784912109375,1,0.97
2020-05-16 12:30:25.303 -0400,10362.09286366667,0.729827880859375,0.26239013671875,-0.252716064453125,1,0.97
2020-05-16 12:30:25.373 -0400,10362.16270866667,0.6356048583984375,0.5844879150390625,-0.165802001953125,1,0.97
2020-05-16 12:30:25.443 -0400,10362.23255466667,0.6564483642578125,0.738128662109375,-0.1588287353515625,1,0.97
2020-05-16 12:30:25.513 -0400,10362.30239966667,0.8949737548828125,0.8069610595703125,-0.4072113037109375,1,0.97
2020-05-16 12:30:25.583 -0400,10362.37224266667,1.600296020507812,1.210372924804688,-0.7010650634765625,1,0.97
2020-05-16 12:30:25.652 -0400,10362.44208766667,1.798324584960938,0.389678955078125,-0.3619842529296875,1,0.97
2020-05-16 12:30:25.722 -0400,10362.51193366667,1.773300170898438,0.124420166015625,-0.2843170166015625,1,0.97
2020-05-16 12:30:25.792 -0400,10362.58178066667,0.9287261962890625,0.3318939208984375,-0.3392791748046875,1,0.97
2020-05-16 12:30:25.862 -0400,10362.65162966667,0.643951416015625,0.3597564697265625,-0.0789031982421875,1,0.97
2020-05-16 12:30:25.932 -0400,10362.721476,0.734893798828125,0.2954864501953125,-0.0437164306640625,1,0.97
2020-05-16 12:30:26.002 -0400,10362.791324,0.9782562255859375,0.17852783203125,-0.03094482421875,1,0.97
2020-05-16 12:30:26.072 -0400,10362.861168,0.677764892578125,0.1050872802734375,-0.0328216552734375,1,0.97
2020-05-16 12:30:26.143 -0400,10362.931013,0.95062255859375,0.3396759033203125,0.0051727294921875,1,0.97
2020-05-16 12:30:26.211 -0400,10363.000858,1.572433471679688,0.7535858154296875,-0.55523681640625,1,0.97
2020-05-16 12:30:26.281 -0400,10363.070709,1.437103271484375,0.555328369140625,-0.2525482177734375,1,0.97
2020-05-16 12:30:26.351 -0400,10363.140556,0.929656982421875,0.0557403564453125,-0.3215484619140625,1,0.97
2020-05-16 12:30:26.422 -0400,10363.210401,0.96441650390625,0.5672607421875,-0.2468109130859375,1,0.97
2020-05-16 12:30:26.491 -0400,10363.280248,0.8493804931640625,0.9850006103515625,-0.459259033203125,1,0.97
2020-05-16 12:30:26.560 -0400,10363.350097,0.865478515625,0.84832763671875,-0.6139373779296875,1,0.97
2020-05-16 12:30:26.630 -0400,10363.419947,1.656845092773438,0.974151611328125,-0.60009765625,1,0.97
2020-05-16 12:30:26.700 -0400,10363.489796,1.655715942382812,0.32977294921875,-0.421905517578125,1,0.97
2020-05-16 12:30:26.770 -0400,10363.559646,1.720138549804688,0.5370635986328125,-0.28167724609375,1,0.97
2020-05-16 12:30:26.840 -0400,10363.629496,1.021652221679688,0.3253021240234375,-0.133331298828125,1,0.97
2020-05-16 12:30:26.910 -0400,10363.699346,0.8134918212890625,0.396820068359375,-0.0124053955078125,1,0.97
2020-05-16 12:30:26.979 -0400,10363.769194375,1.029571533203125,0.3183441162109375,0.003021240234375,1,0.97
2020-05-16 12:30:27.050 -0400,10363.839037375,1.045669555664062,0.1509552001953125,0.0651702880859375,1,0.97
2020-05-16 12:30:27.119 -0400,10363.908879375,0.80859375,0.1889190673828125,-0.0331268310546875,1,0.97
2020-05-16 12:30:27.189 -0400,10363.978723375,0.673980712890625,0.3009033203125,-0.05072021484375,1,0.97
2020-05-16 12:30:27.259 -0400,10364.048569375,1.317123413085938,0.468658447265625,-0.378173828125,1,0.97
2020-05-16 12:30:27.329 -0400,10364.118421375,1.472213745117188,0.4623565673828125,-0.283477783203125,1,0.97
2020-05-16 12:30:27.398 -0400,10364.188270375,1.164642333984375,0.5380706787109375,-0.3882598876953125,1,0.97
2020-05-16 12:30:27.468 -0400,10364.258121375,1.094390869140625,0.67401123046875,-0.3837738037109375,1,0.97
2020-05-16 12:30:27.538 -0400,10364.327970375,0.963287353515625,0.724151611328125,-0.5643310546875,1,0.97
2020-05-16 12:30:27.608 -0400,10364.397819375,1.019088745117188,0.7637939453125,-0.5202484130859375,1,0.97
2020-05-16 12:30:27.678 -0400,10364.467668375,1.202102661132812,0.7631683349609375,-0.567474365234375,1,0.97
2020-05-16 12:30:27.748 -0400,10364.537517375,1.599136352539062,0.544952392578125,-0.3303375244140625,1,0.97
2020-05-16 12:30:27.818 -0400,10364.607364375,1.478317260742188,0.33697509765625,-0.1674041748046875,1,0.97
2020-05-16 12:30:27.888 -0400,10364.677206375,0.954437255859375,0.3473968505859375,-0.109649658203125,1,0.97
2020-05-16 12:30:27.957 -0400,10364.74704429167,0.94342041015625,0.446624755859375,-0.0435943603515625,1,0.97
2020-05-16 12:30:28.027 -0400,10364.81688329167,1.149627685546875,0.25201416015625,0.0678253173828125,1,0.97
2020-05-16 12:30:28.097 -0400,10364.88672529167,1.139968872070312,0.162994384765625,0.10247802734375,1,0.97
2020-05-16 12:30:28.167 -0400,10364.95656129167,0.9774627685546875,0.311859130859375,0.03704833984375,1,0.97
2020-05-16 12:30:28.237 -0400,10365.02640129167,0.7191162109375,0.460540771484375,-0.2744598388671875,1,0.97
2020-05-16 12:30:28.307 -0400,10365.09624529167,1.1536865234375,0.35833740234375,-0.364105224609375,1,0.97
2020-05-16 12:30:28.377 -0400,10365.16609029167,1.117919921875,0.143646240234375,-0.2846832275390625,1,0.97
2020-05-16 12:30:28.446 -0400,10365.23593329167,1.149612426757812,0.440216064453125,-0.3753814697265625,1,0.97
2020-05-16 12:30:28.516 -0400,10365.30577529167,1.052337646484375,0.93975830078125,-0.424468994140625,1,0.97
2020-05-16 12:30:28.586 -0400,10365.37562029167,1.077713012695312,0.7465972900390625,-0.4133453369140625,1,0.97
2020-05-16 12:30:28.656 -0400,10365.44546429167,1.136199951171875,0.9368743896484375,-0.4382171630859375,1,0.97
2020-05-16 12:30:28.726 -0400,10365.51530829167,1.124908447265625,0.6497802734375,-0.3415679931640625,1,0.97
2020-05-16 12:30:28.795 -0400,10365.58515129167,1.452178955078125,0.401214599609375,-0.2944488525390625,1,0.97
2020-05-16 12:30:28.865 -0400,10365.65499829167,1.446395874023438,0.4991912841796875,-0.30224609375,1,0.97
2020-05-16 12:30:28.935 -0400,10365.72484475,0.8629608154296875,0.293548583984375,-0.1148223876953125,1,0.97
2020-05-16 12:30:29.005 -0400,10365.79469175,0.991607666015625,0.4409332275390625,-0.0816192626953125,1,0.97
2020-05-16 12:30:29.075 -0400,10365.86453675,1.028488159179688,0.210662841796875,0.04547119140625,1,0.97
2020-05-16 12:30:29.145 -0400,10365.93438275,0.894744873046875,0.2244415283203125,0.0953216552734375,1,0.97
2020-05-16 12:30:29.214 -0400,10366.00422675,0.522003173828125,0.2860107421875,-0.02423095703125,1,0.97
2020-05-16 12:30:29.285 -0400,10366.07407475,0.796173095703125,0.23095703125,-0.1127166748046875,1,0.97
2020-05-16 12:30:29.354 -0400,10366.14391975,1.370132446289062,0.3112945556640625,-0.106658935546875,1,0.97
2020-05-16 12:30:29.424 -0400,10366.21376475,1.830841064453125,0.4234619140625,-0.6278533935546875,1,0.97
2020-05-16 12:30:29.494 -0400,10366.28361075,1.172317504882812,0.3641815185546875,-0.344268798828125,1,0.97
2020-05-16 12:30:29.563 -0400,10366.35345775,0.9222564697265625,0.5732879638671875,-0.326171875,1,0.97
2020-05-16 12:30:29.634 -0400,10366.42330375,0.9232330322265625,0.667816162109375,-0.4526824951171875,1,0.97
2020-05-16 12:30:29.703 -0400,10366.49315075,0.82769775390625,0.7462921142578125,-0.5761871337890625,1,0.97
2020-05-16 12:30:29.773 -0400,10366.56299875,1.62396240234375,0.954254150390625,-0.7217254638671875,1,0.97
2020-05-16 12:30:29.843 -0400,10366.63284675,1.777313232421875,0.4143218994140625,-0.434478759765625,1,0.97
2020-05-16 12:30:29.913 -0400,10366.70269175,2.001190185546875,0.3467559814453125,-0.2429962158203125,1,0.97
2020-05-16 12:30:29.983 -0400,10366.772536875,1.278549194335938,0.4293212890625,-0.18939208984375,1,0.97
2020-05-16 12:30:30.053 -0400,10366.842381875,0.879608154296875,0.3666534423828125,-0.0210113525390625,1,0.97
2020-05-16 12:30:30.122 -0400,10366.912228875,1.018157958984375,0.36334228515625,0.01483154296875,1,0.97
2020-05-16 12:30:30.192 -0400,10366.982075875,1.11676025390625,0.1908721923828125,0.0485076904296875,1,0.97
2020-05-16 12:30:30.262 -0400,10367.051921875,0.8261871337890625,0.103851318359375,0.0308685302734375,1,0.97
2020-05-16 12:30:30.332 -0400,10367.121768875,0.7305450439453125,0.250091552734375,-0.006927490234375,1,0.97
2020-05-16 12:30:30.402 -0400,10367.191618875,1.140090942382812,0.4578704833984375,-0.3429718017578125,1,0.97
2020-05-16 12:30:30.472 -0400,10367.261463875,1.614105224609375,0.428741455078125,-0.2347412109375,1,0.97
2020-05-16 12:30:30.541 -0400,10367.331310875,1.344955444335938,0.370513916015625,-0.3708648681640625,1,0.97
2020-05-16 12:30:30.611 -0400,10367.401160875,1.250656127929688,0.7109527587890625,-0.3947906494140625,1,0.97
2020-05-16 12:30:30.681 -0400,10367.471007875,1.005172729492188,0.689910888671875,-0.59197998046875,1,0.97
2020-05-16 12:30:30.751 -0400,10367.540851875,0.790374755859375,0.676513671875,-0.7450714111328125,1,0.97
2020-05-16 12:30:30.821 -0400,10367.610695875,0.98992919921875,0.8215484619140625,-0.6573944091796875,1,0.97
2020-05-16 12:30:30.891 -0400,10367.680545875,1.593185424804688,0.575439453125,-0.5839691162109375,1,0.97
2020-05-16 12:30:30.961 -0400,10367.7503935,1.948150634765625,0.1079864501953125,-0.3292236328125,1,0.97
2020-05-16 12:30:31.030 -0400,10367.8202405,1.853179931640625,0.4913330078125,-0.2313995361328125,1,0.97
2020-05-16 12:30:31.100 -0400,10367.8900895,1.125701904296875,0.3724517822265625,-0.03900146484375,1,0.97
2020-05-16 12:30:31.170 -0400,10367.9599365,0.9055328369140625,0.41253662109375,0.04022216796875,1,0.97
2020-05-16 12:30:31.240 -0400,10368.0297845,0.770416259765625,0.2350311279296875,0.06451416015625,1,0.97
2020-05-16 12:30:31.311 -0400,10368.0996365,0.7000579833984375,0.1376190185546875,0.076263427734375,1,0.97
2020-05-16 12:30:31.380 -0400,10368.1694875,0.496734619140625,0.1520538330078125,-0.10003662109375,1,0.97
2020-05-16 12:30:31.450 -0400,10368.2393365,0.6912994384765625,0.3465728759765625,-0.1655426025390625,1,0.97
2020-05-16 12:30:31.519 -0400,10368.3091855,1.275360107421875,0.7415771484375,-0.4517059326171875,1,0.97
2020-05-16 12:30:31.589 -0400,10368.3790385,1.596298217773438,0.7076873779296875,-0.413360595703125,1,0.97
2020-05-16 12:30:31.659 -0400,10368.4488895,1.107086181640625,0.5933074951171875,-0.488433837890625,1,0.97
2020-05-16 12:30:31.729 -0400,10368.5187385,0.940521240234375,0.669891357421875,-0.4304962158203125,1,0.97
2020-05-16 12:30:31.799 -0400,10368.5885875,0.983367919921875,0.64752197265625,-0.457366943359375,1,0.97
2020-05-16 12:30:31.869 -0400,10368.6584375,1.090347290039062,0.7918853759765625,-0.5677947998046875,1,0.97
2020-05-16 12:30:31.938 -0400,10368.728287625,1.569305419921875,0.8224639892578125,-0.69384765625,1,0.97
2020-05-16 12:30:32.008 -0400,10368.798135625,1.480758666992188,0.21954345703125,-0.3318939208984375,1,0.97
2020-05-16 12:30:32.078 -0400,10368.867981625,1.531829833984375,0.3972320556640625,-0.2566070556640625,1,0.97
2020-05-16 12:30:32.148 -0400,10368.937827625,0.8777313232421875,0.355804443359375,-0.1800994873046875,1,0.97
2020-05-16 12:30:32.218 -0400,10369.007675625,0.64080810546875,0.3125,-0.0233001708984375,1,0.97
2020-05-16 12:30:32.288 -0400,10369.077522625,0.75537109375,0.2444610595703125,0.0073699951171875,1,0.97
2020-05-16 12:30:32.358 -0400,10369.147373625,0.7207489013671875,0.164276123046875,0.081787109375,1,0.97
2020-05-16 12:30:32.428 -0400,10369.217222625,0.7368927001953125,0.2351837158203125,0.0260009765625,1,0.97
2020-05-16 12:30:32.498 -0400,10369.287072625,1.1240234375,0.4398651123046875,-0.0977325439453125,1,0.97
2020-05-16 12:30:32.567 -0400,10369.356922625,1.87091064453125,0.6318359375,-0.5388641357421875,1,0.97
2020-05-16 12:30:32.637 -0400,10369.426769625,1.289566040039062,0.1196136474609375,-0.317840576171875,1,0.97
2020-05-16 12:30:32.707 -0400,10369.496621625,0.766845703125,0.2855072021484375,-0.457672119140625,1,0.97
2020-05-16 12:30:32.777 -0400,10369.566470625,0.647857666015625,0.676666259765625,-0.3736419677734375,1,0.97
2020-05-16 12:30:32.847 -0400,10369.636319625,0.7758636474609375,0.5504302978515625,-0.4287872314453125,1,0.97
2020-05-16 12:30:32.916 -0400,10369.706170625,1.193023681640625,0.4602203369140625,-0.4886627197265625,1,0.97
2020-05-16 12:30:32.986 -0400,10369.77602025,1.524703979492188,0.630035400390625,-0.5589599609375,1,0.97
2020-05-16 12:30:33.056 -0400,10369.84586725,1.436630249023438,0.5340118408203125,-0.5489044189453125,1,0.97
2020-05-16 12:30:33.126 -0400,10369.91571725,1.604171752929688,0.190277099609375,-0.1767120361328125,1,0.97
2020-05-16 12:30:33.196 -0400,10369.98556525,0.954833984375,0.2484130859375,-0.1379852294921875,1,0.97
2020-05-16 12:30:33.266 -0400,10370.05541225,0.5786895751953125,0.3606414794921875,-0.0629730224609375,1,0.97
2020-05-16 12:30:33.336 -0400,10370.12525925,0.6489715576171875,0.383270263671875,0.018218994140625,1,0.97
2020-05-16 12:30:33.406 -0400,10370.19511125,1.024658203125,0.2758941650390625,0.0467529296875,1,0.97
2020-05-16 12:30:33.475 -0400,10370.26495525,1.068771362304688,0.218231201171875,0.012939453125,1,0.97
2020-05-16 12:30:33.545 -0400,10370.33480625,1.316024780273438,0.34588623046875,-0.076171875,1,0.97
2020-05-16 12:30:33.615 -0400,10370.40465825,1.142730712890625,0.5147552490234375,-0.6491851806640625,1,0.97
2020-05-16 12:30:33.685 -0400,10370.47451425,1.12359619140625,0.133819580078125,-0.3252105712890625,1,0.97
2020-05-16 12:30:33.755 -0400,10370.54436825,0.878021240234375,0.11651611328125,-0.401336669921875,1,0.97
2020-05-16 12:30:33.825 -0400,10370.61422425,0.663543701171875,0.454681396484375,-0.4014739990234375,1,0.97
2020-05-16 12:30:33.894 -0400,10370.68407925,0.7219390869140625,0.58282470703125,-0.40472412109375,1,0.97
2020-05-16 12:30:33.964 -0400,10370.75393141667,1.040679931640625,0.4167633056640625,-0.3661956787109375,1,0.97
2020-05-16 12:30:34.034 -0400,10370.82378141667,1.353775024414062,0.4894256591796875,-0.372161865234375,1,0.97
2020-05-16 12:30:34.104 -0400,10370.89363341667,1.052505493164062,0.578125,-0.4256744384765625,1,0.97
2020-05-16 12:30:34.174 -0400,10370.96348141667,1.303176879882812,0.54107666015625,-0.4114990234375,1,0.97
2020-05-16 12:30:34.244 -0400,10371.03332841667,1.190780639648438,0.2786102294921875,-0.22528076171875,1,0.97
2020-05-16 12:30:34.314 -0400,10371.10317941667,0.8630523681640625,0.2919921875,-0.2110748291015625,1,0.97
2020-05-16 12:30:34.383 -0400,10371.17302741667,0.708404541015625,0.27447509765625,-0.100738525390625,1,0.97
2020-05-16 12:30:34.453 -0400,10371.24287841667,0.87738037109375,0.2446441650390625,-0.0724029541015625,1,0.97
2020-05-16 12:30:34.523 -0400,10371.31272941667,1.248153686523438,0.2332916259765625,0.0152587890625,1,0.97
2020-05-16 12:30:34.593 -0400,10371.38258441667,1.190032958984375,0.2677154541015625,0.1167144775390625,1,0.97
2020-05-16 12:30:34.663 -0400,10371.45243541667,0.6698150634765625,0.4946136474609375,-0.2483673095703125,1,0.97
2020-05-16 12:30:34.733 -0400,10371.52228441667,0.971893310546875,0.5323944091796875,-0.443511962890625,1,0.97
2020-05-16 12:30:34.802 -0400,10371.59213241667,1.066070556640625,0.306488037109375,-0.565460205078125,1,0.97
2020-05-16 12:30:34.872 -0400,10371.66198241667,0.572723388671875,0.09320068359375,-0.430267333984375,1,0.97
2020-05-16 12:30:34.942 -0400,10371.731835625,0.6119842529296875,0.45654296875,-0.5728302001953125,1,0.97
2020-05-16 12:30:35.012 -0400,10371.801682625,1.014312744140625,0.9280548095703125,-0.84698486328125,1,0.97
2020-05-16 12:30:35.082 -0400,10371.871528625,1.27459716796875,0.307586669921875,-0.5464019775390625,1,0.97
2020-05-16 12:30:35.152 -0400,10371.941371625,1.4776611328125,0.5132598876953125,-0.4520263671875,1,0.97
2020-05-16 12:30:35.222 -0400,10372.011221625,1.26763916015625,0.4785308837890625,-0.3747406005859375,1,0.97
2020-05-16 12:30:35.305 -0400,10372.081069625,1.389389038085938,0.543243408203125,-0.262481689453125,1,0.97
2020-05-16 12:30:35.361 -0400,10372.150917625,0.8203582763671875,0.21844482421875,-0.151397705078125,1,0.97
2020-05-16 12:30:35.431 -0400,10372.220768625,0.8227996826171875,0.2977447509765625,-0.142547607421875,1,0.97
2020-05-16 12:30:35.501 -0400,10372.290622625,0.99420166015625,0.13531494140625,0.005950927734375,1,0.97
2020-05-16 12:30:35.571 -0400,10372.360473625,0.898834228515625,0.1272735595703125,0.01702880859375,1,0.97
2020-05-16 12:30:35.641 -0400,10372.430324625,1.0843505859375,0.2137298583984375,0.0325164794921875,1,0.97
2020-05-16 12:30:35.710 -0400,10372.500175625,0.9423065185546875,0.8800201416015625,-0.2889862060546875,1,0.97
2020-05-16 12:30:35.780 -0400,10372.570025625,1.159652709960938,0.485198974609375,-0.42718505859375,1,0.97
2020-05-16 12:30:35.850 -0400,10372.639871625,1.057708740234375,0.535552978515625,-0.367156982421875,1,0.97
2020-05-16 12:30:35.920 -0400,10372.709721625,0.7445831298828125,0.6246185302734375,-0.4054718017578125,1,0.97
2020-05-16 12:30:35.990 -0400,10372.779575,0.7636871337890625,0.7816619873046875,-0.617431640625,1,0.97
2020-05-16 12:30:36.060 -0400,10372.849428,1.090744018554688,0.741912841796875,-0.647979736328125,1,0.97
2020-05-16 12:30:36.130 -0400,10372.919279,1.150634765625,0.4506683349609375,-0.58251953125,1,0.97
2020-05-16 12:30:36.199 -0400,10372.989132,1.718978881835938,0.6591949462890625,-0.829833984375,1,0.97
2020-05-16 12:30:36.269 -0400,10373.058979,1.622482299804688,0.293121337890625,-0.2608642578125,1,0.97
2020-05-16 12:30:36.341 -0400,10373.128826,1.473251342773438,0.1706390380859375,-0.106109619140625,1,0.97
2020-05-16 12:30:36.409 -0400,10373.198675,0.727020263671875,0.3659210205078125,-0.127655029296875,1,0.97
2020-05-16 12:30:36.479 -0400,10373.268526,0.501312255859375,0.353759765625,0.031005859375,1,0.97
2020-05-16 12:30:36.549 -0400,10373.338379,0.5677337646484375,0.2528533935546875,0.0856170654296875,1,0.97
2020-05-16 12:30:36.619 -0400,10373.408224,0.9036102294921875,0.2561187744140625,0.01177978515625,1,0.97
2020-05-16 12:30:36.688 -0400,10373.478071,1.053146362304688,0.2503814697265625,-0.2035064697265625,1,0.97
2020-05-16 12:30:36.758 -0400,10373.547919,1.217376708984375,0.372772216796875,-0.372314453125,1,0.97
2020-05-16 12:30:36.828 -0400,10373.61777,1.591537475585938,0.3563232421875,-0.4130706787109375,1,0.97
2020-05-16 12:30:36.898 -0400,10373.68762,1.044708251953125,0.2592315673828125,-0.3938446044921875,1,0.97
2020-05-16 12:30:36.968 -0400,10373.757471375,0.6846771240234375,0.4254302978515625,-0.301971435546875,1,0.97
2020-05-16 12:30:37.038 -0400,10373.827327375,0.65533447265625,0.5700531005859375,-0.2071380615234375,1,0.97
2020-05-16 12:30:37.107 -0400,10373.897179375,0.913726806640625,0.6435394287109375,-0.3665313720703125,1,0.97
2020-05-16 12:30:37.177 -0400,10373.967029375,1.134628295898438,0.6740570068359375,-0.4776763916015625,1,0.97
2020-05-16 12:30:37.247 -0400,10374.036874375,1.739044189453125,0.9874114990234375,-0.6103973388671875,1,0.97
2020-05-16 12:30:37.317 -0400,10374.106719375,1.245452880859375,0.4630279541015625,-0.4395599365234375,1,0.97
2020-05-16 12:30:37.387 -0400,10374.176567375,1.47625732421875,0.31622314453125,-0.124725341796875,1,0.97
2020-05-16 12:30:37.457 -0400,10374.246418375,0.9307861328125,0.3644866943359375,-0.260284423828125,1,0.97
2020-05-16 12:30:37.527 -0400,10374.316266375,0.6367340087890625,0.3375396728515625,-0.0120086669921875,1,0.97
2020-05-16 12:30:37.597 -0400,10374.386112375,0.740966796875,0.35858154296875,-0.0043182373046875,1,0.97
2020-05-16 12:30:37.666 -0400,10374.455959375,1.28472900390625,0.261199951171875,-0.0113677978515625,1,0.97
2020-05-16 12:30:37.736 -0400,10374.525804375,0.9405364990234375,0.1731109619140625,-0.051910400390625,1,0.97
2020-05-16 12:30:37.806 -0400,10374.595650375,1.039154052734375,0.3705596923828125,-0.060394287109375,1,0.97
2020-05-16 12:30:37.876 -0400,10374.665496375,0.8101959228515625,0.492950439453125,-0.37646484375,1,0.97
2020-05-16 12:30:37.946 -0400,10374.73534725,1.098175048828125,0.5167999267578125,-0.32135009765625,1,0.97
2020-05-16 12:30:38.015 -0400,10374.80519625,0.8539886474609375,0.3380279541015625,-0.279876708984375,1,0.97
2020-05-16 12:30:38.085 -0400,10374.87504325,0.6900787353515625,0.53363037109375,-0.3363800048828125,1,0.97
2020-05-16 12:30:38.155 -0400,10374.94489325,0.9996490478515625,0.677276611328125,-0.4247283935546875,1,0.97
2020-05-16 12:30:38.225 -0400,10375.01474325,0.93157958984375,0.6910400390625,-0.5810699462890625,1,0.97
2020-05-16 12:30:38.300 -0400,10375.08459225,2.064483642578125,1.135589599609375,-0.75146484375,1,0.97
2020-05-16 12:30:38.365 -0400,10375.15444225,1.69989013671875,0.2647705078125,-0.3198699951171875,1,0.97
2020-05-16 12:30:38.434 -0400,10375.22429225,1.379013061523438,0.478271484375,-0.2390289306640625,1,0.97
2020-05-16 12:30:38.504 -0400,10375.29414125,0.70489501953125,0.4151611328125,-0.1620025634765625,1,0.97
2020-05-16 12:30:38.574 -0400,10375.36398825,0.5247039794921875,0.3149871826171875,0.034637451171875,1,0.97
2020-05-16 12:30:38.644 -0400,10375.43383625,0.753326416015625,0.242706298828125,0.0157012939453125,1,0.97
2020-05-16 12:30:38.714 -0400,10375.50368925,1.042373657226562,0.258575439453125,0.08673095703125,1,0.97
2020-05-16 12:30:38.784 -0400,10375.57354025,0.9830169677734375,0.233642578125,0.0174407958984375,1,0.97
2020-05-16 12:30:38.854 -0400,10375.64338925,0.771209716796875,0.5254974365234375,-0.3188629150390625,1,0.97
2020-05-16 12:30:38.923 -0400,10375.71323425,1.416488647460938,0.551055908203125,-0.3758544921875,1,0.97
2020-05-16 12:30:38.993 -0400,10375.783081125,1.188461303710938,0.1696014404296875,-0.3144073486328125,1,0.97
2020-05-16 12:30:39.063 -0400,10375.852930125,0.64288330078125,0.2673187255859375,-0.372100830078125,1,0.97
2020-05-16 12:30:39.133 -0400,10375.922781125,0.550933837890625,0.6041259765625,-0.3087158203125,1,0.97
2020-05-16 12:30:39.203 -0400,10375.992630125,0.81719970703125,0.7447967529296875,-0.4857177734375,1,0.97
2020-05-16 12:30:39.273 -0400,10376.062481125,1.159500122070312,0.70965576171875,-0.760101318359375,1,0.97
2020-05-16 12:30:39.343 -0400,10376.132328125,1.88555908203125,0.4976043701171875,-0.64361572265625,1,0.97
2020-05-16 12:30:39.412 -0400,10376.202175125,1.4930419921875,0.402801513671875,-0.3336181640625,1,0.97
2020-05-16 12:30:39.482 -0400,10376.272023125,1.441848754882812,0.52587890625,-0.2637786865234375,1,0.97
2020-05-16 12:30:39.552 -0400,10376.341870125,0.7930450439453125,0.343902587890625,-0.105072021484375,1,0.97
2020-05-16 12:30:39.622 -0400,10376.411717125,0.576171875,0.35552978515625,0.0387725830078125,1,0.97
2020-05-16 12:30:39.692 -0400,10376.481564125,0.744049072265625,0.2825469970703125,0.0513153076171875,1,0.97
2020-05-16 12:30:39.762 -0400,10376.551411125,1.03179931640625,0.25164794921875,0.027069091796875,1,0.97
2020-05-16 12:30:39.832 -0400,10376.621259125,1.049468994140625,0.2345123291015625,-0.01019287109375,1,0.97
2020-05-16 12:30:39.901 -0400,10376.691107125,0.9697113037109375,0.4697265625,-0.31719970703125,1,0.97
2020-05-16 12:30:39.971 -0400,10376.76095616667,1.329910278320312,0.4434051513671875,-0.4457244873046875,1,0.97
2020-05-16 12:30:40.041 -0400,10376.83081316667,0.993499755859375,0.17291259765625,-0.3249969482421875,1,0.97
2020-05-16 12:30:40.111 -0400,10376.90066816667,0.77392578125,-0.1731414794921875,-0.4644317626953125,1,0.97
2020-05-16 12:30:40.181 -0400,10376.97052216667,0.7624359130859375,0.6583709716796875,-0.329071044921875,1,0.97
2020-05-16 12:30:40.251 -0400,10377.04037516667,1.00079345703125,0.51214599609375,-0.504425048828125,1,0.97
2020-05-16 12:30:40.321 -0400,10377.11023016667,1.234359741210938,0.626434326171875,-0.5667877197265625,1,0.97
2020-05-16 12:30:40.390 -0400,10377.18008416667,1.6302490234375,0.790252685546875,-0.5822296142578125,1,0.97
2020-05-16 12:30:40.460 -0400,10377.24993616667,1.182342529296875,0.2151336669921875,-0.3040771484375,1,0.97
2020-05-16 12:30:40.530 -0400,10377.31979016667,1.215835571289062,0.400665283203125,-0.2059478759765625,1,0.97
2020-05-16 12:30:40.600 -0400,10377.38964216667,0.79144287109375,0.3584442138671875,-0.158447265625,1,0.97
2020-05-16 12:30:40.670 -0400,10377.45949316667,0.6274871826171875,0.3364410400390625,0.022186279296875,1,0.97
2020-05-16 12:30:40.740 -0400,10377.52934216667,0.6785430908203125,0.2785797119140625,0.0504150390625,1,0.97
2020-05-16 12:30:40.809 -0400,10377.59919216667,0.887481689453125,0.312530517578125,0.0014495849609375,1,0.97
2020-05-16 12:30:40.879 -0400,10377.66904416667,1.019302368164062,0.2803802490234375,-0.0549774169921875,1,0.97
2020-05-16 12:30:40.949 -0400,10377.73889791667,0.97607421875,0.37420654296875,-0.2097625732421875,1,0.97
2020-05-16 12:30:41.019 -0400,10377.80874991667,1.312606811523438,0.52374267578125,-0.4757537841796875,1,0.97
2020-05-16 12:30:41.089 -0400,10377.87860091667,1.141677856445312,0.2912445068359375,-0.2937774658203125,1,0.97
2020-05-16 12:30:41.159 -0400,10377.94845191667,0.647705078125,0.1920013427734375,-0.3938751220703125,1,0.97
2020-05-16 12:30:41.229 -0400,10378.01830291667,0.535247802734375,0.6676788330078125,-0.254241943359375,1,0.97
2020-05-16 12:30:41.298 -0400,10378.08815591667,0.8167724609375,0.6588134765625,-0.348968505859375,1,0.97
2020-05-16 12:30:41.368 -0400,10378.15800991667,1.02392578125,0.474151611328125,-0.4525146484375,1,0.97
2020-05-16 12:30:41.438 -0400,10378.22786191667,1.420013427734375,0.509246826171875,-0.36456298828125,1,0.97
2020-05-16 12:30:41.508 -0400,10378.29771491667,1.236541748046875,0.587860107421875,-0.4723052978515625,1,0.97
2020-05-16 12:30:41.578 -0400,10378.36756591667,1.333221435546875,0.547119140625,-0.2698822021484375,1,0.97
2020-05-16 12:30:41.648 -0400,10378.43742091667,1.001937866210938,0.2296905517578125,-0.1740570068359375,1,0.97
2020-05-16 12:30:41.718 -0400,10378.50727691667,0.6522674560546875,0.4869232177734375,-0.1302337646484375,1,0.97
2020-05-16 12:30:41.787 -0400,10378.57713091667,0.702545166015625,0.43017578125,-0.0141754150390625,1,0.97
2020-05-16 12:30:41.857 -0400,10378.64698591667,0.8812713623046875,0.673797607421875,-0.2492218017578125,1,0.97
2020-05-16 12:30:41.927 -0400,10378.71683491667,0.7794342041015625,0.6177825927734375,-0.5387725830078125,1,0.97
2020-05-16 12:30:41.997 -0400,10378.78668525,0.5972747802734375,0.36114501953125,-0.8817596435546875,1,0.97
2020-05-16 12:30:42.067 -0400,10378.85653625,0.5900726318359375,0.216522216796875,-0.953521728515625,1,0.97
2020-05-16 12:30:42.137 -0400,10378.92638925,0.4112091064453125,0.110992431640625,-0.7793121337890625,1,0.97
2020-05-16 12:30:42.207 -0400,10378.99624425,0.131561279296875,-0.01068115234375,-0.5897064208984375,1,0.97
2020-05-16 12:30:42.276 -0400,10379.06609825,0.089813232421875,-0.120849609375,-0.655548095703125,1,0.97
2020-05-16 12:30:42.353 -0400,10379.13594925,0.0694122314453125,-0.01336669921875,-1.032546997070312,1,0.97
2020-05-16 12:30:42.426 -0400,10379.21578225,0.023834228515625,0.1219940185546875,-1.318344116210938,1,0.97
2020-05-16 12:30:42.546 -0400,10379.33552625,0.2334747314453125,0.37017822265625,-1.210556030273438,1,0.97
2020-05-16 12:30:42.666 -0400,10379.45527225,0.089691162109375,0.1707611083984375,-0.8288116455078125,1,0.97
2020-05-16 12:30:42.785 -0400,10379.57502725,-0.0040740966796875,0.0055999755859375,-0.554290771484375,1,0.97
2020-05-16 12:30:42.905 -0400,10379.69478125,0.2438201904296875,0.1621246337890625,-0.59796142578125,1,0.97
2020-05-16 12:30:43.025 -0400,10379.814533,0.8968505859375,0.3913116455078125,-0.977630615234375,1,0.97
2020-05-16 12:30:43.145 -0400,10379.93428,1.18121337890625,0.4753570556640625,-0.758544921875,1,0.97
2020-05-16 12:30:43.265 -0400,10380.054028,0.678436279296875,0.62493896484375,-0.168609619140625,1,0.97
2020-05-16 12:30:43.384 -0400,10380.17378,0.721923828125,0.63165283203125,-0.105316162109375,1,0.97
2020-05-16 12:30:43.504 -0400,10380.293534,1.116195678710938,0.568878173828125,-0.2994384765625,1,0.97
2020-05-16 12:30:43.624 -0400,10380.413286,1.290542602539062,0.6092681884765625,-0.4146881103515625,1,0.97
2020-05-16 12:30:43.743 -0400,10380.533039,0.9955902099609375,0.205230712890625,-0.2261199951171875,1,0.97
2020-05-16 12:30:43.870 -0400,10380.652788,0.5801544189453125,0.3272552490234375,-0.141876220703125,1,0.97
2020-05-16 12:30:43.934 -0400,10380.722639,0.8653106689453125,0.2578582763671875,-0.1238861083984375,1,0.97
2020-05-16 12:30:44.003 -0400,10380.79249204167,1.073516845703125,0.189178466796875,0.01446533203125,1,0.97
2020-05-16 12:30:44.073 -0400,10380.86234404167,1.23419189453125,0.295562744140625,0.0430450439453125,1,0.97
2020-05-16 12:30:44.142 -0400,10380.93219604167,1.20294189453125,0.736663818359375,-0.32781982421875,1,0.97
2020-05-16 12:30:44.212 -0400,10381.00205104167,1.424514770507812,0.3299102783203125,-0.209869384765625,1,0.97
2020-05-16 12:30:44.282 -0400,10381.07190204167,0.7394866943359375,0.1382293701171875,-0.222442626953125,1,0.97
2020-05-16 12:30:44.352 -0400,10381.14175904167,0.5809326171875,0.35601806640625,-0.1654052734375,1,0.97
2020-05-16 12:30:44.422 -0400,10381.21161504167,0.7451934814453125,0.62347412109375,-0.28057861328125,1,0.97
2020-05-16 12:30:44.492 -0400,10381.28147104167,0.9075164794921875,0.645233154296875,-0.44915771484375,1,0.97
2020-05-16 12:30:44.562 -0400,10381.35132804167,1.485153198242188,0.7646484375,-0.5080718994140625,1,0.97
2020-05-16 12:30:44.631 -0400,10381.42117904167,1.329833984375,0.351959228515625,-0.526763916015625,1,0.97
2020-05-16 12:30:44.701 -0400,10381.49103204167,1.536911010742188,0.138946533203125,-0.2041473388671875,1,0.97
2020-05-16 12:30:44.772 -0400,10381.56089004167,1.17279052734375,0.259857177734375,-0.2264404296875,1,0.97
2020-05-16 12:30:44.841 -0400,10381.63074804167,0.671234130859375,0.36322021484375,-0.13836669921875,1,0.97
2020-05-16 12:30:44.911 -0400,10381.70060404167,0.6116943359375,0.3578338623046875,-0.007537841796875,1,0.97
2020-05-16 12:30:44.981 -0400,10381.7704615,0.752471923828125,0.2557373046875,-0.0064849853515625,1,0.97
2020-05-16 12:30:45.051 -0400,10381.8403185,0.9557037353515625,0.1720123291015625,0.07958984375,1,0.97
2020-05-16 12:30:45.121 -0400,10381.9101735,1.21429443359375,0.32867431640625,-0.0058746337890625,1,0.97
2020-05-16 12:30:45.190 -0400,10381.9800245,1.177993774414062,0.5722808837890625,-0.3069915771484375,1,0.97
2020-05-16 12:30:45.260 -0400,10382.0498755,1.569320678710938,0.5774993896484375,-0.372955322265625,1,0.97
2020-05-16 12:30:45.330 -0400,10382.1197305,0.8465728759765625,0.15692138671875,-0.3047027587890625,1,0.97
2020-05-16 12:30:45.400 -0400,10382.1895815,0.65521240234375,0.3055572509765625,-0.2574462890625,1,0.97
2020-05-16 12:30:45.470 -0400,10382.2594355,0.693603515625,0.63897705078125,-0.3565826416015625,1,0.97
2020-05-16 12:30:45.539 -0400,10382.3292885,0.933868408203125,0.6473846435546875,-0.5780029296875,1,0.97
2020-05-16 12:30:45.609 -0400,10382.3991425,1.29949951171875,0.4491729736328125,-0.42877197265625,1,0.97
2020-05-16 12:30:45.679 -0400,10382.4689995,1.38677978515625,0.49468994140625,-0.491729736328125,1,0.97
2020-05-16 12:30:45.749 -0400,10382.5388575,1.392135620117188,0.5058746337890625,-0.3604736328125,1,0.97
2020-05-16 12:30:45.819 -0400,10382.6087165,1.3709716796875,0.2241058349609375,-0.1442718505859375,1,0.97
2020-05-16 12:30:45.889 -0400,10382.6785725,0.7092742919921875,0.274993896484375,-0.1322784423828125,1,0.97
2020-05-16 12:30:45.959 -0400,10382.748429625,0.5509033203125,0.3419342041015625,-0.0308685302734375,1,0.97
2020-05-16 12:30:46.029 -0400,10382.818283625,0.7443389892578125,0.261260986328125,0.0246734619140625,1,0.97
2020-05-16 12:30:46.098 -0400,10382.888136625,0.9810028076171875,0.188262939453125,0.103515625,1,0.97
2020-05-16 12:30:46.168 -0400,10382.957991625,1.168991088867188,0.316741943359375,0.0635223388671875,1,0.97
2020-05-16 12:30:46.238 -0400,10383.027842625,1.1348876953125,0.52667236328125,-0.2619781494140625,1,0.97
2020-05-16 12:30:46.308 -0400,10383.097692625,1.433425903320312,0.4846343994140625,-0.3312530517578125,1,0.97
2020-05-16 12:30:46.378 -0400,10383.167541625,0.8006744384765625,0.370574951171875,-0.348236083984375,1,0.97
2020-05-16 12:30:46.448 -0400,10383.237396625,0.555450439453125,0.2150726318359375,-0.35498046875,1,0.97
2020-05-16 12:30:46.518 -0400,10383.307253625,0.7102813720703125,0.519256591796875,-0.4597320556640625,1,0.97
2020-05-16 12:30:46.587 -0400,10383.377108625,0.91058349609375,0.643218994140625,-0.65216064453125,1,0.97
2020-05-16 12:30:46.657 -0400,10383.446964625,1.319900512695312,0.518218994140625,-0.5288848876953125,1,0.97
2020-05-16 12:30:46.727 -0400,10383.516819625,1.34967041015625,0.3403167724609375,-0.4564666748046875,1,0.97
2020-05-16 12:30:46.797 -0400,10383.586669625,1.527786254882812,0.34375,-0.2264862060546875,1,0.97
2020-05-16 12:30:46.867 -0400,10383.656521625,1.23468017578125,0.3425140380859375,-0.1650543212890625,1,0.97
2020-05-16 12:30:46.936 -0400,10383.726375625,0.6525421142578125,0.371734619140625,-0.121795654296875,1,0.97
2020-05-16 12:30:47.006 -0400,10383.796227375,0.623687744140625,0.3372650146484375,0.007568359375,1,0.97
2020-05-16 12:30:47.076 -0400,10383.866080375,0.6949310302734375,0.21661376953125,0.0307464599609375,1,0.97
2020-05-16 12:30:47.146 -0400,10383.935932375,0.87420654296875,0.1671295166015625,0.1211395263671875,1,0.97
2020-05-16 12:30:47.216 -0400,10384.005782375,1.09844970703125,0.3652496337890625,0.009124755859375,1,0.97
2020-05-16 12:30:47.286 -0400,10384.075632375,1.337677001953125,0.58892822265625,-0.3336639404296875,1,0.97
2020-05-16 12:30:47.356 -0400,10384.145483375,1.539932250976562,0.536407470703125,-0.31414794921875,1,0.97
2020-05-16 12:30:47.425 -0400,10384.215333375,0.81719970703125,0.3041534423828125,-0.3001861572265625,1,0.97
2020-05-16 12:30:47.496 -0400,10384.285179375,0.5278167724609375,0.3829193115234375,-0.30853271484375,1,0.97
2020-05-16 12:30:47.565 -0400,10384.355026375,0.5659027099609375,0.6042938232421875,-0.3560638427734375,1,0.97
2020-05-16 12:30:47.635 -0400,10384.424873375,1.045166015625,0.7378692626953125,-0.5631561279296875,1,0.97
2020-05-16 12:30:47.705 -0400,10384.494720375,1.53179931640625,0.50445556640625,-0.5297393798828125,1,0.97
2020-05-16 12:30:47.775 -0400,10384.564565375,1.388015747070312,0.3851776123046875,-0.433502197265625,1,0.97
2020-05-16 12:30:47.845 -0400,10384.634414375,1.386825561523438,0.435333251953125,-0.264251708984375,1,0.97
2020-05-16 12:30:47.914 -0400,10384.704263375,1.258071899414062,0.33624267578125,-0.175384521484375,1,0.97
2020-05-16 12:30:47.984 -0400,10384.77410975,0.7254180908203125,0.2941436767578125,-0.067535400390625,1,0.97
2020-05-16 12:30:48.054 -0400,10384.84395475,0.610260009765625,0.3173675537109375,0.0120391845703125,1,0.97
2020-05-16 12:30:48.124 -0400,10384.91380375,0.5390625,0.2149505615234375,0.0222015380859375,1,0.97
2020-05-16 12:30:48.194 -0400,10384.98364575,0.7685089111328125,0.22900390625,0.0568389892578125,1,0.97
2020-05-16 12:30:48.264 -0400,10385.05349175,1.058746337890625,0.34149169921875,-0.060791015625,1,0.97
2020-05-16 12:30:48.334 -0400,10385.12333875,1.362701416015625,0.473388671875,-0.187408447265625,1,0.97
2020-05-16 12:30:48.403 -0400,10385.19318675,1.486236572265625,0.6132049560546875,-0.2704925537109375,1,0.97
2020-05-16 12:30:48.473 -0400,10385.26303375,0.880828857421875,0.3018035888671875,-0.2941741943359375,1,0.97
2020-05-16 12:30:48.543 -0400,10385.33287675,0.5793609619140625,0.425689697265625,-0.2450103759765625,1,0.97
2020-05-16 12:30:48.613 -0400,10385.40272275,0.53271484375,0.5172882080078125,-0.2737274169921875,1,0.97
2020-05-16 12:30:48.683 -0400,10385.47256775,0.73492431640625,0.5143280029296875,-0.3969879150390625,1,0.97
2020-05-16 12:30:48.753 -0400,10385.54241575,1.356246948242188,0.515380859375,-0.4313812255859375,1,0.97
2020-05-16 12:30:48.823 -0400,10385.61225975,1.631317138671875,0.497802734375,-0.5823974609375,1,0.97
2020-05-16 12:30:48.892 -0400,10385.68210375,1.269256591796875,0.34478759765625,-0.33087158203125,1,0.97
2020-05-16 12:30:48.962 -0400,10385.751947125,1.458404541015625,0.27691650390625,-0.13348388671875,1,0.97
2020-05-16 12:30:49.032 -0400,10385.821793125,0.7695465087890625,0.35821533203125,-0.109100341796875,1,0.97
2020-05-16 12:30:49.102 -0400,10385.891640125,0.4210968017578125,0.3093719482421875,-0.016876220703125,1,0.97
2020-05-16 12:30:49.172 -0400,10385.961486125,0.3717498779296875,0.285675048828125,0.0191802978515625,1,0.97
2020-05-16 12:30:49.250 -0400,10386.031329125,0.5447235107421875,0.233306884765625,0.0238189697265625,1,0.97
2020-05-16 12:30:49.312 -0400,10386.101173125,0.999847412109375,0.2967987060546875,-0.011566162109375,1,0.97
2020-05-16 12:30:49.381 -0400,10386.171021125,1.55316162109375,0.42645263671875,-0.1301116943359375,1,0.97
2020-05-16 12:30:49.451 -0400,10386.240866125,1.315811157226562,0.6867218017578125,-0.641815185546875,1,0.97
2020-05-16 12:30:49.521 -0400,10386.310711125,1.294082641601562,0.304443359375,-0.1635894775390625,1,0.97
2020-05-16 12:30:49.591 -0400,10386.380557125,0.7212677001953125,0.0839691162109375,-0.34515380859375,1,0.97
2020-05-16 12:30:49.661 -0400,10386.450409125,0.42486572265625,0.4040374755859375,-0.2371063232421875,1,0.97
2020-05-16 12:30:49.730 -0400,10386.520257125,0.561431884765625,0.5502166748046875,-0.304901123046875,1,0.97
2020-05-16 12:30:49.800 -0400,10386.590101125,1.01885986328125,0.4067840576171875,-0.3478851318359375,1,0.97
2020-05-16 12:30:49.870 -0400,10386.659948125,1.22601318359375,0.3371429443359375,-0.3391571044921875,1,0.97
2020-05-16 12:30:49.940 -0400,10386.729795125,1.654525756835938,0.606109619140625,-0.4446258544921875,1,0.97
2020-05-16 12:30:50.010 -0400,10386.799640625,1.440628051757812,0.5809326171875,-0.35406494140625,1,0.97
2020-05-16 12:30:50.080 -0400,10386.869486625,1.378570556640625,0.206634521484375,-0.0594940185546875,1,0.97
2020-05-16 12:30:50.150 -0400,10386.939331625,0.78619384765625,0.2474517822265625,-0.1065521240234375,1,0.97
2020-05-16 12:30:50.219 -0400,10387.009175625,0.4470977783203125,0.3408355712890625,-0.0746002197265625,1,0.97
2020-05-16 12:30:50.301 -0400,10387.079020625,0.5397796630859375,0.3461761474609375,0.01995849609375,1,0.97
2020-05-16 12:30:50.359 -0400,10387.148864625,0.9438018798828125,0.26715087890625,0.0097198486328125,1,0.97
2020-05-16 12:30:50.429 -0400,10387.218709625,1.068832397460938,0.215850830078125,-0.005767822265625,1,0.97
2020-05-16 12:30:50.499 -0400,10387.288561625,1.299057006835938,0.3936309814453125,-0.040802001953125,1,0.97
2020-05-16 12:30:50.569 -0400,10387.358415625,1.189193725585938,0.5840606689453125,-0.4168853759765625,1,0.97
2020-05-16 12:30:50.639 -0400,10387.428267625,1.189712524414062,0.3784332275390625,-0.262176513671875,1,0.97
2020-05-16 12:30:50.709 -0400,10387.498115625,0.827362060546875,0.09478759765625,-0.2913665771484375,1,0.97
2020-05-16 12:30:50.778 -0400,10387.567960625,0.49053955078125,0.3110504150390625,-0.2839813232421875,1,0.97
2020-05-16 12:30:50.848 -0400,10387.637808625,0.4942779541015625,0.520538330078125,-0.29034423828125,1,0.97
2020-05-16 12:30:50.918 -0400,10387.707657625,0.98516845703125,0.5365142822265625,-0.44342041015625,1,0.97
2020-05-16 12:30:50.988 -0400,10387.77750925,1.220855712890625,0.3870849609375,-0.416290283203125,1,0.97
2020-05-16 12:30:51.058 -0400,10387.84735425,1.650787353515625,0.59307861328125,-0.5879974365234375,1,0.97
2020-05-16 12:30:51.128 -0400,10387.91720125,1.357818603515625,0.404449462890625,-0.37103271484375,1,0.97
2020-05-16 12:30:51.197 -0400,10387.98704625,1.296661376953125,0.2043914794921875,-0.1126556396484375,1,0.97
2020-05-16 12:30:51.267 -0400,10388.05689325,0.76123046875,0.3554229736328125,-0.1837615966796875,1,0.97
2020-05-16 12:30:51.337 -0400,10388.12674325,0.434844970703125,0.3024139404296875,-0.0108489990234375,1,0.97
2020-05-16 12:30:51.407 -0400,10388.19658925,0.508941650390625,0.27874755859375,0.019378662109375,1,0.97
2020-05-16 12:30:51.477 -0400,10388.26643925,0.952178955078125,0.267333984375,0.0211639404296875,1,0.97
2020-05-16 12:30:51.547 -0400,10388.33628825,1.09844970703125,0.30133056640625,-0.0122222900390625,1,0.97
2020-05-16 12:30:51.616 -0400,10388.40613325,1.214935302734375,0.4545745849609375,-0.1432647705078125,1,0.97
2020-05-16 12:30:51.686 -0400,10388.47597725,1.388961791992188,0.5349884033203125,-0.5463104248046875,1,0.97
2020-05-16 12:30:51.756 -0400,10388.54582125,1.009719848632812,0.17938232421875,-0.309326171875,1,0.97
2020-05-16 12:30:51.826 -0400,10388.61566625,0.5153656005859375,0.18121337890625,-0.3604888916015625,1,0.97
2020-05-16 12:30:51.896 -0400,10388.68551025,0.4758148193359375,0.5400238037109375,-0.295501708984375,1,0.97
2020-05-16 12:30:51.966 -0400,10388.755354125,0.8397216796875,0.630950927734375,-0.536895751953125,1,0.97
2020-05-16 12:30:52.035 -0400,10388.825196125,1.220321655273438,0.47674560546875,-0.5843353271484375,1,0.97
2020-05-16 12:30:52.105 -0400,10388.895042125,2.025177001953125,0.3392333984375,-0.477630615234375,1,0.97
2020-05-16 12:30:52.175 -0400,10388.964885125,1.233978271484375,0.3748779296875,-0.3759613037109375,1,0.97
2020-05-16 12:30:52.245 -0400,10389.034727125,1.391403198242188,0.4226226806640625,-0.1658477783203125,1,0.97
2020-05-16 12:30:52.315 -0400,10389.104567125,0.842041015625,0.3369903564453125,-0.1724090576171875,1,0.97
2020-05-16 12:30:52.385 -0400,10389.174406125,0.457489013671875,0.2585906982421875,-0.035552978515625,1,0.97
2020-05-16 12:30:52.454 -0400,10389.244247125,0.4033966064453125,0.268768310546875,0.005035400390625,1,0.97
2020-05-16 12:30:52.524 -0400,10389.314087125,0.6573638916015625,0.242584228515625,0.0053253173828125,1,0.97
2020-05-16 12:30:52.594 -0400,10389.383929125,1.107559204101562,0.270263671875,-0.03662109375,1,0.97
2020-05-16 12:30:52.664 -0400,10389.453769125,1.501144409179688,0.324951171875,-0.1508026123046875,1,0.97
2020-05-16 12:30:52.734 -0400,10389.523610125,1.218505859375,0.513763427734375,-0.471282958984375,1,0.97
2020-05-16 12:30:52.804 -0400,10389.593454125,1.387557983398438,0.4228057861328125,-0.3875732421875,1,0.97
2020-05-16 12:30:52.874 -0400,10389.663298125,0.78167724609375,0.1217498779296875,-0.3686676025390625,1,0.97
2020-05-16 12:30:52.944 -0400,10389.733143125,0.5803070068359375,0.3770294189453125,-0.326416015625,1,0.97
2020-05-16 12:30:53.013 -0400,10389.802989875,0.6777496337890625,0.5127105712890625,-0.40826416015625,1,0.97
2020-05-16 12:30:53.083 -0400,10389.872833875,0.8788604736328125,0.432037353515625,-0.4847259521484375,1,0.97
2020-05-16 12:30:53.153 -0400,10389.942680875,1.703659057617188,0.5546112060546875,-0.5084686279296875,1,0.97
2020-05-16 12:30:53.223 -0400,10390.012526875,1.223007202148438,0.466583251953125,-0.4617462158203125,1,0.97
2020-05-16 12:30:53.293 -0400,10390.082370875,1.3875732421875,0.3034210205078125,-0.180145263671875,1,0.97
2020-05-16 12:30:53.362 -0400,10390.152210875,0.95477294921875,0.3160247802734375,-0.1478271484375,1,0.97
2020-05-16 12:30:53.432 -0400,10390.222048875,0.490692138671875,0.3041839599609375,-0.065399169921875,1,0.97
2020-05-16 12:30:53.502 -0400,10390.291883875,0.5636749267578125,0.3782806396484375,-0.003631591796875,1,0.97
2020-05-16 12:30:53.572 -0400,10390.361716875,1.041412353515625,0.3135223388671875,-0.0040435791015625,1,0.97
2020-05-16 12:30:53.642 -0400,10390.431549875,1.201950073242188,0.181549072265625,0.0302276611328125,1,0.97
2020-05-16 12:30:53.711 -0400,10390.501379875,1.2451171875,0.429473876953125,-0.1514892578125,1,0.97
2020-05-16 12:30:53.782 -0400,10390.571214875,1.077865600585938,0.45892333984375,-0.444305419921875,1,0.97
2020-05-16 12:30:53.851 -0400,10390.641054875,1.182113647460938,0.292633056640625,-0.4353790283203125,1,0.97
2020-05-16 12:30:53.921 -0400,10390.710895875,0.7325897216796875,0.1310882568359375,-0.546722412109375,1,0.97
2020-05-16 12:30:53.991 -0400,10390.780739125,0.52886962890625,0.037078857421875,-0.4299163818359375,1,0.97
2020-05-16 12:30:54.061 -0400,10390.850581125,0.5129852294921875,0.624603271484375,-0.3552398681640625,1,0.97
2020-05-16 12:30:54.131 -0400,10390.920422125,0.7634735107421875,0.3941192626953125,-0.45782470703125,1,0.97
2020-05-16 12:30:54.201 -0400,10390.990263125,1.366073608398438,0.4902801513671875,-0.4251251220703125,1,0.97
2020-05-16 12:30:54.270 -0400,10391.060102125,1.3707275390625,0.58367919921875,-0.6298828125,1,0.97
2020-05-16 12:30:54.340 -0400,10391.129941125,1.370040893554688,0.3499908447265625,-0.259124755859375,1,0.97
2020-05-16 12:30:54.410 -0400,10391.199779125,1.314895629882812,0.22894287109375,-0.148651123046875,1,0.97
2020-05-16 12:30:54.480 -0400,10391.269615125,0.6529083251953125,0.389892578125,-0.185089111328125,1,0.97
2020-05-16 12:30:54.550 -0400,10391.339453125,0.532470703125,0.370391845703125,-0.0306549072265625,1,0.97
2020-05-16 12:30:54.620 -0400,10391.409288125,0.8161468505859375,0.2773590087890625,-0.026763916015625,1,0.97
2020-05-16 12:30:54.689 -0400,10391.479128125,1.118392944335938,0.1872711181640625,0.03546142578125,1,0.97
2020-05-16 12:30:54.759 -0400,10391.548971125,1.169540405273438,0.2985382080078125,-0.02630615234375,1,0.97
2020-05-16 12:30:54.829 -0400,10391.618814125,1.199569702148438,0.6349945068359375,-0.4987335205078125,1,0.97
2020-05-16 12:30:54.899 -0400,10391.688654125,1.3829345703125,0.354644775390625,-0.293426513671875,1,0.97
2020-05-16 12:30:54.969 -0400,10391.75849529167,0.9722442626953125,0.0233917236328125,-0.479583740234375,1,0.97
2020-05-16 12:30:55.039 -0400,10391.82833529167,0.552734375,0.1414794921875,-0.3653411865234375,1,0.97
2020-05-16 12:30:55.108 -0400,10391.89817429167,0.4269256591796875,0.47357177734375,-0.3526458740234375,1,0.97
2020-05-16 12:30:55.178 -0400,10391.96800929167,0.529296875,0.45672607421875,-0.3809051513671875,1,0.97
2020-05-16 12:30:55.248 -0400,10392.03784729167,1.107040405273438,0.4173431396484375,-0.4225311279296875,1,0.97
2020-05-16 12:30:55.318 -0400,10392.10768529167,1.88983154296875,0.50567626953125,-0.484588623046875,1,0.97
2020-05-16 12:30:55.388 -0400,10392.17752629167,1.39984130859375,0.42657470703125,-0.4282989501953125,1,0.97
2020-05-16 12:30:55.458 -0400,10392.24736629167,1.29254150390625,0.2840118408203125,-0.2190704345703125,1,0.97
2020-05-16 12:30:55.527 -0400,10392.31720529167,0.9809112548828125,0.312469482421875,-0.112335205078125,1,0.97
2020-05-16 12:30:55.597 -0400,10392.38704729167,0.4613494873046875,0.2794189453125,-0.0517425537109375,1,0.97
2020-05-16 12:30:55.667 -0400,10392.45688429167,0.3559722900390625,0.29656982421875,0.032196044921875,1,0.97
2020-05-16 12:30:55.737 -0400,10392.52672329167,0.7192840576171875,0.3135986328125,0.017547607421875,1,0.97
2020-05-16 12:30:55.807 -0400,10392.59656429167,1.284027099609375,0.32989501953125,-0.01470947265625,1,0.97
2020-05-16 12:30:55.877 -0400,10392.66640529167,1.57965087890625,0.343994140625,-0.08209228515625,1,0.97
2020-05-16 12:30:55.947 -0400,10392.73624529167,1.339996337890625,0.612091064453125,-0.5330810546875,1,0.97
2020-05-16 12:30:56.016 -0400,10392.806084875,1.102890014648438,0.201263427734375,-0.2848358154296875,1,0.97
2020-05-16 12:30:56.086 -0400,10392.875924875,0.77435302734375,0.099212646484375,-0.353515625,1,0.97
2020-05-16 12:30:56.156 -0400,10392.945765875,0.418426513671875,0.3263702392578125,-0.3406829833984375,1,0.97
2020-05-16 12:30:56.226 -0400,10393.015603875,0.3860931396484375,0.4319305419921875,-0.27557373046875,1,0.97
2020-05-16 12:30:56.296 -0400,10393.085442875,0.8601837158203125,0.4771270751953125,-0.4126129150390625,1,0.97
2020-05-16 12:30:56.365 -0400,10393.155286875,1.178741455078125,0.4404144287109375,-0.4565582275390625,1,0.97
2020-05-16 12:30:56.435 -0400,10393.225127875,1.609344482421875,0.4489593505859375,-0.44219970703125,1,0.97
2020-05-16 12:30:56.505 -0400,10393.294966875,1.274871826171875,0.48907470703125,-0.47216796875,1,0.97
2020-05-16 12:30:56.575 -0400,10393.364808875,1.3184814453125,0.3063812255859375,-0.155914306640625,1,0.97
2020-05-16 12:30:56.645 -0400,10393.434649875,0.9911041259765625,0.2491912841796875,-0.10516357421875,1,0.97
2020-05-16 12:30:56.715 -0400,10393.504488875,0.580322265625,0.3734893798828125,-0.1173553466796875,1,0.97
2020-05-16 12:30:56.785 -0400,10393.574329875,0.497222900390625,0.3506622314453125,0.003570556640625,1,0.97
2020-05-16 12:30:56.854 -0400,10393.644174875,0.83819580078125,0.29388427734375,-0.0168609619140625,1,0.97
2020-05-16 12:30:56.924 -0400,10393.714022875,1.10205078125,0.237335205078125,-0.022705078125,1,0.97
2020-05-16 12:30:56.994 -0400,10393.783865125,1.267913818359375,0.3688507080078125,-0.20330810546875,1,0.97
2020-05-16 12:30:57.064 -0400,10393.853707125,1.066909790039062,0.4445953369140625,-0.415313720703125,1,0.97
2020-05-16 12:30:57.134 -0400,10393.923551125,1.3599853515625,0.2925262451171875,-0.4206390380859375,1,0.97
2020-05-16 12:30:57.204 -0400,10393.993398125,0.8895263671875,0.0535125732421875,-0.3770904541015625,1,0.97
2020-05-16 12:30:57.274 -0400,10394.063245125,0.49755859375,0.2757415771484375,-0.269256591796875,1,0.97
2020-05-16 12:30:57.343 -0400,10394.133091125,0.442169189453125,0.5064697265625,-0.1685638427734375,1,0.97
2020-05-16 12:30:57.413 -0400,10394.202936125,0.802947998046875,0.6336822509765625,-0.373260498046875,1,0.97
2020-05-16 12:30:57.483 -0400,10394.272776125,1.095596313476562,0.565887451171875,-0.43359375,1,0.97
2020-05-16 12:30:57.553 -0400,10394.342613125,1.75628662109375,0.679718017578125,-0.4676513671875,1,0.97
2020-05-16 12:30:57.623 -0400,10394.412452125,1.170516967773438,0.3363189697265625,-0.3189544677734375,1,0.97
2020-05-16 12:30:57.693 -0400,10394.482294125,1.26580810546875,0.3400115966796875,-0.219879150390625,1,0.97
2020-05-16 12:30:57.762 -0400,10394.552132125,0.9141693115234375,0.30548095703125,-0.1746826171875,1,0.97
2020-05-16 12:30:57.832 -0400,10394.621973125,0.538360595703125,0.280242919921875,-0.0581512451171875,1,0.97
2020-05-16 12:30:57.902 -0400,10394.691812125,0.5612030029296875,0.3248291015625,0.00054931640625,1,0.97
2020-05-16 12:30:57.972 -0400,10394.761648375,0.9627838134765625,0.3253173828125,-0.0189971923828125,1,0.97
2020-05-16 12:30:58.042 -0400,10394.831489375,1.251617431640625,0.2718505859375,-0.0464019775390625,1,0.97
2020-05-16 12:30:58.112 -0400,10394.901326375,1.472244262695312,0.4026947021484375,-0.185760498046875,1,0.97
2020-05-16 12:30:58.181 -0400,10394.971165375,1.0616455078125,0.439605712890625,-0.4471282958984375,1,0.97
2020-05-16 12:30:58.251 -0400,10395.041004375,1.034561157226562,0.2303314208984375,-0.2311248779296875,1,0.97
2020-05-16 12:30:58.321 -0400,10395.110847375,0.6443634033203125,0.255645751953125,-0.3404541015625,1,0.97
2020-05-16 12:30:58.391 -0400,10395.180689375,0.3859405517578125,0.46502685546875,-0.265533447265625,1,0.97
2020-05-16 12:30:58.461 -0400,10395.250530375,0.614715576171875,0.591827392578125,-0.370452880859375,1,0.97
2020-05-16 12:30:58.531 -0400,10395.320370375,1.352081298828125,0.6118011474609375,-0.618804931640625,1,0.97
2020-05-16 12:30:58.600 -0400,10395.390215375,1.634017944335938,0.2550048828125,-0.4872589111328125,1,0.97
2020-05-16 12:30:58.670 -0400,10395.460060375,1.29534912109375,0.4256439208984375,-0.3218994140625,1,0.97
2020-05-16 12:30:58.740 -0400,10395.529903375,1.027206420898438,0.537445068359375,-0.3181304931640625,1,0.97
2020-05-16 12:30:58.810 -0400,10395.599746375,0.955535888671875,0.38238525390625,-0.11224365234375,1,0.97
2020-05-16 12:30:58.880 -0400,10395.669589375,0.58447265625,0.4018096923828125,-0.0182037353515625,1,0.97
2020-05-16 12:30:58.950 -0400,10395.739433375,0.4362640380859375,0.3957672119140625,-0.008453369140625,1,0.97
2020-05-16 12:30:59.019 -0400,10395.8092745,0.995269775390625,0.3627471923828125,-0.004150390625,1,0.97
2020-05-16 12:30:59.090 -0400,10395.8791165,1.31939697265625,0.213165283203125,-0.0095367431640625,1,0.97
2020-05-16 12:30:59.159 -0400,10395.9489565,1.394760131835938,0.2401123046875,-0.1456146240234375,1,0.97
2020-05-16 12:30:59.243 -0400,10396.0187975,0.9759521484375,0.509185791015625,-0.3986663818359375,1,0.97
2020-05-16 12:30:59.299 -0400,10396.0886425,1.071762084960938,0.4120941162109375,-0.370269775390625,1,0.97
2020-05-16 12:30:59.369 -0400,10396.1584875,0.616485595703125,0.1289825439453125,-0.3615570068359375,1,0.97
2020-05-16 12:30:59.439 -0400,10396.2283315,0.4434661865234375,0.191497802734375,-0.266082763671875,1,0.97
2020-05-16 12:30:59.508 -0400,10396.2981745,0.71783447265625,0.50323486328125,-0.3024444580078125,1,0.97
2020-05-16 12:30:59.578 -0400,10396.3680185,1.171951293945312,0.59381103515625,-0.5507965087890625,1,0.97
2020-05-16 12:30:59.648 -0400,10396.4378645,1.501617431640625,0.4705352783203125,-0.56463623046875,1,0.97
2020-05-16 12:30:59.718 -0400,10396.5077095,1.2197265625,0.43817138671875,-0.456939697265625,1,0.97
2020-05-16 12:30:59.788 -0400,10396.5775505,1.390975952148438,0.3240509033203125,-0.2168731689453125,1,0.97
2020-05-16 12:30:59.858 -0400,10396.6473935,1.002914428710938,0.325225830078125,-0.1963348388671875,1,0.97
2020-05-16 12:30:59.928 -0400,10396.7172365,0.519744873046875,0.3578643798828125,-0.1464080810546875,1,0.97
2020-05-16 12:30:59.997 -0400,10396.78707729167,0.3597564697265625,0.3325347900390625,-0.0149993896484375,1,0.97
2020-05-16 12:31:00.067 -0400,10396.85692029167,0.82373046875,0.3232574462890625,-0.054534912109375,1,0.97
2020-05-16 12:31:00.137 -0400,10396.92676129167,1.335845947265625,0.3193817138671875,-0.0067291259765625,1,0.97
2020-05-16 12:31:00.207 -0400,10396.99660229167,1.467788696289062,0.2662811279296875,-0.1303253173828125,1,0.97
2020-05-16 12:31:00.277 -0400,10397.06644729167,1.053802490234375,0.5237274169921875,-0.4390869140625,1,0.97
2020-05-16 12:31:00.351 -0400,10397.13629129167,1.091705322265625,0.3883056640625,-0.3984222412109375,1,0.97
2020-05-16 12:31:00.416 -0400,10397.20613429167,0.591552734375,0.083160400390625,-0.2427520751953125,1,0.97
2020-05-16 12:31:00.487 -0400,10397.27597829167,0.414154052734375,0.2780609130859375,-0.243194580078125,1,0.97
2020-05-16 12:31:00.556 -0400,10397.34582229167,0.6904296875,0.5885009765625,-0.43621826171875,1,0.97
2020-05-16 12:31:00.626 -0400,10397.41566929167,1.059661865234375,0.5211181640625,-0.588226318359375,1,0.97
2020-05-16 12:31:00.696 -0400,10397.48551629167,1.413253784179688,0.3449859619140625,-0.5047454833984375,1,0.97
2020-05-16 12:31:00.766 -0400,10397.55536229167,1.231719970703125,0.6320648193359375,-0.6566314697265625,1,0.97
2020-05-16 12:31:00.835 -0400,10397.62520729167,1.353469848632812,0.54718017578125,-0.2830657958984375,1,0.97
2020-05-16 12:31:00.905 -0400,10397.69505229167,1.207534790039062,0.13885498046875,-0.1783905029296875,1,0.97
2020-05-16 12:31:00.975 -0400,10397.76489591667,0.71331787109375,0.25018310546875,-0.1547393798828125,1,0.97
2020-05-16 12:31:01.045 -0400,10397.83473991667,0.591400146484375,0.380706787109375,-0.02392578125,1,0.97
2020-05-16 12:31:01.115 -0400,10397.90458491667,0.789764404296875,0.2600555419921875,0.04583740234375,1,0.97
2020-05-16 12:31:01.185 -0400,10397.97442491667,1.050613403320312,0.300262451171875,-0.048828125,1,0.97
2020-05-16 12:31:01.255 -0400,10398.04426691667,1.066619873046875,0.268310546875,-0.1338958740234375,1,0.97
2020-05-16 12:31:01.326 -0400,10398.11410791667,1.421829223632812,0.5673828125,-0.44305419921875,1,0.97
2020-05-16 12:31:01.394 -0400,10398.18395191667,1.208648681640625,0.2434539794921875,-0.174591064453125,1,0.97
2020-05-16 12:31:01.464 -0400,10398.25379591667,0.7399444580078125,0.2384490966796875,-0.319915771484375,1,0.97
2020-05-16 12:31:01.534 -0400,10398.32364191667,0.60638427734375,0.5626068115234375,-0.1240081787109375,1,0.97
2020-05-16 12:31:01.604 -0400,10398.39348391667,0.923431396484375,0.7468719482421875,-0.2787017822265625,1,0.97
2020-05-16 12:31:01.673 -0400,10398.46332391667,1.097381591796875,0.639312744140625,-0.4659576416015625,1,0.97
2020-05-16 12:31:01.743 -0400,10398.53317191667,1.63226318359375,0.606292724609375,-0.3986968994140625,1,0.97
2020-05-16 12:31:01.813 -0400,10398.60301591667,1.209716796875,0.565338134765625,-0.47705078125,1,0.97
2020-05-16 12:31:01.883 -0400,10398.67286691667,1.543838500976562,0.40093994140625,-0.158905029296875,1,0.97
2020-05-16 12:31:01.953 -0400,10398.74271191667,1.02154541015625,0.27423095703125,-0.2176361083984375,1,0.97
2020-05-16 12:31:02.023 -0400,10398.812555875,0.58001708984375,0.315399169921875,-0.0753936767578125,1,0.97
2020-05-16 12:31:02.093 -0400,10398.882399875,0.62310791015625,0.3767242431640625,-0.0086822509765625,1,0.97
2020-05-16 12:31:02.162 -0400,10398.952242875,1.39306640625,0.4147491455078125,-0.0810699462890625,1,0.97
2020-05-16 12:31:02.232 -0400,10399.022087875,1.084640502929688,0.1529998779296875,0.0342254638671875,1,0.97
2020-05-16 12:31:02.302 -0400,10399.091929875,1.1324462890625,0.26312255859375,-0.0395355224609375,1,0.97
2020-05-16 12:31:02.372 -0400,10399.161770875,0.9556121826171875,0.518951416015625,-0.2845306396484375,1,0.97
2020-05-16 12:31:02.442 -0400,10399.231610875,1.227081298828125,0.525665283203125,-0.423095703125,1,0.97
2020-05-16 12:31:02.512 -0400,10399.301448875,0.688446044921875,0.1444549560546875,-0.3139495849609375,1,0.97
2020-05-16 12:31:02.582 -0400,10399.371290875,0.7031402587890625,0.28656005859375,-0.3173370361328125,1,0.97
2020-05-16 12:31:02.651 -0400,10399.441134875,1.009292602539062,0.7381591796875,-0.529815673828125,1,0.97
2020-05-16 12:31:02.721 -0400,10399.510981875,0.921875,0.589752197265625,-0.6632232666015625,1,0.97
2020-05-16 12:31:02.791 -0400,10399.580831875,1.656005859375,0.5805511474609375,-0.5974273681640625,1,0.97
2020-05-16 12:31:02.861 -0400,10399.650683875,1.504837036132812,0.3594512939453125,-0.3714599609375,1,0.97
2020-05-16 12:31:02.931 -0400,10399.720533875,1.494125366210938,0.3120880126953125,-0.1562652587890625,1,0.97
2020-05-16 12:31:03.001 -0400,10399.790383375,0.88134765625,0.4663238525390625,-0.1864776611328125,1,0.97
2020-05-16 12:31:03.070 -0400,10399.860233375,0.4680328369140625,0.3300323486328125,-0.0344390869140625,1,0.97
2020-05-16 12:31:03.140 -0400,10399.930079375,0.4351043701171875,0.265960693359375,0.0308685302734375,1,0.97
2020-05-16 12:31:03.210 -0400,10399.999926375,1.007537841796875,0.2592926025390625,-0.01678466796875,1,0.97
2020-05-16 12:31:03.280 -0400,10400.069774375,0.938018798828125,0.157073974609375,0.02252197265625,1,0.97
2020-05-16 12:31:03.350 -0400,10400.139621375,1.0828857421875,0.32080078125,-0.1709747314453125,1,0.97
2020-05-16 12:31:03.420 -0400,10400.209470375,1.319839477539062,0.5192108154296875,-0.266510009765625,1,0.97
2020-05-16 12:31:03.490 -0400,10400.279316375,1.4947509765625,0.50909423828125,-0.5308685302734375,1,0.97
2020-05-16 12:31:03.559 -0400,10400.349168375,0.69049072265625,0.21575927734375,-0.397125244140625,1,0.97
2020-05-16 12:31:03.629 -0400,10400.419023375,0.6490631103515625,0.4031982421875,-0.3855743408203125,1,0.97
2020-05-16 12:31:03.699 -0400,10400.488871375,0.8359375,0.6460418701171875,-0.530487060546875,1,0.97
2020-05-16 12:31:03.769 -0400,10400.558716375,1.038803100585938,0.50506591796875,-0.637298583984375,1,0.97
2020-05-16 12:31:03.839 -0400,10400.628560375,1.624664306640625,0.7183380126953125,-0.684722900390625,1,0.97
2020-05-16 12:31:03.909 -0400,10400.698404375,1.795150756835938,0.50994873046875,-0.5848846435546875,1,0.97
2020-05-16 12:31:03.978 -0400,10400.76824416667,1.592376708984375,0.1899871826171875,-0.0607147216796875,1,0.97
2020-05-16 12:31:04.048 -0400,10400.83808416667,0.75262451171875,0.370147705078125,-0.255706787109375,1,0.97
2020-05-16 12:31:04.118 -0400,10400.90792516667,0.4654083251953125,0.3588104248046875,-0.02899169921875,1,0.97
2020-05-16 12:31:04.188 -0400,10400.97776516667,0.6464996337890625,0.323516845703125,0.028411865234375,1,0.97
2020-05-16 12:31:04.258 -0400,10401.04760616667,1.359420776367188,0.2516937255859375,0.02655029296875,1,0.97
2020-05-16 12:31:04.328 -0400,10401.11744816667,1.07037353515625,0.1570892333984375,0.0323028564453125,1,0.97
2020-05-16 12:31:04.398 -0400,10401.18728816667,1.0416259765625,0.563018798828125,-0.402252197265625,1,0.97
2020-05-16 12:31:04.467 -0400,10401.25712616667,1.287261962890625,0.499908447265625,-0.4300079345703125,1,0.97
2020-05-16 12:31:04.537 -0400,10401.32696916667,0.9289398193359375,0.0684356689453125,-0.26568603515625,1,0.97
2020-05-16 12:31:04.607 -0400,10401.39681116667,0.7166900634765625,0.191802978515625,-0.34881591796875,1,0.97
2020-05-16 12:31:04.677 -0400,10401.46665616667,0.826873779296875,0.7320709228515625,-0.479248046875,1,0.97
2020-05-16 12:31:04.747 -0400,10401.53650116667,0.865142822265625,0.6444854736328125,-0.536346435546875,1,0.97
2020-05-16 12:31:04.817 -0400,10401.60634116667,1.053756713867188,0.5783538818359375,-0.55828857421875,1,0.97
2020-05-16 12:31:04.886 -0400,10401.67618716667,1.797866821289062,0.887969970703125,-0.542694091796875,1,0.97
2020-05-16 12:31:04.956 -0400,10401.74603316667,1.414825439453125,0.1100311279296875,-0.2310333251953125,1,0.97
2020-05-16 12:31:05.026 -0400,10401.81587979167,1.142074584960938,0.501556396484375,-0.233612060546875,1,0.97
2020-05-16 12:31:05.096 -0400,10401.88572479167,0.7808380126953125,0.4216766357421875,-0.08380126953125,1,0.97
2020-05-16 12:31:05.166 -0400,10401.95557579167,0.613250732421875,0.2927398681640625,0.0314178466796875,1,0.97
2020-05-16 12:31:05.236 -0400,10402.02542079167,0.8136749267578125,0.29254150390625,-0.00555419921875,1,0.97
2020-05-16 12:31:05.307 -0400,10402.09526379167,1.052352905273438,0.204681396484375,0.035003662109375,1,0.97
2020-05-16 12:31:05.376 -0400,10402.16510379167,0.8863525390625,0.2282562255859375,-0.131500244140625,1,0.97
2020-05-16 12:31:05.445 -0400,10402.23494979167,0.921966552734375,0.3690032958984375,-0.2350921630859375,1,0.97
2020-05-16 12:31:05.515 -0400,10402.30479679167,1.29656982421875,0.4051971435546875,-0.4036712646484375,1,0.97
2020-05-16 12:31:05.585 -0400,10402.37464179167,1.068038940429688,0.281829833984375,-0.346771240234375,1,0.97
2020-05-16 12:31:05.655 -0400,10402.44448479167,0.773529052734375,0.3397979736328125,-0.3241729736328125,1,0.97
2020-05-16 12:31:05.725 -0400,10402.51433279167,0.753509521484375,0.5903167724609375,-0.3997650146484375,1,0.97
2020-05-16 12:31:05.794 -0400,10402.58417679167,1.029052734375,0.5373687744140625,-0.5171661376953125,1,0.97
2020-05-16 12:31:05.864 -0400,10402.65402479167,1.4727783203125,0.4831695556640625,-0.50384521484375,1,0.97
2020-05-16 12:31:05.934 -0400,10402.72387079167,1.392807006835938,0.497314453125,-0.268768310546875,1,0.97
2020-05-16 12:31:06.004 -0400,10402.793715625,1.262283325195312,0.615081787109375,-0.32342529296875,1,0.97
2020-05-16 12:31:06.074 -0400,10402.863560625,1.152542114257812,0.5172119140625,-0.1643524169921875,1,0.97
2020-05-16 12:31:06.144 -0400,10402.933405625,0.671905517578125,0.237060546875,-0.034210205078125,1,0.97
2020-05-16 12:31:06.213 -0400,10403.003250625,0.68603515625,0.28106689453125,-0.0278472900390625,1,0.97
2020-05-16 12:31:06.283 -0400,10403.073089625,1.3958740234375,0.28564453125,0.0034332275390625,1,0.97
2020-05-16 12:31:06.353 -0400,10403.142925625,1.35565185546875,0.1864776611328125,0.158905029296875,1,0.97
2020-05-16 12:31:06.423 -0400,10403.212763625,0.8295440673828125,0.3722991943359375,0.06646728515625,1,0.97
2020-05-16 12:31:06.493 -0400,10403.282604625,1.053009033203125,0.6286773681640625,-0.5277099609375,1,0.97
2020-05-16 12:31:06.563 -0400,10403.352439625,0.897735595703125,0.21728515625,-0.136688232421875,1,0.97
2020-05-16 12:31:06.632 -0400,10403.422276625,0.4772186279296875,0.000213623046875,-0.3629302978515625,1,0.97
2020-05-16 12:31:06.702 -0400,10403.492113625,0.4229278564453125,0.2107086181640625,-0.460113525390625,1,0.97
2020-05-16 12:31:06.772 -0400,10403.561950625,0.635162353515625,0.8292388916015625,-0.6446075439453125,1,0.97
2020-05-16 12:31:06.842 -0400,10403.631789625,1.292221069335938,0.54254150390625,-0.6800384521484375,1,0.97
2020-05-16 12:31:06.912 -0400,10403.701630625,1.802200317382812,0.246246337890625,-0.439697265625,1,0.97
2020-05-16 12:31:06.982 -0400,10403.771471,1.23016357421875,0.4872283935546875,-0.4656219482421875,1,0.97
2020-05-16 12:31:07.051 -0400,10403.841309,1.357864379882812,0.4086151123046875,-0.1212921142578125,1,0.97
2020-05-16 12:31:07.121 -0400,10403.91115,1.121795654296875,0.2572479248046875,-0.0747528076171875,1,0.97
2020-05-16 12:31:07.191 -0400,10403.980989,0.6212005615234375,0.3634796142578125,-0.1519775390625,1,0.97
2020-05-16 12:31:07.261 -0400,10404.050828,0.4423675537109375,0.3550567626953125,0.0105743408203125,1,0.97
2020-05-16 12:31:07.331 -0400,10404.120668,0.658782958984375,0.2977447509765625,0.0541839599609375,1,0.97
2020-05-16 12:31:07.401 -0400,10404.190507,1.1156005859375,0.2935028076171875,-0.0635528564453125,1,0.97
2020-05-16 12:31:07.471 -0400,10404.260348,1.2119140625,0.2355804443359375,-0.1917877197265625,1,0.97
2020-05-16 12:31:07.540 -0400,10404.33019,1.233779907226562,0.299896240234375,-0.1884765625,1,0.97
2020-05-16 12:31:07.610 -0400,10404.400033,1.321365356445312,0.405059814453125,-0.4587249755859375,1,0.97
2020-05-16 12:31:07.680 -0400,10404.469874,1.204360961914062,0.3089752197265625,-0.1765899658203125,1,0.97
2020-05-16 12:31:07.750 -0400,10404.539714,0.7058563232421875,0.4175872802734375,-0.268798828125,1,0.97
2020-05-16 12:31:07.820 -0400,10404.609552,0.474609375,0.4918365478515625,-0.15203857421875,1,0.97
2020-05-16 12:31:07.890 -0400,10404.679392,0.7171630859375,0.6217041015625,-0.324676513671875,1,0.97
2020-05-16 12:31:07.960 -0400,10404.749237,1.121414184570312,0.5174407958984375,-0.4760894775390625,1,0.97
2020-05-16 12:31:08.029 -0400,10404.819082125,1.56585693359375,0.332061767578125,-0.511260986328125,1,0.97
2020-05-16 12:31:08.099 -0400,10404.888926125,1.442642211914062,0.52838134765625,-0.695648193359375,1,0.97
2020-05-16 12:31:08.169 -0400,10404.958772125,1.893310546875,0.137481689453125,-0.2133941650390625,1,0.97
2020-05-16 12:31:08.239 -0400,10405.028615125,1.385787963867188,0.117218017578125,-0.0909576416015625,1,0.97
2020-05-16 12:31:08.309 -0400,10405.098454125,0.7221832275390625,0.4396209716796875,-0.2054290771484375,1,0.97
2020-05-16 12:31:08.379 -0400,10405.168297125,0.2960052490234375,0.31298828125,-0.0489501953125,1,0.97
2020-05-16 12:31:08.448 -0400,10405.238142125,0.39105224609375,0.24932861328125,0.0204620361328125,1,0.97
2020-05-16 12:31:08.518 -0400,10405.307986125,0.848297119140625,0.2050018310546875,0.0123138427734375,1,0.97
2020-05-16 12:31:08.588 -0400,10405.377830125,0.831024169921875,0.1744842529296875,-0.0297088623046875,1,0.97
2020-05-16 12:31:08.658 -0400,10405.447674125,1.243255615234375,0.6063995361328125,-0.1935272216796875,1,0.97
2020-05-16 12:31:08.728 -0400,10405.517520125,1.269790649414062,0.8575439453125,-0.4164886474609375,1,0.97
2020-05-16 12:31:08.798 -0400,10405.587364125,1.25665283203125,0.6455078125,-0.2862548828125,1,0.97
2020-05-16 12:31:08.867 -0400,10405.657211125,0.8481292724609375,0.2383270263671875,-0.309600830078125,1,0.97
2020-05-16 12:31:08.937 -0400,10405.727055125,0.7721099853515625,0.3578033447265625,-0.263031005859375,1,0.97
2020-05-16 12:31:09.007 -0400,10405.79690125,1.08270263671875,0.703704833984375,-0.513671875,1,0.97
2020-05-16 12:31:09.077 -0400,10405.86674625,1.05548095703125,0.4726104736328125,-0.5974273681640625,1,0.97
2020-05-16 12:31:09.147 -0400,10405.93658925,1.295455932617188,0.2874298095703125,-0.4965362548828125,1,0.97
2020-05-16 12:31:09.217 -0400,10406.00643325,1.360397338867188,0.51611328125,-0.5702056884765625,1,0.97
2020-05-16 12:31:09.289 -0400,10406.07627625,1.650772094726562,0.264251708984375,-0.164306640625,1,0.97
2020-05-16 12:31:09.356 -0400,10406.14612025,1.047042846679688,0.2406005859375,-0.1894989013671875,1,0.97
2020-05-16 12:31:09.426 -0400,10406.21596525,0.58441162109375,0.3863372802734375,-0.0758514404296875,1,0.97
2020-05-16 12:31:09.496 -0400,10406.28580825,0.4913787841796875,0.376617431640625,0.0255889892578125,1,0.97
2020-05-16 12:31:09.566 -0400,10406.35564925,0.8218231201171875,0.2803192138671875,-0.0167236328125,1,0.97
2020-05-16 12:31:09.636 -0400,10406.42548725,1.085235595703125,0.113494873046875,0.0246429443359375,1,0.97
2020-05-16 12:31:09.706 -0400,10406.49532625,1.110702514648438,0.268768310546875,-0.228668212890625,1,0.97
2020-05-16 12:31:09.775 -0400,10406.56516725,1.2635498046875,0.4420166015625,-0.3940582275390625,1,0.97
2020-05-16 12:31:09.845 -0400,10406.63500525,1.370620727539062,0.378143310546875,-0.3132781982421875,1,0.97
2020-05-16 12:31:09.915 -0400,10406.70484625,0.876617431640625,0.2843780517578125,-0.3271331787109375,1,0.97
2020-05-16 12:31:09.985 -0400,10406.774691375,0.6844024658203125,0.449554443359375,-0.23046875,1,0.97
2020-05-16 12:31:10.055 -0400,10406.844532375,0.8621368408203125,0.6619720458984375,-0.379791259765625,1,0.97
2020-05-16 12:31:10.125 -0400,10406.914382375,0.957733154296875,0.5524444580078125,-0.57080078125,1,0.97
2020-05-16 12:31:10.194 -0400,10406.984232375,1.471511840820312,0.535003662109375,-0.4610595703125,1,0.97
2020-05-16 12:31:10.264 -0400,10407.054077375,1.48565673828125,0.5254364013671875,-0.4797515869140625,1,0.97
2020-05-16 12:31:10.334 -0400,10407.123921375,1.53656005859375,0.4354095458984375,-0.285430908203125,1,0.97
2020-05-16 12:31:10.404 -0400,10407.193765375,1.145645141601562,0.333160400390625,-0.2626800537109375,1,0.97
2020-05-16 12:31:10.474 -0400,10407.263609375,0.5964202880859375,0.2244110107421875,-0.0451812744140625,1,0.97
2020-05-16 12:31:10.544 -0400,10407.333454375,0.4804840087890625,0.3274993896484375,0.0146026611328125,1,0.97
2020-05-16 12:31:10.613 -0400,10407.403295375,0.8576812744140625,0.3067169189453125,0.013031005859375,1,0.97
2020-05-16 12:31:10.683 -0400,10407.473143375,0.9632110595703125,0.1749420166015625,0.0730743408203125,1,0.97
2020-05-16 12:31:10.753 -0400,10407.542988375,1.172943115234375,0.349639892578125,-0.050689697265625,1,0.97
2020-05-16 12:31:10.824 -0400,10407.612832375,1.2467041015625,0.6410064697265625,-0.431640625,1,0.97
2020-05-16 12:31:10.893 -0400,10407.682676375,1.428314208984375,0.5631256103515625,-0.466033935546875,1,0.97
2020-05-16 12:31:10.963 -0400,10407.752525375,0.7118682861328125,0.004608154296875,-0.3322906494140625,1,0.97
2020-05-16 12:31:11.033 -0400,10407.822369375,0.5295562744140625,0.20367431640625,-0.29473876953125,1,0.97
2020-05-16 12:31:11.102 -0400,10407.892216375,0.6057586669921875,0.5152587890625,-0.3656463623046875,1,0.97
2020-05-16 12:31:11.172 -0400,10407.962064375,0.8581390380859375,0.5851287841796875,-0.544403076171875,1,0.97
2020-05-16 12:31:11.242 -0400,10408.031910375,1.3602294921875,0.569000244140625,-0.50360107421875,1,0.97
2020-05-16 12:31:11.312 -0400,10408.101754375,1.443939208984375,0.5039520263671875,-0.4840087890625,1,0.97
2020-05-16 12:31:11.382 -0400,10408.171600375,1.415374755859375,0.3413848876953125,-0.232269287109375,1,0.97
2020-05-16 12:31:11.452 -0400,10408.241444375,1.099456787109375,0.3900146484375,-0.1930999755859375,1,0.97
2020-05-16 12:31:11.521 -0400,10408.311286375,0.574127197265625,0.3067474365234375,-0.1279754638671875,1,0.97
2020-05-16 12:31:11.591 -0400,10408.381131375,0.4409027099609375,0.314117431640625,-0.0001678466796875,1,0.97
2020-05-16 12:31:11.661 -0400,10408.450981375,0.6694488525390625,0.26513671875,-0.0034332275390625,1,0.97
2020-05-16 12:31:11.731 -0400,10408.520825375,1.140518188476562,0.208587646484375,0.028656005859375,1,0.97
2020-05-16 12:31:11.801 -0400,10408.590667375,1.25994873046875,0.318878173828125,-0.076751708984375,1,0.97
2020-05-16 12:31:11.871 -0400,10408.660512375,1.042083740234375,0.52423095703125,-0.364105224609375,1,0.97
2020-05-16 12:31:11.941 -0400,10408.730358375,1.241012573242188,0.43572998046875,-0.35260009765625,1,0.97
2020-05-16 12:31:12.010 -0400,10408.800197,0.9051361083984375,0.163848876953125,-0.30767822265625,1,0.97
2020-05-16 12:31:12.080 -0400,10408.87004,0.5846099853515625,0.33551025390625,-0.2700653076171875,1,0.97
2020-05-16 12:31:12.150 -0400,10408.939881,0.6323394775390625,0.631561279296875,-0.377227783203125,1,0.97
2020-05-16 12:31:12.220 -0400,10409.009726,0.884368896484375,0.5858917236328125,-0.493682861328125,1,0.97
2020-05-16 12:31:12.291 -0400,10409.079571,1.151611328125,0.42584228515625,-0.5005340576171875,1,0.97
2020-05-16 12:31:12.360 -0400,10409.149416,1.453140258789062,0.61627197265625,-0.59503173828125,1,0.97
2020-05-16 12:31:12.429 -0400,10409.219261,1.438064575195312,0.426788330078125,-0.35107421875,1,0.97
2020-05-16 12:31:12.499 -0400,10409.289107,1.358169555664062,0.30889892578125,-0.1475830078125,1,0.97
2020-05-16 12:31:12.569 -0400,10409.358951,0.7481689453125,0.3240966796875,-0.1428375244140625,1,0.97
2020-05-16 12:31:12.639 -0400,10409.428796,0.5782623291015625,0.3484649658203125,-0.0144195556640625,1,0.97
2020-05-16 12:31:12.709 -0400,10409.498634,0.6132049560546875,0.269317626953125,-0.00543212890625,1,0.97
2020-05-16 12:31:12.779 -0400,10409.568479,0.8362884521484375,0.2021484375,0.01763916015625,1,0.97
2020-05-16 12:31:12.849 -0400,10409.638322,0.77520751953125,0.199371337890625,-0.0233306884765625,1,0.97
2020-05-16 12:31:12.918 -0400,10409.708166,1.177047729492188,0.43511962890625,-0.1219482421875,1,0.97
2020-05-16 12:31:12.988 -0400,10409.77801425,1.645034790039062,0.650390625,-0.6051788330078125,1,0.97
2020-05-16 12:31:13.058 -0400,10409.84785825,1.0889892578125,0.4522247314453125,-0.3890228271484375,1,0.97
2020-05-16 12:31:13.128 -0400,10409.91770425,0.683990478515625,0.1973114013671875,-0.2835693359375,1,0.97
2020-05-16 12:31:13.198 -0400,10409.98755125,0.581512451171875,0.4618682861328125,-0.310791015625,1,0.97
2020-05-16 12:31:13.268 -0400,10410.05739725,0.7885284423828125,0.777862548828125,-0.4898529052734375,1,0.97
2020-05-16 12:31:13.337 -0400,10410.12724725,1.080413818359375,0.7978973388671875,-0.5769805908203125,1,0.97
2020-05-16 12:31:13.408 -0400,10410.19709125,1.796905517578125,0.6990509033203125,-0.659332275390625,1,0.97
2020-05-16 12:31:13.477 -0400,10410.26693325,1.696517944335938,0.3105621337890625,-0.3644256591796875,1,0.97
2020-05-16 12:31:13.547 -0400,10410.33677625,1.599868774414062,0.42919921875,-0.1684417724609375,1,0.97
2020-05-16 12:31:13.617 -0400,10410.40661725,0.9165496826171875,0.37786865234375,-0.165374755859375,1,0.97
2020-05-16 12:31:13.687 -0400,10410.47645725,0.5887451171875,0.328155517578125,0.020233154296875,1,0.97
2020-05-16 12:31:13.757 -0400,10410.54629925,0.6274261474609375,0.23260498046875,0.045562744140625,1,0.97
2020-05-16 12:31:13.827 -0400,10410.61613925,0.8032073974609375,0.201385498046875,0.014251708984375,1,0.97
2020-05-16 12:31:13.896 -0400,10410.68598125,0.6151275634765625,0.19549560546875,-0.044586181640625,1,0.97
2020-05-16 12:31:13.966 -0400,10410.75582125,0.9532318115234375,0.371185302734375,-0.11865234375,1,0.97
2020-05-16 12:31:14.036 -0400,10410.82566025,1.685897827148438,0.6462249755859375,-0.55523681640625,1,0.97
2020-05-16 12:31:14.106 -0400,10410.89550625,1.264266967773438,0.5640106201171875,-0.4583587646484375,1,0.97
2020-05-16 12:31:14.176 -0400,10410.96534825,0.76361083984375,0.0081634521484375,-0.3518218994140625,1,0.97
2020-05-16 12:31:14.245 -0400,10411.03518925,0.8227691650390625,0.5202178955078125,-0.2636260986328125,1,0.97
2020-05-16 12:31:14.315 -0400,10411.10503325,0.840179443359375,1.037826538085938,-0.576904296875,1,0.97
2020-05-16 12:31:14.390 -0400,10411.17487425,0.9776458740234375,0.6979522705078125,-0.588348388671875,1,0.97
2020-05-16 12:31:14.455 -0400,10411.24472025,1.639984130859375,0.4915618896484375,-0.468170166015625,1,0.97
2020-05-16 12:31:14.525 -0400,10411.31456025,1.615188598632812,0.3772125244140625,-0.307525634765625,1,0.97
2020-05-16 12:31:14.595 -0400,10411.38440525,1.60693359375,0.48822021484375,-0.2651519775390625,1,0.97
2020-05-16 12:31:14.665 -0400,10411.45424725,0.9080963134765625,0.3292694091796875,-0.207611083984375,1,0.97
2020-05-16 12:31:14.734 -0400,10411.52408925,0.5940704345703125,0.28277587890625,-0.013580322265625,1,0.97
2020-05-16 12:31:14.804 -0400,10411.59393525,0.5891876220703125,0.1758880615234375,0.0121612548828125,1,0.97
2020-05-16 12:31:14.875 -0400,10411.66377825,0.662139892578125,0.1494903564453125,0.054046630859375,1,0.97
2020-05-16 12:31:14.944 -0400,10411.73362425,0.8116607666015625,0.24627685546875,-0.027984619140625,1,0.97
2020-05-16 12:31:15.014 -0400,10411.803469625,1.301742553710938,0.588775634765625,-0.2249603271484375,1,0.97
2020-05-16 12:31:15.084 -0400,10411.873317625,1.781692504882812,0.607330322265625,-0.470794677734375,1,0.97
2020-05-16 12:31:15.153 -0400,10411.943162625,1.165969848632812,0.4044189453125,-0.220245361328125,1,0.97
2020-05-16 12:31:15.223 -0400,10412.013008625,0.75390625,0.2119293212890625,-0.2432861328125,1,0.97
2020-05-16 12:31:15.293 -0400,10412.082849625,0.7549591064453125,0.580078125,-0.354400634765625,1,0.97
2020-05-16 12:31:15.363 -0400,10412.152692625,0.743316650390625,0.7083587646484375,-0.5464935302734375,1,0.97
2020-05-16 12:31:15.433 -0400,10412.222538625,0.923858642578125,0.506011962890625,-0.57305908203125,1,0.97
2020-05-16 12:31:15.503 -0400,10412.292384625,1.61932373046875,0.62286376953125,-0.649810791015625,1,0.97
2020-05-16 12:31:15.572 -0400,10412.362230625,1.772720336914062,0.412139892578125,-0.387542724609375,1,0.97
2020-05-16 12:31:15.642 -0400,10412.432073625,1.661422729492188,0.3962249755859375,-0.2395172119140625,1,0.97
2020-05-16 12:31:15.712 -0400,10412.501920625,0.9319610595703125,0.34124755859375,-0.1698150634765625,1,0.97
2020-05-16 12:31:15.783 -0400,10412.571767625,0.6409912109375,0.326416015625,-0.0022735595703125,1,0.97
2020-05-16 12:31:15.852 -0400,10412.641613625,0.6614837646484375,0.2020416259765625,0.053070068359375,1,0.97
2020-05-16 12:31:15.922 -0400,10412.711461625,0.730224609375,0.1499786376953125,0.0860137939453125,1,0.97
2020-05-16 12:31:15.992 -0400,10412.781308875,0.5793304443359375,0.3597412109375,-0.0789947509765625,1,0.97
2020-05-16 12:31:16.062 -0400,10412.851158875,0.992828369140625,0.7415313720703125,-0.2654266357421875,1,0.97
2020-05-16 12:31:16.131 -0400,10412.921003875,1.303878784179688,0.503875732421875,-0.4951629638671875,1,0.97
2020-05-16 12:31:16.201 -0400,10412.990848875,1.187530517578125,0.609100341796875,-0.43841552734375,1,0.97
2020-05-16 12:31:16.271 -0400,10413.060695875,0.7265625,0.338043212890625,-0.4840545654296875,1,0.97
2020-05-16 12:31:16.341 -0400,10413.130543875,0.6556549072265625,0.540618896484375,-0.3858642578125,1,0.97
2020-05-16 12:31:16.411 -0400,10413.200394875,0.8221893310546875,0.7605133056640625,-0.5123291015625,1,0.97
2020-05-16 12:31:16.480 -0400,10413.270242875,1.092422485351562,0.7698516845703125,-0.5584716796875,1,0.97
2020-05-16 12:31:16.550 -0400,10413.340090875,1.751602172851562,0.6943817138671875,-0.62603759765625,1,0.97
2020-05-16 12:31:16.620 -0400,10413.409941875,1.642013549804688,0.369110107421875,-0.2790985107421875,1,0.97
2020-05-16 12:31:16.690 -0400,10413.479792875,1.401123046875,0.492034912109375,-0.2675933837890625,1,0.97
2020-05-16 12:31:16.760 -0400,10413.549644875,0.7130279541015625,0.3239898681640625,-0.1651763916015625,1,0.97
2020-05-16 12:31:16.830 -0400,10413.619494875,0.58343505859375,0.323089599609375,-0.00274658203125,1,0.97
2020-05-16 12:31:16.900 -0400,10413.689338875,0.68096923828125,0.233154296875,0.00372314453125,1,0.97
2020-05-16 12:31:16.969 -0400,10413.759185875,0.8406982421875,0.192596435546875,0.02484130859375,1,0.97
2020-05-16 12:31:17.039 -0400,10413.82903516667,0.8687591552734375,0.2373809814453125,-0.001434326171875,1,0.97
2020-05-16 12:31:17.109 -0400,10413.89888516667,0.98193359375,0.758544921875,-0.394012451171875,1,0.97
2020-05-16 12:31:17.179 -0400,10413.96873416667,1.37109375,0.5830535888671875,-0.4537506103515625,1,0.97
2020-05-16 12:31:17.249 -0400,10414.03858216667,1.112457275390625,0.2548065185546875,-0.39007568359375,1,0.97
2020-05-16 12:31:17.319 -0400,10414.10842916667,0.6938323974609375,0.23236083984375,-0.295013427734375,1,0.97
2020-05-16 12:31:17.389 -0400,10414.17827916667,0.6308441162109375,0.6450042724609375,-0.243316650390625,1,0.97
2020-05-16 12:31:17.458 -0400,10414.24813016667,0.8139495849609375,0.8107757568359375,-0.4537353515625,1,0.97
2020-05-16 12:31:17.528 -0400,10414.31798216667,0.8925018310546875,0.6568756103515625,-0.4983367919921875,1,0.97
2020-05-16 12:31:17.598 -0400,10414.38783216667,1.61114501953125,0.7369537353515625,-0.475433349609375,1,0.97
2020-05-16 12:31:17.668 -0400,10414.45768016667,1.534835815429688,0.427001953125,-0.3689727783203125,1,0.97
2020-05-16 12:31:17.738 -0400,10414.52752616667,1.548919677734375,0.4825286865234375,-0.38616943359375,1,0.97
2020-05-16 12:31:17.808 -0400,10414.59737316667,0.9600372314453125,0.10186767578125,-0.2220611572265625,1,0.97
2020-05-16 12:31:17.877 -0400,10414.66722016667,0.5572662353515625,0.4242401123046875,-0.0721588134765625,1,0.97
2020-05-16 12:31:17.947 -0400,10414.73707016667,0.574676513671875,0.33294677734375,0.0195770263671875,1,0.97
2020-05-16 12:31:18.017 -0400,10414.80691625,0.6610870361328125,0.161865234375,0.058685302734375,1,0.97
2020-05-16 12:31:18.087 -0400,10414.87676225,0.773406982421875,0.2186737060546875,0.0732574462890625,1,0.97
2020-05-16 12:31:18.157 -0400,10414.94660925,1.227676391601562,0.4702606201171875,0.0176239013671875,1,0.97
2020-05-16 12:31:18.227 -0400,10415.01645825,1.443984985351562,0.76544189453125,-0.5889892578125,1,0.97
2020-05-16 12:31:18.297 -0400,10415.08630425,1.308639526367188,0.4526519775390625,-0.18280029296875,1,0.97
2020-05-16 12:31:18.366 -0400,10415.15615225,0.6923370361328125,0.0396728515625,-0.3666534423828125,1,0.97
2020-05-16 12:31:18.436 -0400,10415.22600125,0.5169830322265625,0.41717529296875,-0.2603302001953125,1,0.97
2020-05-16 12:31:18.506 -0400,10415.29584725,0.70147705078125,0.6659698486328125,-0.3604278564453125,1,0.97
2020-05-16 12:31:18.576 -0400,10415.36569925,1.008804321289062,0.687225341796875,-0.63690185546875,1,0.97
2020-05-16 12:31:18.646 -0400,10415.43554825,1.165740966796875,0.402099609375,-0.4791412353515625,1,0.97
2020-05-16 12:31:18.716 -0400,10415.50540025,1.661148071289062,0.5608673095703125,-0.4973602294921875,1,0.97
2020-05-16 12:31:18.785 -0400,10415.57525325,1.371856689453125,0.3923797607421875,-0.2393341064453125,1,0.97
2020-05-16 12:31:18.855 -0400,10415.64510125,1.198272705078125,0.434478759765625,-0.1342926025390625,1,0.97
2020-05-16 12:31:18.925 -0400,10415.71494925,0.61474609375,0.308135986328125,-0.089447021484375,1,0.97
2020-05-16 12:31:18.995 -0400,10415.784800875,0.5181732177734375,0.3397064208984375,0.0118255615234375,1,0.97
2020-05-16 12:31:19.065 -0400,10415.854648875,0.5726776123046875,0.2026214599609375,0.0312042236328125,1,0.97
2020-05-16 12:31:19.135 -0400,10415.924494875,0.7880401611328125,0.196929931640625,0.023590087890625,1,0.97
2020-05-16 12:31:19.205 -0400,10415.994339875,0.84478759765625,0.296905517578125,-0.0738983154296875,1,0.97
2020-05-16 12:31:19.275 -0400,10416.064184875,1.547637939453125,0.7023162841796875,-0.2017669677734375,1,0.97
2020-05-16 12:31:19.344 -0400,10416.134027875,1.699630737304688,0.6773529052734375,-0.6948394775390625,1,0.97
2020-05-16 12:31:19.414 -0400,10416.203873875,0.727264404296875,0.303436279296875,-0.42681884765625,1,0.97
2020-05-16 12:31:19.484 -0400,10416.273714875,0.6287994384765625,0.126495361328125,-0.2760467529296875,1,0.97
2020-05-16 12:31:19.554 -0400,10416.343556875,0.49871826171875,0.6598052978515625,-0.46160888671875,1,0.97
2020-05-16 12:31:19.624 -0400,10416.413402875,0.6499176025390625,0.8717803955078125,-0.705535888671875,1,0.97
2020-05-16 12:31:19.693 -0400,10416.483250875,1.530014038085938,0.6549072265625,-0.5293731689453125,1,0.97
2020-05-16 12:31:19.763 -0400,10416.553095875,1.749313354492188,0.15380859375,-0.3811492919921875,1,0.97
2020-05-16 12:31:19.833 -0400,10416.622945875,1.424819946289062,0.3918914794921875,-0.1611175537109375,1,0.97
2020-05-16 12:31:19.903 -0400,10416.692793875,1.413330078125,0.675384521484375,-0.2571258544921875,1,0.97
2020-05-16 12:31:19.973 -0400,10416.762643875,0.7691192626953125,0.2901458740234375,-0.0123138427734375,1,0.97
2020-05-16 12:31:20.043 -0400,10416.832491875,0.577880859375,0.23199462890625,0.028594970703125,1,0.97
2020-05-16 12:31:20.113 -0400,10416.902337875,0.610198974609375,0.1909637451171875,0.0501251220703125,1,0.97
2020-05-16 12:31:20.183 -0400,10416.972183875,0.614227294921875,0.1650543212890625,0.089141845703125,1,0.97
2020-05-16 12:31:20.252 -0400,10417.042029875,0.5589447021484375,0.20709228515625,0.080810546875,1,0.97
2020-05-16 12:31:20.322 -0400,10417.111874875,0.950531005859375,0.4528656005859375,-0.1013031005859375,1,0.97
2020-05-16 12:31:20.392 -0400,10417.181722875,1.606277465820312,0.8383941650390625,-0.77349853515625,1,0.97
2020-05-16 12:31:20.462 -0400,10417.251566875,1.66021728515625,0.774993896484375,-0.497955322265625,1,0.97
2020-05-16 12:31:20.532 -0400,10417.321406875,0.8641510009765625,-0.1855926513671875,-0.481719970703125,1,0.97
2020-05-16 12:31:20.601 -0400,10417.391246875,0.6454315185546875,0.4694976806640625,-0.47528076171875,1,0.97
2020-05-16 12:31:20.671 -0400,10417.461089875,0.4754486083984375,0.83831787109375,-0.536163330078125,1,0.97
2020-05-16 12:31:20.741 -0400,10417.530930875,0.84942626953125,0.683624267578125,-0.512969970703125,1,0.97
2020-05-16 12:31:20.811 -0400,10417.600772875,1.304580688476562,0.3550567626953125,-0.2502593994140625,1,0.97
2020-05-16 12:31:20.881 -0400,10417.670614875,1.783950805664062,0.602508544921875,-0.46875,1,0.97
2020-05-16 12:31:20.951 -0400,10417.740456875,1.837783813476562,0.5165252685546875,-0.217864990234375,1,0.97
2020-05-16 12:31:21.021 -0400,10417.810295,1.107742309570312,0.264556884765625,-0.144256591796875,1,0.97
2020-05-16 12:31:21.090 -0400,10417.880133,0.593597412109375,0.3372344970703125,-0.068450927734375,1,0.97
2020-05-16 12:31:21.160 -0400,10417.94997,0.5187530517578125,0.3206024169921875,0.0357818603515625,1,0.97
2020-05-16 12:31:21.231 -0400,10418.019808,0.5066070556640625,0.1573486328125,0.0056915283203125,1,0.97
2020-05-16 12:31:21.300 -0400,10418.089649,0.6771087646484375,0.1681060791015625,0.009368896484375,1,0.97
2020-05-16 12:31:21.370 -0400,10418.159489,1.086883544921875,0.3855438232421875,0.080535888671875,1,0.97
2020-05-16 12:31:21.440 -0400,10418.229331,1.43878173828125,0.8069915771484375,-0.5419158935546875,1,0.97
2020-05-16 12:31:21.509 -0400,10418.299176,1.6275634765625,0.70135498046875,-0.555389404296875,1,0.97
2020-05-16 12:31:21.579 -0400,10418.369019,0.917510986328125,0.5296783447265625,-0.4709625244140625,1,0.97
2020-05-16 12:31:21.649 -0400,10418.438863,0.7489166259765625,0.4615325927734375,-0.5072174072265625,1,0.97
2020-05-16 12:31:21.719 -0400,10418.508704,0.7155914306640625,0.79351806640625,-0.4774932861328125,1,0.97
2020-05-16 12:31:21.789 -0400,10418.578549,0.8746337890625,1.040145874023438,-0.556549072265625,1,0.97
2020-05-16 12:31:21.859 -0400,10418.648392,1.70306396484375,0.786895751953125,-0.631195068359375,1,0.97
2020-05-16 12:31:21.928 -0400,10418.718235,1.7501220703125,0.534423828125,-0.4364166259765625,1,0.97
2020-05-16 12:31:21.998 -0400,10418.788079125,2.129776000976562,0.457000732421875,-0.2417755126953125,1,0.97
2020-05-16 12:31:22.068 -0400,10418.857921125,1.200790405273438,0.2550811767578125,-0.2560577392578125,1,0.97
2020-05-16 12:31:22.139 -0400,10418.927762125,0.858856201171875,0.3006744384765625,-0.0523834228515625,1,0.97
2020-05-16 12:31:22.208 -0400,10418.997603125,0.5513763427734375,0.1256256103515625,0.0415496826171875,1,0.97
2020-05-16 12:31:22.278 -0400,10419.067447125,0.398193359375,0.012420654296875,0.04486083984375,1,0.97
2020-05-16 12:31:22.348 -0400,10419.137291125,0.28070068359375,0.0770263671875,0.06591796875,1,0.97
2020-05-16 12:31:22.417 -0400,10419.207137125,0.559967041015625,0.6089935302734375,-0.1546173095703125,1,0.97
2020-05-16 12:31:22.487 -0400,10419.276982125,0.9109954833984375,0.89239501953125,-0.46392822265625,1,0.97
2020-05-16 12:31:22.557 -0400,10419.346829125,2.150650024414062,1.025039672851562,-0.6434173583984375,1,0.97
2020-05-16 12:31:22.627 -0400,10419.416674125,0.97174072265625,0.1378936767578125,-0.351409912109375,1,0.97
2020-05-16 12:31:22.697 -0400,10419.486519125,0.6750030517578125,0.118377685546875,-0.4119110107421875,1,0.97
2020-05-16 12:31:22.767 -0400,10419.556364125,0.588592529296875,0.8323974609375,-0.3879241943359375,1,0.97
2020-05-16 12:31:22.836 -0400,10419.626210125,0.6389312744140625,1.030319213867188,-0.48992919921875,1,0.97
2020-05-16 12:31:22.906 -0400,10419.696058125,0.947296142578125,0.63299560546875,-0.4959564208984375,1,0.97
2020-05-16 12:31:22.976 -0400,10419.765899125,1.914016723632812,0.562164306640625,-0.5294189453125,1,0.97
2020-05-16 12:31:23.046 -0400,10419.835739125,1.92340087890625,0.250732421875,-0.237457275390625,1,0.97
2020-05-16 12:31:23.116 -0400,10419.905578125,1.413955688476562,0.4664459228515625,-0.1920166015625,1,0.97
2020-05-16 12:31:23.185 -0400,10419.975419125,0.783935546875,0.4191131591796875,-0.093017578125,1,0.97
2020-05-16 12:31:23.256 -0400,10420.045260125,0.5662841796875,0.3338623046875,0.0866241455078125,1,0.97
2020-05-16 12:31:23.325 -0400,10420.115106125,0.5530548095703125,0.20281982421875,0.065643310546875,1,0.97
2020-05-16 12:31:23.395 -0400,10420.184948125,0.7480010986328125,0.1807861328125,0.0887603759765625,1,0.97
2020-05-16 12:31:23.465 -0400,10420.254791125,0.460296630859375,0.189117431640625,-0.00067138671875,1,0.97
2020-05-16 12:31:23.535 -0400,10420.324633125,1.098846435546875,0.4694366455078125,0.111724853515625,1,0.97
2020-05-16 12:31:23.605 -0400,10420.394474125,1.4451904296875,0.834320068359375,-0.614654541015625,1,0.97
2020-05-16 12:31:23.674 -0400,10420.464314125,1.462295532226562,0.8058013916015625,-0.969696044921875,1,0.97
2020-05-16 12:31:23.744 -0400,10420.534153125,1.060897827148438,0.5067138671875,-0.7129974365234375,1,0.97
2020-05-16 12:31:23.814 -0400,10420.603993125,0.7407379150390625,0.5889434814453125,-0.4673309326171875,1,0.97
2020-05-16 12:31:23.884 -0400,10420.673833125,0.5902252197265625,0.7985382080078125,-0.2556304931640625,1,0.97
2020-05-16 12:31:23.954 -0400,10420.743674125,0.8741302490234375,1.09503173828125,-0.0758056640625,1,0.97
2020-05-16 12:31:24.024 -0400,10420.81351966667,1.745803833007812,1.134613037109375,-0.300384521484375,1,0.97
2020-05-16 12:31:24.094 -0400,10420.88336366667,1.79766845703125,0.750030517578125,-0.211761474609375,1,0.97
2020-05-16 12:31:24.163 -0400,10420.95320866667,1.517105102539062,0.5482940673828125,-0.18212890625,1,0.97
2020-05-16 12:31:24.233 -0400,10421.02305266667,1.023391723632812,0.311492919921875,-0.15716552734375,1,0.97
2020-05-16 12:31:24.303 -0400,10421.09289466667,0.8918914794921875,0.217803955078125,-0.0860443115234375,1,0.97
2020-05-16 12:31:24.373 -0400,10421.16274166667,0.7976531982421875,0.1351470947265625,-0.078216552734375,1,0.97
