loggingTime(txt),accelerometerTimestamp_sinceReboot(s),accelerometerAccelerationX(G),accelerometerAccelerationY(G),accelerometerAccelerationZ(G),batteryState,batteryLevel
2020-05-16 12:38:36.773 -0400,10853.558798125,-0.103363037109375,-0.0782470703125,-1.095306396484375,1,0.96
2020-05-16 12:38:36.889 -0400,10853.678538125,0.2668914794921875,0.1975555419921875,-1.305892944335938,1,0.96
2020-05-16 12:38:37.008 -0400,10853.798281125,0.6357421875,0.01959228515625,-0.6227569580078125,1,0.96
2020-05-16 12:38:37.128 -0400,10853.918020125,0.2625885009765625,0.0830078125,-0.1569671630859375,1,0.96
2020-05-16 12:38:37.248 -0400,10854.037763125,0.496307373046875,0.7914886474609375,-0.2479400634765625,1,0.96
2020-05-16 12:38:37.368 -0400,10854.157509125,0.9197540283203125,1.332809448242188,-0.2807769775390625,1,0.96
2020-05-16 12:38:37.488 -0400,10854.27725204167,1.124725341796875,1.459136962890625,-0.1277618408203125,1,0.96
2020-05-16 12:38:37.607 -0400,10854.39698904167,0.876220703125,0.5574188232421875,-0.13177490234375,1,0.96
2020-05-16 12:38:37.727 -0400,10854.51672804167,0.5802154541015625,0.40679931640625,-0.0944061279296875,1,0.96
2020-05-16 12:38:37.805 -0400,10854.58657704167,0.862152099609375,0.339111328125,-0.09503173828125,1,0.96
2020-05-16 12:38:37.867 -0400,10854.65642604167,1.131683349609375,0.2214813232421875,-0.0293426513671875,1,0.96
2020-05-16 12:38:37.937 -0400,10854.72627304167,0.8928070068359375,0.25848388671875,-0.0703887939453125,1,0.96
2020-05-16 12:38:38.006 -0400,10854.79611804167,0.9579925537109375,0.510955810546875,-0.259002685546875,1,0.96
2020-05-16 12:38:38.076 -0400,10854.86596404167,1.151870727539062,0.5005340576171875,-0.36993408203125,1,0.96
2020-05-16 12:38:38.146 -0400,10854.93581204167,0.9398956298828125,0.4539947509765625,-0.27532958984375,1,0.96
2020-05-16 12:38:38.216 -0400,10855.00565704167,0.6046142578125,0.30780029296875,-0.2165374755859375,1,0.96
2020-05-16 12:38:38.286 -0400,10855.07550504167,0.645538330078125,0.4613037109375,-0.280242919921875,1,0.96
2020-05-16 12:38:38.365 -0400,10855.14535304167,0.8953094482421875,0.657073974609375,-0.424957275390625,1,0.96
2020-05-16 12:38:38.426 -0400,10855.21519904167,0.8988494873046875,0.6215667724609375,-0.5167083740234375,1,0.96
2020-05-16 12:38:38.495 -0400,10855.28504854167,1.537628173828125,0.7821807861328125,-0.650390625,1,0.96
2020-05-16 12:38:38.565 -0400,10855.35489654167,1.577239990234375,0.499298095703125,-0.4965667724609375,1,0.96
2020-05-16 12:38:38.635 -0400,10855.42474754167,1.6300048828125,0.375518798828125,-0.2765960693359375,1,0.96
2020-05-16 12:38:38.705 -0400,10855.49459854167,1.07293701171875,0.2542877197265625,-0.1897125244140625,1,0.96
2020-05-16 12:38:38.775 -0400,10855.56444754167,0.6611480712890625,0.38922119140625,-0.0749969482421875,1,0.96
2020-05-16 12:38:38.844 -0400,10855.63429154167,0.5001220703125,0.348968505859375,0.0124969482421875,1,0.96
2020-05-16 12:38:38.914 -0400,10855.70413454167,0.6441802978515625,0.230865478515625,0.0557403564453125,1,0.96
2020-05-16 12:38:38.984 -0400,10855.77398054167,0.9425506591796875,0.25592041015625,0.06060791015625,1,0.96
2020-05-16 12:38:39.054 -0400,10855.84382754167,1.424026489257812,0.404449462890625,0.028533935546875,1,0.96
2020-05-16 12:38:39.124 -0400,10855.91367654167,1.064208984375,0.580657958984375,-0.5711212158203125,1,0.96
2020-05-16 12:38:39.194 -0400,10855.98353054167,1.3985595703125,0.46307373046875,-0.5218048095703125,1,0.96
2020-05-16 12:38:39.264 -0400,10856.05338354167,0.976898193359375,0.21051025390625,-0.5219268798828125,1,0.96
2020-05-16 12:38:39.333 -0400,10856.12323654167,0.690460205078125,0.627227783203125,-0.3513946533203125,1,0.96
2020-05-16 12:38:39.403 -0400,10856.19308754167,0.71600341796875,0.6736602783203125,-0.3107757568359375,1,0.96
2020-05-16 12:38:39.473 -0400,10856.262943375,0.80413818359375,0.673248291015625,-0.324737548828125,1,0.96
2020-05-16 12:38:39.543 -0400,10856.332802375,0.8401947021484375,0.831329345703125,-0.3404998779296875,1,0.96
2020-05-16 12:38:39.613 -0400,10856.402661375,1.972854614257812,1.205062866210938,-0.57342529296875,1,0.96
2020-05-16 12:38:39.683 -0400,10856.472518375,1.577041625976562,0.2599945068359375,-0.3232879638671875,1,0.96
2020-05-16 12:38:39.753 -0400,10856.542375375,1.353240966796875,0.3717803955078125,-0.30902099609375,1,0.96
2020-05-16 12:38:39.822 -0400,10856.612225375,0.735565185546875,0.3298797607421875,-0.1947784423828125,1,0.96
2020-05-16 12:38:39.892 -0400,10856.682074375,0.5193328857421875,0.2294921875,-0.0740966796875,1,0.96
2020-05-16 12:38:39.962 -0400,10856.751929375,0.519775390625,0.1492767333984375,-0.0118865966796875,1,0.96
2020-05-16 12:38:40.032 -0400,10856.821780375,0.620452880859375,0.146484375,-0.0070953369140625,1,0.96
2020-05-16 12:38:40.102 -0400,10856.891631375,0.7958526611328125,0.2411651611328125,-0.04693603515625,1,0.96
2020-05-16 12:38:40.172 -0400,10856.961483375,1.4857177734375,0.5977783203125,-0.207550048828125,1,0.96
2020-05-16 12:38:40.242 -0400,10857.031336375,1.830001831054688,0.6102752685546875,-0.592498779296875,1,0.96
2020-05-16 12:38:40.315 -0400,10857.101187375,1.118896484375,0.547119140625,-0.433319091796875,1,0.96
2020-05-16 12:38:40.381 -0400,10857.171037375,0.8072509765625,0.60137939453125,-0.4796295166015625,1,0.96
2020-05-16 12:38:40.451 -0400,10857.240887875,0.6104888916015625,0.7809295654296875,-0.477447509765625,1,0.96
2020-05-16 12:38:40.521 -0400,10857.310737875,0.6309661865234375,0.82012939453125,-0.5567474365234375,1,0.96
2020-05-16 12:38:40.591 -0400,10857.380582875,1.04736328125,0.828155517578125,-0.382171630859375,1,0.96
2020-05-16 12:38:40.661 -0400,10857.450431875,1.65045166015625,0.5924530029296875,-0.4178619384765625,1,0.96
2020-05-16 12:38:40.730 -0400,10857.520278875,1.804290771484375,0.4894256591796875,-0.29449462890625,1,0.96
2020-05-16 12:38:40.800 -0400,10857.590121875,1.7818603515625,0.3984375,-0.18682861328125,1,0.96
2020-05-16 12:38:40.870 -0400,10857.659969875,1.023361206054688,0.295440673828125,-0.1013336181640625,1,0.96
2020-05-16 12:38:40.940 -0400,10857.729815875,0.7541656494140625,0.288116455078125,-0.063690185546875,1,0.96
2020-05-16 12:38:41.010 -0400,10857.799664875,0.6380462646484375,0.157867431640625,-0.0090179443359375,1,0.96
2020-05-16 12:38:41.080 -0400,10857.869510875,0.5380401611328125,0.0732421875,-0.00018310546875,1,0.96
2020-05-16 12:38:41.150 -0400,10857.939359875,0.423370361328125,0.10943603515625,-0.0171356201171875,1,0.96
2020-05-16 12:38:41.219 -0400,10858.009207875,0.8281707763671875,0.585693359375,-0.278289794921875,1,0.96
2020-05-16 12:38:41.289 -0400,10858.079054875,1.355926513671875,0.7935638427734375,-0.53363037109375,1,0.96
2020-05-16 12:38:41.359 -0400,10858.148900875,1.723983764648438,0.6226043701171875,-0.5406036376953125,1,0.96
2020-05-16 12:38:41.429 -0400,10858.218744875,1.149429321289062,0.699371337890625,-0.3875274658203125,1,0.96
2020-05-16 12:38:41.499 -0400,10858.28858904167,0.6842041015625,0.8739776611328125,-0.4096527099609375,1,0.96
2020-05-16 12:38:41.569 -0400,10858.35843304167,0.540130615234375,0.9328155517578125,-0.52587890625,1,0.96
2020-05-16 12:38:41.638 -0400,10858.42828004167,0.6148529052734375,0.6723785400390625,-0.5053253173828125,1,0.96
2020-05-16 12:38:41.708 -0400,10858.49813004167,0.9930572509765625,0.738525390625,-0.3768310546875,1,0.96
2020-05-16 12:38:41.778 -0400,10858.56798204167,1.769287109375,0.5316619873046875,-0.3785247802734375,1,0.96
2020-05-16 12:38:41.848 -0400,10858.63783304167,1.919464111328125,0.466339111328125,-0.376190185546875,1,0.96
2020-05-16 12:38:41.918 -0400,10858.70768404167,1.561325073242188,0.49273681640625,-0.17803955078125,1,0.96
2020-05-16 12:38:41.988 -0400,10858.77753704167,0.7855682373046875,0.3025665283203125,-0.0999755859375,1,0.96
2020-05-16 12:38:42.058 -0400,10858.84738504167,0.734710693359375,0.256561279296875,-0.047637939453125,1,0.96
2020-05-16 12:38:42.127 -0400,10858.91723204167,0.6815643310546875,0.117950439453125,-0.0194244384765625,1,0.96
2020-05-16 12:38:42.197 -0400,10858.98708204167,0.649139404296875,0.0754241943359375,-0.0368804931640625,1,0.96
2020-05-16 12:38:42.267 -0400,10859.05693204167,0.552398681640625,0.19793701171875,-0.038604736328125,1,0.96
2020-05-16 12:38:42.337 -0400,10859.12678304167,0.92340087890625,0.7535552978515625,-0.1510467529296875,1,0.96
2020-05-16 12:38:42.407 -0400,10859.19663404167,1.465164184570312,0.853912353515625,-0.616546630859375,1,0.96
2020-05-16 12:38:42.477 -0400,10859.26648425,1.603530883789062,0.81072998046875,-0.53302001953125,1,0.96
2020-05-16 12:38:42.547 -0400,10859.33633725,1.0289306640625,0.689483642578125,-0.3255767822265625,1,0.96
2020-05-16 12:38:42.616 -0400,10859.40618825,0.8597869873046875,0.7587890625,-0.5255889892578125,1,0.96
2020-05-16 12:38:42.686 -0400,10859.47603925,0.5619354248046875,0.9108428955078125,-0.6285247802734375,1,0.96
2020-05-16 12:38:42.756 -0400,10859.54589025,0.472076416015625,0.866943359375,-0.5875701904296875,1,0.96
2020-05-16 12:38:42.826 -0400,10859.61574225,0.9719085693359375,0.8878631591796875,-0.2757110595703125,1,0.96
2020-05-16 12:38:42.896 -0400,10859.68559125,2.135360717773438,0.6153411865234375,-0.316436767578125,1,0.96
2020-05-16 12:38:42.966 -0400,10859.75544125,2.2718505859375,0.434478759765625,-0.0651702880859375,1,0.96
2020-05-16 12:38:43.036 -0400,10859.82528625,1.462799072265625,0.8030548095703125,-0.0656585693359375,1,0.96
2020-05-16 12:38:43.105 -0400,10859.89513325,0.9607696533203125,0.5169830322265625,0.0780029296875,1,0.96
2020-05-16 12:38:43.175 -0400,10859.96497825,0.8141021728515625,0.2719268798828125,0.042572021484375,1,0.96
2020-05-16 12:38:43.245 -0400,10860.03482625,0.696685791015625,0.131988525390625,-0.0257720947265625,1,0.96
2020-05-16 12:38:43.315 -0400,10860.10467725,0.637176513671875,0.0884857177734375,-0.0634002685546875,1,0.96
2020-05-16 12:38:43.385 -0400,10860.17452625,0.491912841796875,0.0582733154296875,-0.1768341064453125,1,0.96
2020-05-16 12:38:43.455 -0400,10860.244375125,0.788665771484375,0.2781524658203125,-0.316070556640625,1,0.96
2020-05-16 12:38:43.525 -0400,10860.314222125,1.441574096679688,1.19549560546875,-0.7761077880859375,1,0.96
2020-05-16 12:38:43.594 -0400,10860.384071125,1.299407958984375,0.941619873046875,-0.5988311767578125,1,0.96
2020-05-16 12:38:43.664 -0400,10860.453918125,1.002059936523438,0.8485260009765625,-0.4567718505859375,1,0.96
2020-05-16 12:38:43.734 -0400,10860.523767125,0.7305755615234375,1.161239624023438,-0.1810760498046875,1,0.96
2020-05-16 12:38:43.804 -0400,10860.593614125,0.642822265625,1.335678100585938,-0.1336669921875,1,0.96
2020-05-16 12:38:43.874 -0400,10860.663464125,0.7739410400390625,1.161544799804688,-0.162689208984375,1,0.96
2020-05-16 12:38:43.944 -0400,10860.733314125,1.805755615234375,0.90362548828125,-0.2736053466796875,1,0.96
2020-05-16 12:38:44.013 -0400,10860.803164125,2.524383544921875,0.6271820068359375,-0.01953125,1,0.96
2020-05-16 12:38:44.083 -0400,10860.873013125,1.466171264648438,0.53521728515625,-0.2094268798828125,1,0.96
2020-05-16 12:38:44.153 -0400,10860.942865125,0.90216064453125,0.447662353515625,-0.103485107421875,1,0.96
2020-05-16 12:38:44.223 -0400,10861.012715125,0.7922821044921875,0.3282928466796875,0.01727294921875,1,0.96
2020-05-16 12:38:44.293 -0400,10861.082564125,0.83331298828125,0.2121429443359375,-0.04034423828125,1,0.96
2020-05-16 12:38:44.363 -0400,10861.152411125,0.646148681640625,0.032928466796875,-0.062347412109375,1,0.96
2020-05-16 12:38:44.432 -0400,10861.222258125,0.2061614990234375,0.0428314208984375,-0.1287841796875,1,0.96
2020-05-16 12:38:44.502 -0400,10861.29210975,0.6999359130859375,0.57244873046875,-0.454376220703125,1,0.96
2020-05-16 12:38:44.572 -0400,10861.36196075,0.9261322021484375,0.6968994140625,-0.6553497314453125,1,0.96
2020-05-16 12:38:44.642 -0400,10861.43181175,1.385147094726562,0.48321533203125,-0.490997314453125,1,0.96
2020-05-16 12:38:44.712 -0400,10861.50166075,0.900848388671875,0.4663543701171875,-0.1844635009765625,1,0.96
2020-05-16 12:38:44.782 -0400,10861.57151275,0.765869140625,0.7333221435546875,-0.0833892822265625,1,0.96
2020-05-16 12:38:44.852 -0400,10861.64136475,0.9620513916015625,1.092010498046875,-0.130859375,1,0.96
2020-05-16 12:38:44.921 -0400,10861.71121075,0.8557281494140625,0.964569091796875,-0.2926788330078125,1,0.96
2020-05-16 12:38:44.991 -0400,10861.78105575,1.657135009765625,1.243927001953125,-0.3306732177734375,1,0.96
2020-05-16 12:38:45.061 -0400,10861.85089675,1.388137817382812,0.517181396484375,-0.2109832763671875,1,0.96
2020-05-16 12:38:45.131 -0400,10861.92073975,1.578811645507812,0.61883544921875,-0.2823638916015625,1,0.96
2020-05-16 12:38:45.201 -0400,10861.99058175,1.065811157226562,0.3392181396484375,-0.1784515380859375,1,0.96
2020-05-16 12:38:45.271 -0400,10862.06042475,0.7934112548828125,0.326629638671875,-0.071380615234375,1,0.96
2020-05-16 12:38:45.341 -0400,10862.13026675,0.72283935546875,0.26531982421875,-0.0398712158203125,1,0.96
2020-05-16 12:38:45.411 -0400,10862.20011075,1.085983276367188,0.2966156005859375,-0.07525634765625,1,0.96
2020-05-16 12:38:45.480 -0400,10862.2699535,0.8242645263671875,0.126434326171875,0.102203369140625,1,0.96
2020-05-16 12:38:45.550 -0400,10862.3397965,0.8712310791015625,0.486785888671875,-0.176422119140625,1,0.96
2020-05-16 12:38:45.620 -0400,10862.4096385,1.285934448242188,0.7090606689453125,-0.5633087158203125,1,0.96
2020-05-16 12:38:45.690 -0400,10862.4794845,1.219757080078125,0.279815673828125,-0.1688995361328125,1,0.96
2020-05-16 12:38:45.760 -0400,10862.5493295,0.8997802734375,0.0982208251953125,-0.19708251953125,1,0.96
2020-05-16 12:38:45.829 -0400,10862.6191725,0.90478515625,0.7530670166015625,-0.1024169921875,1,0.96
2020-05-16 12:38:45.899 -0400,10862.6890155,0.8619384765625,1.057601928710938,-0.2250213623046875,1,0.96
2020-05-16 12:38:45.969 -0400,10862.7588585,0.9137725830078125,1.119537353515625,-0.2850341796875,1,0.96
2020-05-16 12:38:46.039 -0400,10862.8287045,1.501708984375,0.7044219970703125,-0.347381591796875,1,0.96
2020-05-16 12:38:46.109 -0400,10862.8985495,1.358306884765625,0.7615814208984375,-0.272064208984375,1,0.96
2020-05-16 12:38:46.179 -0400,10862.9683925,1.585357666015625,0.6647186279296875,-0.2377166748046875,1,0.96
2020-05-16 12:38:46.248 -0400,10863.0382365,1.034622192382812,0.299957275390625,-0.1624603271484375,1,0.96
2020-05-16 12:38:46.319 -0400,10863.1080815,0.851806640625,0.3794097900390625,-0.075103759765625,1,0.96
2020-05-16 12:38:46.388 -0400,10863.1779285,0.975250244140625,0.3115386962890625,-0.0059661865234375,1,0.96
2020-05-16 12:38:46.458 -0400,10863.24777325,1.029449462890625,0.16046142578125,0.045013427734375,1,0.96
2020-05-16 12:38:46.528 -0400,10863.31761825,0.768890380859375,0.1963958740234375,0.0595550537109375,1,0.96
2020-05-16 12:38:46.598 -0400,10863.38746325,0.749420166015625,0.4578399658203125,-0.1588592529296875,1,0.96
2020-05-16 12:38:46.667 -0400,10863.45730625,0.8302154541015625,0.4904937744140625,-0.365447998046875,1,0.96
2020-05-16 12:38:46.737 -0400,10863.52714625,1.630096435546875,0.608551025390625,-0.45477294921875,1,0.96
2020-05-16 12:38:46.807 -0400,10863.59698525,0.847503662109375,0.3917694091796875,-0.4249420166015625,1,0.96
2020-05-16 12:38:46.877 -0400,10863.66682625,0.7718658447265625,0.3437042236328125,-0.29437255859375,1,0.96
2020-05-16 12:38:46.947 -0400,10863.73666825,0.97760009765625,0.687774658203125,-0.316314697265625,1,0.96
2020-05-16 12:38:47.017 -0400,10863.80650725,0.9583892822265625,0.8101959228515625,-0.452880859375,1,0.96
2020-05-16 12:38:47.087 -0400,10863.87634525,1.417343139648438,0.7671356201171875,-0.35888671875,1,0.96
2020-05-16 12:38:47.156 -0400,10863.94618525,1.20159912109375,0.55401611328125,-0.3596954345703125,1,0.96
2020-05-16 12:38:47.226 -0400,10864.01602325,1.3243408203125,0.6191253662109375,-0.2564544677734375,1,0.96
2020-05-16 12:38:47.296 -0400,10864.08586625,1.05889892578125,0.323944091796875,-0.2096099853515625,1,0.96
2020-05-16 12:38:47.366 -0400,10864.15570825,0.7832183837890625,0.298004150390625,-0.103057861328125,1,0.96
2020-05-16 12:38:47.436 -0400,10864.22555025,0.7310638427734375,0.3235626220703125,-0.046051025390625,1,0.96
2020-05-16 12:38:47.506 -0400,10864.295392625,1.022247314453125,0.2613372802734375,-0.0085906982421875,1,0.96
2020-05-16 12:38:47.575 -0400,10864.365237625,0.95440673828125,0.2584075927734375,-0.0180206298828125,1,0.96
2020-05-16 12:38:47.646 -0400,10864.435084625,0.942901611328125,0.4232025146484375,-0.1251983642578125,1,0.96
2020-05-16 12:38:47.715 -0400,10864.504926625,1.08465576171875,0.493682861328125,-0.3671417236328125,1,0.96
2020-05-16 12:38:47.785 -0400,10864.574770625,1.029098510742188,0.4001007080078125,-0.3446807861328125,1,0.96
2020-05-16 12:38:47.855 -0400,10864.644615625,0.5963287353515625,0.2942352294921875,-0.2956390380859375,1,0.96
2020-05-16 12:38:47.925 -0400,10864.714459625,0.61871337890625,0.50506591796875,-0.239990234375,1,0.96
2020-05-16 12:38:47.995 -0400,10864.784302625,1.094528198242188,0.7237701416015625,-0.45123291015625,1,0.96
2020-05-16 12:38:48.065 -0400,10864.854145625,1.049652099609375,0.752349853515625,-0.5594940185546875,1,0.96
2020-05-16 12:38:48.134 -0400,10864.923993625,1.639175415039062,0.6469573974609375,-0.43304443359375,1,0.96
2020-05-16 12:38:48.204 -0400,10864.993840625,1.34893798828125,0.4759368896484375,-0.359588623046875,1,0.96
2020-05-16 12:38:48.274 -0400,10865.063687625,1.164154052734375,0.5213165283203125,-0.278228759765625,1,0.96
2020-05-16 12:38:48.344 -0400,10865.133529625,0.76043701171875,0.3388671875,-0.1977691650390625,1,0.96
2020-05-16 12:38:48.414 -0400,10865.203371625,0.60791015625,0.341278076171875,-0.072021484375,1,0.96
2020-05-16 12:38:48.484 -0400,10865.27321454167,0.7164459228515625,0.30078125,-0.0700225830078125,1,0.96
2020-05-16 12:38:48.553 -0400,10865.34305954167,1.033309936523438,0.2127227783203125,-0.0330810546875,1,0.96
2020-05-16 12:38:48.623 -0400,10865.41290854167,1.005447387695312,0.2197723388671875,0.0515289306640625,1,0.96
2020-05-16 12:38:48.693 -0400,10865.48275254167,1.002090454101562,0.517547607421875,-0.194549560546875,1,0.96
2020-05-16 12:38:48.763 -0400,10865.55259554167,1.289520263671875,0.5589447021484375,-0.371124267578125,1,0.96
2020-05-16 12:38:48.833 -0400,10865.62244054167,0.9453582763671875,0.1804046630859375,-0.2624664306640625,1,0.96
2020-05-16 12:38:48.903 -0400,10865.69228454167,0.5135498046875,0.2488861083984375,-0.219512939453125,1,0.96
2020-05-16 12:38:48.972 -0400,10865.76213054167,0.57110595703125,0.535064697265625,-0.2128143310546875,1,0.96
2020-05-16 12:38:49.042 -0400,10865.83197854167,0.9643096923828125,0.6192626953125,-0.4275665283203125,1,0.96
2020-05-16 12:38:49.112 -0400,10865.90182454167,1.119918823242188,0.6378936767578125,-0.5780792236328125,1,0.96
2020-05-16 12:38:49.182 -0400,10865.97166754167,1.597381591796875,0.66180419921875,-0.502044677734375,1,0.96
2020-05-16 12:38:49.252 -0400,10866.04151354167,1.296463012695312,0.4034576416015625,-0.390045166015625,1,0.96
2020-05-16 12:38:49.322 -0400,10866.11135954167,1.32666015625,0.4412994384765625,-0.2425537109375,1,0.96
2020-05-16 12:38:49.391 -0400,10866.18120454167,0.824676513671875,0.2904510498046875,-0.1844940185546875,1,0.96
2020-05-16 12:38:49.461 -0400,10866.25105279167,0.5829925537109375,0.36236572265625,-0.032318115234375,1,0.96
2020-05-16 12:38:49.531 -0400,10866.32089979167,0.6658477783203125,0.3092193603515625,0.0108489990234375,1,0.96
2020-05-16 12:38:49.601 -0400,10866.39075179167,1.09869384765625,0.2773895263671875,0.0239715576171875,1,0.96
2020-05-16 12:38:49.671 -0400,10866.46060679167,1.095718383789062,0.293792724609375,0.021392822265625,1,0.96
2020-05-16 12:38:49.741 -0400,10866.53045979167,0.91168212890625,0.4970550537109375,-0.1846923828125,1,0.96
2020-05-16 12:38:49.812 -0400,10866.60031479167,1.189422607421875,0.5314788818359375,-0.3830108642578125,1,0.96
2020-05-16 12:38:49.880 -0400,10866.67017079167,0.928436279296875,0.181243896484375,-0.2944793701171875,1,0.96
2020-05-16 12:38:49.950 -0400,10866.74002279167,0.5476531982421875,0.200958251953125,-0.284515380859375,1,0.96
2020-05-16 12:38:50.020 -0400,10866.80987179167,0.5950927734375,0.640380859375,-0.302337646484375,1,0.96
2020-05-16 12:38:50.090 -0400,10866.87972279167,0.953094482421875,0.678680419921875,-0.477569580078125,1,0.96
2020-05-16 12:38:50.160 -0400,10866.94957279167,1.236892700195312,0.7181549072265625,-0.6018218994140625,1,0.96
2020-05-16 12:38:50.230 -0400,10867.01942479167,1.5626220703125,0.5609130859375,-0.392059326171875,1,0.96
2020-05-16 12:38:50.300 -0400,10867.08927579167,1.104202270507812,0.348907470703125,-0.3027191162109375,1,0.96
2020-05-16 12:38:50.370 -0400,10867.15912679167,1.158523559570312,0.6029815673828125,-0.2747039794921875,1,0.96
2020-05-16 12:38:50.439 -0400,10867.22897879167,0.895416259765625,0.29443359375,-0.14581298828125,1,0.96
2020-05-16 12:38:50.509 -0400,10867.298825625,0.71246337890625,0.327117919921875,-0.0518646240234375,1,0.96
2020-05-16 12:38:50.579 -0400,10867.368668625,0.71368408203125,0.3379058837890625,-0.0002899169921875,1,0.96
2020-05-16 12:38:50.649 -0400,10867.438513625,1.137130737304688,0.314361572265625,0.0096282958984375,1,0.96
2020-05-16 12:38:50.719 -0400,10867.508359625,1.236129760742188,0.2845916748046875,0.0341796875,1,0.96
2020-05-16 12:38:50.789 -0400,10867.578206625,0.9110565185546875,0.477508544921875,-0.2125091552734375,1,0.96
2020-05-16 12:38:50.858 -0400,10867.648052625,0.8045654296875,0.419219970703125,-0.3983001708984375,1,0.96
2020-05-16 12:38:50.928 -0400,10867.717901625,1.020553588867188,0.22784423828125,-0.262115478515625,1,0.96
2020-05-16 12:38:50.998 -0400,10867.787748625,0.7216033935546875,0.221160888671875,-0.4145050048828125,1,0.96
2020-05-16 12:38:51.068 -0400,10867.857594625,0.674468994140625,0.4375762939453125,-0.37164306640625,1,0.96
2020-05-16 12:38:51.138 -0400,10867.927436625,0.852264404296875,0.446319580078125,-0.3957061767578125,1,0.96
2020-05-16 12:38:51.208 -0400,10867.997277625,1.023162841796875,0.4843292236328125,-0.3865509033203125,1,0.96
2020-05-16 12:38:51.277 -0400,10868.067117625,1.617385864257812,0.7537994384765625,-0.4211578369140625,1,0.96
2020-05-16 12:38:51.347 -0400,10868.136961625,1.021347045898438,0.5768890380859375,-0.333038330078125,1,0.96
2020-05-16 12:38:51.417 -0400,10868.206802625,1.069869995117188,0.461029052734375,-0.223480224609375,1,0.96
2020-05-16 12:38:51.487 -0400,10868.27664404167,0.9996490478515625,0.3982086181640625,-0.1680145263671875,1,0.96
2020-05-16 12:38:51.557 -0400,10868.34648704167,0.788787841796875,0.305084228515625,-0.1389923095703125,1,0.96
2020-05-16 12:38:51.627 -0400,10868.41633304167,0.70550537109375,0.343902587890625,-0.063232421875,1,0.96
2020-05-16 12:38:51.696 -0400,10868.48617504167,0.814208984375,0.2741546630859375,-0.03338623046875,1,0.96
2020-05-16 12:38:51.766 -0400,10868.55601704167,1.43890380859375,0.3449859619140625,-0.1221923828125,1,0.96
2020-05-16 12:38:51.836 -0400,10868.62585904167,1.479400634765625,0.2445831298828125,-0.071929931640625,1,0.96
2020-05-16 12:38:51.906 -0400,10868.69570204167,1.22357177734375,0.4439544677734375,-0.2585906982421875,1,0.96
2020-05-16 12:38:51.976 -0400,10868.76554304167,0.9644775390625,0.30859375,-0.24029541015625,1,0.96
2020-05-16 12:38:52.046 -0400,10868.83538404167,0.93408203125,0.23272705078125,-0.188323974609375,1,0.96
2020-05-16 12:38:52.116 -0400,10868.90522904167,0.730621337890625,0.315399169921875,-0.2754669189453125,1,0.96
2020-05-16 12:38:52.185 -0400,10868.97507604167,0.6029510498046875,0.37225341796875,-0.2344512939453125,1,0.96
2020-05-16 12:38:52.255 -0400,10869.04492504167,0.4795074462890625,0.3910064697265625,-0.1806640625,1,0.96
2020-05-16 12:38:52.325 -0400,10869.11477404167,0.7732391357421875,0.4560089111328125,-0.2050628662109375,1,0.96
2020-05-16 12:38:52.395 -0400,10869.18462204167,1.12158203125,0.5001220703125,-0.3022613525390625,1,0.96
2020-05-16 12:38:52.465 -0400,10869.25447075,1.574493408203125,0.5941009521484375,-0.4507293701171875,1,0.96
2020-05-16 12:38:52.535 -0400,10869.32431375,1.362472534179688,0.457916259765625,-0.401580810546875,1,0.96
2020-05-16 12:38:52.604 -0400,10869.39415775,0.9290313720703125,0.4074859619140625,-0.365081787109375,1,0.96
2020-05-16 12:38:52.674 -0400,10869.46400575,1.03033447265625,0.2568511962890625,-0.259765625,1,0.96
2020-05-16 12:38:52.744 -0400,10869.53385475,0.75372314453125,0.301971435546875,-0.086212158203125,1,0.96
2020-05-16 12:38:52.814 -0400,10869.60370175,0.6433868408203125,0.3829803466796875,-0.0340728759765625,1,0.96
2020-05-16 12:38:52.884 -0400,10869.67354975,0.83868408203125,0.39501953125,-0.021087646484375,1,0.96
2020-05-16 12:38:52.954 -0400,10869.74339475,1.125289916992188,0.3604278564453125,-0.0437469482421875,1,0.96
2020-05-16 12:38:53.023 -0400,10869.81323975,1.502212524414062,0.313018798828125,-0.1388397216796875,1,0.96
2020-05-16 12:38:53.093 -0400,10869.88308375,1.385360717773438,0.30352783203125,-0.1244049072265625,1,0.96
2020-05-16 12:38:53.163 -0400,10869.95292575,0.932373046875,0.3535919189453125,-0.3532867431640625,1,0.96
2020-05-16 12:38:53.233 -0400,10870.02276975,0.7675628662109375,0.0865020751953125,-0.1708984375,1,0.96
2020-05-16 12:38:53.303 -0400,10870.09261675,0.788482666015625,0.227142333984375,-0.3074951171875,1,0.96
2020-05-16 12:38:53.373 -0400,10870.16246175,0.613189697265625,0.292144775390625,-0.2306976318359375,1,0.96
2020-05-16 12:38:53.443 -0400,10870.23230475,0.45819091796875,0.319854736328125,-0.1895751953125,1,0.96
2020-05-16 12:38:53.512 -0400,10870.30215341667,0.537445068359375,0.4389801025390625,-0.2245635986328125,1,0.96
2020-05-16 12:38:53.582 -0400,10870.37199741667,0.9271392822265625,0.5240325927734375,-0.351654052734375,1,0.96
2020-05-16 12:38:53.652 -0400,10870.44184141667,1.159072875976562,0.5304107666015625,-0.445037841796875,1,0.96
2020-05-16 12:38:53.722 -0400,10870.51168441667,1.79345703125,0.6302642822265625,-0.5662841796875,1,0.96
2020-05-16 12:38:53.792 -0400,10870.58153141667,1.234588623046875,0.394195556640625,-0.437713623046875,1,0.96
2020-05-16 12:38:53.862 -0400,10870.65137341667,1.3978271484375,0.4324951171875,-0.3109588623046875,1,0.96
2020-05-16 12:38:53.932 -0400,10870.72121841667,1.152999877929688,0.2492523193359375,-0.151214599609375,1,0.96
2020-05-16 12:38:54.001 -0400,10870.79106641667,0.7137603759765625,0.213653564453125,-0.0714111328125,1,0.96
2020-05-16 12:38:54.071 -0400,10870.86091041667,0.50189208984375,0.2918853759765625,-0.00848388671875,1,0.96
2020-05-16 12:38:54.141 -0400,10870.93075541667,0.5590057373046875,0.262359619140625,0.0081634521484375,1,0.96
2020-05-16 12:38:54.211 -0400,10871.00060441667,0.700897216796875,0.2156219482421875,-0.016326904296875,1,0.96
2020-05-16 12:38:54.281 -0400,10871.07045541667,0.935943603515625,0.3240203857421875,-0.127532958984375,1,0.96
2020-05-16 12:38:54.351 -0400,10871.14030641667,1.494003295898438,0.489013671875,-0.1442108154296875,1,0.96
2020-05-16 12:38:54.421 -0400,10871.21015941667,1.517684936523438,0.8101806640625,-0.58807373046875,1,0.96
2020-05-16 12:38:54.490 -0400,10871.28000275,1.128433227539062,0.58831787109375,-0.22637939453125,1,0.96
2020-05-16 12:38:54.560 -0400,10871.34984875,0.9908905029296875,0.153717041015625,-0.3193511962890625,1,0.96
2020-05-16 12:38:54.630 -0400,10871.41969875,0.609832763671875,0.4298858642578125,-0.2802581787109375,1,0.96
2020-05-16 12:38:54.700 -0400,10871.48954875,0.4872283935546875,0.6464080810546875,-0.2064208984375,1,0.96
2020-05-16 12:38:54.770 -0400,10871.55939975,0.7096710205078125,0.5611724853515625,-0.3843841552734375,1,0.96
2020-05-16 12:38:54.839 -0400,10871.62925075,0.956298828125,0.432708740234375,-0.514434814453125,1,0.96
2020-05-16 12:38:54.909 -0400,10871.69910175,1.24322509765625,0.4945526123046875,-0.4022979736328125,1,0.96
2020-05-16 12:38:54.979 -0400,10871.76895175,1.516586303710938,0.60784912109375,-0.622314453125,1,0.96
2020-05-16 12:38:55.049 -0400,10871.83880175,1.717376708984375,-0.2985687255859375,-0.278564453125,1,0.96
2020-05-16 12:38:55.119 -0400,10871.90864975,0.9548187255859375,0.2615814208984375,-0.0961761474609375,1,0.96
2020-05-16 12:38:55.190 -0400,10871.97850175,0.5510406494140625,0.510467529296875,-0.042205810546875,1,0.96
2020-05-16 12:38:55.259 -0400,10872.04834775,0.5280914306640625,0.3416748046875,-0.0059967041015625,1,0.96
2020-05-16 12:38:55.328 -0400,10872.11819675,0.7099151611328125,0.193115234375,0.0610504150390625,1,0.96
2020-05-16 12:38:55.398 -0400,10872.18804575,0.802978515625,0.2637481689453125,0.0281219482421875,1,0.96
2020-05-16 12:38:55.468 -0400,10872.25789725,1.026931762695312,0.4403076171875,-0.15606689453125,1,0.96
2020-05-16 12:38:55.538 -0400,10872.32774925,1.294296264648438,0.543975830078125,-0.4223785400390625,1,0.96
2020-05-16 12:38:55.608 -0400,10872.39760425,1.419204711914062,0.4654083251953125,-0.50634765625,1,0.96
2020-05-16 12:38:55.680 -0400,10872.46745825,0.6804962158203125,0.1209259033203125,-0.3910369873046875,1,0.96
2020-05-16 12:38:55.748 -0400,10872.53731025,0.544586181640625,0.406768798828125,-0.374359130859375,1,0.96
2020-05-16 12:38:55.817 -0400,10872.60715825,0.7919464111328125,0.7309722900390625,-0.492401123046875,1,0.96
2020-05-16 12:38:55.887 -0400,10872.67700725,1.098861694335938,0.9361419677734375,-0.7798614501953125,1,0.96
2020-05-16 12:38:55.957 -0400,10872.74685725,1.65594482421875,0.4140777587890625,-0.5586700439453125,1,0.96
2020-05-16 12:38:56.027 -0400,10872.81670225,1.441741943359375,0.59893798828125,-0.4062347412109375,1,0.96
2020-05-16 12:38:56.097 -0400,10872.88654725,1.560028076171875,0.561859130859375,-0.241607666015625,1,0.96
2020-05-16 12:38:56.167 -0400,10872.95639325,0.9865264892578125,0.32244873046875,-0.15606689453125,1,0.96
2020-05-16 12:38:56.239 -0400,10873.02624125,0.70916748046875,0.3440093994140625,0.006591796875,1,0.96
2020-05-16 12:38:56.306 -0400,10873.09609025,0.7895660400390625,0.3851470947265625,0.030975341796875,1,0.96
2020-05-16 12:38:56.376 -0400,10873.16593825,1.274871826171875,0.2975311279296875,-0.0003814697265625,1,0.96
2020-05-16 12:38:56.446 -0400,10873.23578225,1.007797241210938,0.134124755859375,0.0095062255859375,1,0.96
2020-05-16 12:38:56.516 -0400,10873.305628875,0.7032623291015625,0.4073486328125,-0.1508941650390625,1,0.96
2020-05-16 12:38:56.586 -0400,10873.375471875,1.082382202148438,0.458038330078125,-0.30584716796875,1,0.96
2020-05-16 12:38:56.655 -0400,10873.445313875,1.103607177734375,0.3262939453125,-0.196197509765625,1,0.96
2020-05-16 12:38:56.725 -0400,10873.515159875,0.7619476318359375,0.1635284423828125,-0.28680419921875,1,0.96
2020-05-16 12:38:56.795 -0400,10873.585008875,0.8863525390625,0.550262451171875,-0.3472442626953125,1,0.96
2020-05-16 12:38:56.865 -0400,10873.654852875,1.2586669921875,0.727630615234375,-0.5905609130859375,1,0.96
2020-05-16 12:38:56.935 -0400,10873.724696875,1.2955322265625,0.57037353515625,-0.659820556640625,1,0.96
2020-05-16 12:38:57.005 -0400,10873.794542875,1.35736083984375,0.580902099609375,-0.499053955078125,1,0.96
2020-05-16 12:38:57.075 -0400,10873.864386875,1.018875122070312,0.4512939453125,-0.3692169189453125,1,0.96
2020-05-16 12:38:57.144 -0400,10873.934230875,1.18414306640625,0.5308990478515625,-0.2400054931640625,1,0.96
2020-05-16 12:38:57.214 -0400,10874.004076875,0.9514007568359375,0.1451263427734375,-0.1766204833984375,1,0.96
2020-05-16 12:38:57.284 -0400,10874.073918875,0.7509002685546875,0.46142578125,-0.066864013671875,1,0.96
2020-05-16 12:38:57.354 -0400,10874.143762875,0.817718505859375,0.42181396484375,0.01751708984375,1,0.96
2020-05-16 12:38:57.424 -0400,10874.213604875,1.248687744140625,0.2854461669921875,0.0408935546875,1,0.96
2020-05-16 12:38:57.494 -0400,10874.2834485,1.19775390625,0.2577362060546875,0.0339202880859375,1,0.96
2020-05-16 12:38:57.563 -0400,10874.3532935,0.78045654296875,0.4236602783203125,-0.0539398193359375,1,0.96
2020-05-16 12:38:57.634 -0400,10874.4231375,1.025650024414062,0.475128173828125,-0.38763427734375,1,0.96
2020-05-16 12:38:57.703 -0400,10874.4929815,0.8975372314453125,0.19097900390625,-0.2928619384765625,1,0.96
2020-05-16 12:38:57.773 -0400,10874.5628245,0.5657806396484375,0.0427398681640625,-0.383331298828125,1,0.96
2020-05-16 12:38:57.843 -0400,10874.6326655,0.6758575439453125,0.6961669921875,-0.4528656005859375,1,0.96
2020-05-16 12:38:57.913 -0400,10874.7025095,0.937255859375,0.8597564697265625,-0.469970703125,1,0.96
2020-05-16 12:38:57.983 -0400,10874.7723515,1.161651611328125,0.3729400634765625,-0.4905548095703125,1,0.96
2020-05-16 12:38:58.052 -0400,10874.8421965,1.6658935546875,0.6703643798828125,-0.5191497802734375,1,0.96
2020-05-16 12:38:58.122 -0400,10874.9120405,1.042312622070312,0.4515380859375,-0.4210205078125,1,0.96
2020-05-16 12:38:58.192 -0400,10874.9818865,1.122604370117188,0.4709625244140625,-0.1705474853515625,1,0.96
2020-05-16 12:38:58.262 -0400,10875.0517355,0.916900634765625,0.290283203125,-0.1668853759765625,1,0.96
2020-05-16 12:38:58.332 -0400,10875.1215815,0.70367431640625,0.3413543701171875,-0.092681884765625,1,0.96
2020-05-16 12:38:58.402 -0400,10875.1914265,0.7679443359375,0.3912506103515625,-0.0229644775390625,1,0.96
2020-05-16 12:38:58.471 -0400,10875.2612665,1.142135620117188,0.3041229248046875,-0.0555419921875,1,0.96
2020-05-16 12:38:58.541 -0400,10875.3311095,1.164291381835938,0.2396087646484375,-0.0378570556640625,1,0.96
2020-05-16 12:38:58.611 -0400,10875.4009495,0.916229248046875,0.32818603515625,-0.1150360107421875,1,0.96
2020-05-16 12:38:58.681 -0400,10875.4707925,1.01153564453125,0.46343994140625,-0.45501708984375,1,0.96
2020-05-16 12:38:58.751 -0400,10875.5406355,1.041229248046875,0.2733306884765625,-0.228912353515625,1,0.96
2020-05-16 12:38:58.821 -0400,10875.6104805,0.6960296630859375,0.12030029296875,-0.333221435546875,1,0.96
2020-05-16 12:38:58.890 -0400,10875.6803225,0.6414794921875,0.568328857421875,-0.16192626953125,1,0.96
2020-05-16 12:38:58.960 -0400,10875.7501665,0.93536376953125,0.559051513671875,-0.300262451171875,1,0.96
2020-05-16 12:38:59.030 -0400,10875.8200095,1.02093505859375,0.5736541748046875,-0.3992156982421875,1,0.96
2020-05-16 12:38:59.100 -0400,10875.8898525,1.63531494140625,0.785491943359375,-0.44781494140625,1,0.96
2020-05-16 12:38:59.170 -0400,10875.9596975,1.106735229492188,0.3578643798828125,-0.366302490234375,1,0.96
2020-05-16 12:38:59.240 -0400,10876.0295415,0.97918701171875,0.453338623046875,-0.2412109375,1,0.96
2020-05-16 12:38:59.310 -0400,10876.0993845,0.9999237060546875,0.3952484130859375,-0.1896209716796875,1,0.96
2020-05-16 12:38:59.380 -0400,10876.1692315,0.7467803955078125,0.2579193115234375,-0.0985107421875,1,0.96
2020-05-16 12:38:59.449 -0400,10876.2390785,0.6267547607421875,0.312042236328125,-0.0272369384765625,1,0.96
2020-05-16 12:38:59.519 -0400,10876.30892525,0.846466064453125,0.2853851318359375,-0.00146484375,1,0.96
2020-05-16 12:38:59.589 -0400,10876.37876725,1.185836791992188,0.296417236328125,-0.072265625,1,0.96
2020-05-16 12:38:59.659 -0400,10876.44860825,1.395217895507812,0.397613525390625,-0.0982666015625,1,0.96
2020-05-16 12:38:59.729 -0400,10876.51844825,1.009963989257812,0.5498046875,-0.41033935546875,1,0.96
2020-05-16 12:38:59.798 -0400,10876.58828825,1.109176635742188,0.29241943359375,-0.22772216796875,1,0.96
2020-05-16 12:38:59.868 -0400,10876.65812825,0.8019561767578125,0.035675048828125,-0.2624664306640625,1,0.96
2020-05-16 12:38:59.938 -0400,10876.72797325,0.5504608154296875,0.3349151611328125,-0.179901123046875,1,0.96
2020-05-16 12:39:00.009 -0400,10876.79781725,0.5712738037109375,0.5985107421875,-0.1513214111328125,1,0.96
2020-05-16 12:39:00.078 -0400,10876.86766125,0.713104248046875,0.5791778564453125,-0.2739105224609375,1,0.96
2020-05-16 12:39:00.148 -0400,10876.93749925,0.9716796875,0.741973876953125,-0.4302825927734375,1,0.96
2020-05-16 12:39:00.218 -0400,10877.00733825,1.4542236328125,0.6860198974609375,-0.4127655029296875,1,0.96
2020-05-16 12:39:00.288 -0400,10877.07718325,1.33428955078125,0.2808990478515625,-0.3994598388671875,1,0.96
2020-05-16 12:39:00.357 -0400,10877.14703225,1.51409912109375,0.1819305419921875,-0.1901702880859375,1,0.96
2020-05-16 12:39:00.428 -0400,10877.21688325,1.148101806640625,0.272186279296875,-0.278594970703125,1,0.96
2020-05-16 12:39:00.498 -0400,10877.28673341667,0.813262939453125,0.426727294921875,-0.1949462890625,1,0.96
2020-05-16 12:39:00.567 -0400,10877.35658141667,0.66204833984375,0.270355224609375,-0.0941619873046875,1,0.96
2020-05-16 12:39:00.637 -0400,10877.42643141667,0.3850555419921875,0.08984375,-0.05682373046875,1,0.96
2020-05-16 12:39:00.707 -0400,10877.49627341667,0.323638916015625,0.160736083984375,-0.078277587890625,1,0.96
2020-05-16 12:39:00.776 -0400,10877.56612041667,0.5294189453125,0.29156494140625,-0.135345458984375,1,0.96
2020-05-16 12:39:00.846 -0400,10877.63596341667,1.650238037109375,0.4471435546875,-0.109832763671875,1,0.96
2020-05-16 12:39:00.916 -0400,10877.70580841667,2.184494018554688,0.7904052734375,-0.52911376953125,1,0.96
2020-05-16 12:39:00.986 -0400,10877.77564841667,1.193893432617188,0.4275970458984375,-0.29302978515625,1,0.96
2020-05-16 12:39:01.056 -0400,10877.84548841667,0.827117919921875,0.2999267578125,-0.157745361328125,1,0.96
2020-05-16 12:39:01.126 -0400,10877.91532841667,0.543182373046875,0.65264892578125,-0.1291046142578125,1,0.96
2020-05-16 12:39:01.196 -0400,10877.98517041667,0.2729034423828125,0.688751220703125,-0.158660888671875,1,0.96
2020-05-16 12:39:01.265 -0400,10878.05501641667,0.887420654296875,1.1829833984375,-0.490325927734375,1,0.96
2020-05-16 12:39:01.335 -0400,10878.12485941667,1.916656494140625,0.733184814453125,-0.438720703125,1,0.96
2020-05-16 12:39:01.405 -0400,10878.19470141667,1.639785766601562,0.2734222412109375,-0.3528289794921875,1,0.96
2020-05-16 12:39:01.475 -0400,10878.26454379167,2.224838256835938,0.6957855224609375,-0.362945556640625,1,0.96
2020-05-16 12:39:01.545 -0400,10878.33438679167,1.1907958984375,0.3285369873046875,-0.3092041015625,1,0.96
2020-05-16 12:39:01.614 -0400,10878.40423079167,0.818817138671875,0.241912841796875,-0.145111083984375,1,0.96
2020-05-16 12:39:01.684 -0400,10878.47407179167,0.6424407958984375,0.0956573486328125,-0.07550048828125,1,0.96
2020-05-16 12:39:01.754 -0400,10878.54391379167,0.3174285888671875,-0.0095977783203125,-0.0267181396484375,1,0.96
2020-05-16 12:39:01.824 -0400,10878.61375779167,0.1648406982421875,0.08477783203125,-0.0361480712890625,1,0.96
2020-05-16 12:39:01.894 -0400,10878.68359879167,0.3302459716796875,0.28668212890625,-0.120361328125,1,0.96
2020-05-16 12:39:01.964 -0400,10878.75343779167,1.762039184570312,1.13470458984375,-0.1665802001953125,1,0.96
2020-05-16 12:39:02.034 -0400,10878.82327979167,2.3031005859375,0.701873779296875,-0.5583343505859375,1,0.96
2020-05-16 12:39:02.103 -0400,10878.89312279167,0.9979400634765625,0.7548065185546875,-0.4413299560546875,1,0.96
2020-05-16 12:39:02.173 -0400,10878.96296579167,0.689361572265625,0.4734649658203125,-0.0712432861328125,1,0.96
2020-05-16 12:39:02.243 -0400,10879.03280979167,0.2977142333984375,0.6727294921875,-0.609588623046875,1,0.96
2020-05-16 12:39:02.313 -0400,10879.10265079167,0.5721893310546875,0.9884796142578125,-0.7285308837890625,1,0.96
2020-05-16 12:39:02.383 -0400,10879.17249579167,1.115280151367188,0.5934295654296875,-0.4113311767578125,1,0.96
2020-05-16 12:39:02.453 -0400,10879.24233979167,2.365142822265625,0.2936553955078125,-0.52020263671875,1,0.96
2020-05-16 12:39:02.522 -0400,10879.31218325,2.163864135742188,0.7412109375,-0.490325927734375,1,0.96
2020-05-16 12:39:02.592 -0400,10879.38202425,1.440673828125,0.5564422607421875,-0.1316986083984375,1,0.96
2020-05-16 12:39:02.662 -0400,10879.45186625,0.9270782470703125,0.33624267578125,-0.0376129150390625,1,0.96
2020-05-16 12:39:02.732 -0400,10879.52170325,0.722869873046875,0.2244873046875,0.0100250244140625,1,0.96
2020-05-16 12:39:02.802 -0400,10879.59154325,0.446502685546875,0.0225677490234375,0.0702362060546875,1,0.96
2020-05-16 12:39:02.872 -0400,10879.66138125,0.345306396484375,0.0075225830078125,0.0959320068359375,1,0.96
2020-05-16 12:39:02.941 -0400,10879.73122125,0.2396087646484375,0.1041259765625,0.0618743896484375,1,0.96
2020-05-16 12:39:03.011 -0400,10879.80106325,1.623504638671875,1.57293701171875,-0.0167083740234375,1,0.96
2020-05-16 12:39:03.081 -0400,10879.87090325,1.662841796875,0.58837890625,-0.70263671875,1,0.96
2020-05-16 12:39:03.151 -0400,10879.94074725,1.804901123046875,0.7476348876953125,-0.9568023681640625,1,0.96
2020-05-16 12:39:03.221 -0400,10880.01058925,1.050445556640625,0.8864898681640625,-0.442596435546875,1,0.96
2020-05-16 12:39:03.296 -0400,10880.08042925,0.361541748046875,1.012405395507812,-0.3544921875,1,0.96
2020-05-16 12:39:03.361 -0400,10880.15026625,0.4376068115234375,0.920989990234375,-0.27838134765625,1,0.96
2020-05-16 12:39:03.430 -0400,10880.22010125,1.211700439453125,1.1636962890625,-0.1988525390625,1,0.96
2020-05-16 12:39:03.500 -0400,10880.28993979167,1.737091064453125,0.05133056640625,-0.13775634765625,1,0.96
2020-05-16 12:39:03.570 -0400,10880.35978079167,1.898910522460938,0.7591552734375,-0.17974853515625,1,0.96
2020-05-16 12:39:03.640 -0400,10880.42962379167,1.500991821289062,0.6988525390625,-0.3186492919921875,1,0.96
2020-05-16 12:39:03.710 -0400,10880.49946479167,1.082672119140625,0.2676849365234375,-0.1232757568359375,1,0.96
2020-05-16 12:39:03.779 -0400,10880.56930479167,0.777679443359375,0.016082763671875,-0.0457611083984375,1,0.96
2020-05-16 12:39:03.849 -0400,10880.63914379167,0.5471954345703125,-0.05224609375,-0.06109619140625,1,0.96
2020-05-16 12:39:03.919 -0400,10880.70898079167,0.3409576416015625,-0.0265045166015625,0.013214111328125,1,0.96
2020-05-16 12:39:03.989 -0400,10880.77881579167,0.340484619140625,0.260040283203125,0.230194091796875,1,0.96
2020-05-16 12:39:04.059 -0400,10880.84864979167,0.9587249755859375,1.469711303710938,-0.3288421630859375,1,0.96
2020-05-16 12:39:04.129 -0400,10880.91848379167,1.37298583984375,1.282638549804688,-0.2127227783203125,1,0.96
2020-05-16 12:39:04.199 -0400,10880.98832079167,1.073196411132812,1.140625,-0.3227996826171875,1,0.96
2020-05-16 12:39:04.269 -0400,10881.05815679167,0.64263916015625,0.1090850830078125,-0.347808837890625,1,0.96
2020-05-16 12:39:04.338 -0400,10881.12799379167,0.4092864990234375,0.5841827392578125,-0.351043701171875,1,0.96
2020-05-16 12:39:04.408 -0400,10881.19782679167,0.567413330078125,1.166671752929688,-0.3743438720703125,1,0.96
2020-05-16 12:39:04.478 -0400,10881.26766125,2.6279296875,1.87384033203125,-0.948089599609375,1,0.96
2020-05-16 12:39:04.548 -0400,10881.33749725,2.414764404296875,-0.15289306640625,-0.210235595703125,1,0.96
2020-05-16 12:39:04.618 -0400,10881.40733525,1.662078857421875,0.772735595703125,-0.093780517578125,1,0.96
2020-05-16 12:39:04.687 -0400,10881.47716825,1.358489990234375,0.7869720458984375,-0.1697845458984375,1,0.96
2020-05-16 12:39:04.757 -0400,10881.54700125,1.113815307617188,0.6750640869140625,0.1439056396484375,1,0.96
2020-05-16 12:39:04.827 -0400,10881.61683725,0.7195587158203125,0.498504638671875,0.1560211181640625,1,0.96
2020-05-16 12:39:04.897 -0400,10881.68667125,0.39990234375,0.4307708740234375,0.0435791015625,1,0.96
2020-05-16 12:39:04.967 -0400,10881.75650525,-0.785064697265625,0.3438873291015625,-0.1555938720703125,1,0.96
2020-05-16 12:39:05.037 -0400,10881.82633925,-1.218963623046875,0.74969482421875,-0.6080322265625,1,0.96
2020-05-16 12:39:05.107 -0400,10881.89617625,-0.71563720703125,0.3780975341796875,-0.37164306640625,1,0.96
2020-05-16 12:39:05.176 -0400,10881.96601325,-0.718780517578125,0.195709228515625,-0.3244476318359375,1,0.96
2020-05-16 12:39:05.246 -0400,10882.03585225,-0.5088043212890625,0.049346923828125,-0.248809814453125,1,0.96
2020-05-16 12:39:05.316 -0400,10882.10569125,-0.3475341796875,-0.1648712158203125,-0.3205718994140625,1,0.96
2020-05-16 12:39:05.386 -0400,10882.17553025,-0.7798614501953125,0.1544952392578125,-0.322021484375,1,0.96
2020-05-16 12:39:05.456 -0400,10882.24537025,-1.327224731445312,0.02960205078125,-0.4859619140625,1,0.96
2020-05-16 12:39:05.525 -0400,10882.315212125,-1.690032958984375,0.277313232421875,-0.371551513671875,1,0.96
2020-05-16 12:39:05.595 -0400,10882.385056125,-1.258331298828125,0.2789459228515625,-0.5035552978515625,1,0.96
2020-05-16 12:39:05.665 -0400,10882.454897125,-0.6755523681640625,0.28192138671875,-0.37091064453125,1,0.96
2020-05-16 12:39:05.735 -0400,10882.524736125,-0.375244140625,-0.0269622802734375,-0.019287109375,1,0.96
2020-05-16 12:39:05.805 -0400,10882.594581125,-0.377838134765625,-0.0305328369140625,-0.01544189453125,1,0.96
2020-05-16 12:39:05.875 -0400,10882.664424125,-0.8291778564453125,0.084136962890625,-0.1514434814453125,1,0.96
2020-05-16 12:39:05.945 -0400,10882.734265125,-1.537979125976562,-0.037384033203125,-0.5413360595703125,1,0.96
2020-05-16 12:39:06.014 -0400,10882.804103125,-1.6153564453125,0.99969482421875,-0.7933197021484375,1,0.96
2020-05-16 12:39:06.084 -0400,10882.873942125,-1.117156982421875,0.504150390625,-0.6203155517578125,1,0.96
2020-05-16 12:39:06.154 -0400,10882.943782125,-0.709503173828125,0.018890380859375,-0.319000244140625,1,0.96
2020-05-16 12:39:06.224 -0400,10883.013624125,-0.524383544921875,0.0213775634765625,0.0975341796875,1,0.96
2020-05-16 12:39:06.294 -0400,10883.083467125,-0.1136932373046875,0.1228485107421875,-0.348419189453125,1,0.96
2020-05-16 12:39:06.364 -0400,10883.153311125,-0.4956207275390625,0.3201446533203125,-0.2140045166015625,1,0.96
2020-05-16 12:39:06.433 -0400,10883.223153125,-1.52734375,0.7183837890625,-0.7423095703125,1,0.96
2020-05-16 12:39:06.503 -0400,10883.2929985,-1.936386108398438,0.1697540283203125,-0.022613525390625,1,0.96
2020-05-16 12:39:06.573 -0400,10883.3628465,-1.111465454101562,0.495452880859375,-0.4141387939453125,1,0.96
2020-05-16 12:39:06.643 -0400,10883.4326945,-0.6027679443359375,0.1817626953125,-0.213958740234375,1,0.96
2020-05-16 12:39:06.713 -0400,10883.5025425,-0.3681793212890625,0.1195526123046875,-0.0219268798828125,1,0.96
2020-05-16 12:39:06.783 -0400,10883.5723885,-0.6548919677734375,0.055694580078125,0.1209259033203125,1,0.96
2020-05-16 12:39:06.853 -0400,10883.6422315,-0.77764892578125,-0.0196990966796875,-0.35418701171875,1,0.96
2020-05-16 12:39:06.922 -0400,10883.7120745,-1.332809448242188,0.1778411865234375,-0.3198089599609375,1,0.96
2020-05-16 12:39:06.992 -0400,10883.7819185,-1.971298217773438,0.2807769775390625,-0.3508758544921875,1,0.96
2020-05-16 12:39:07.062 -0400,10883.8517625,-1.305572509765625,0.601226806640625,-0.747283935546875,1,0.96
2020-05-16 12:39:07.132 -0400,10883.9216055,-0.5794219970703125,0.2917022705078125,-0.354705810546875,1,0.96
2020-05-16 12:39:07.202 -0400,10883.9914495,-0.214691162109375,-0.0792999267578125,-0.098785400390625,1,0.96
2020-05-16 12:39:07.272 -0400,10884.0612895,-0.2189788818359375,0.1244659423828125,-0.284820556640625,1,0.96
2020-05-16 12:39:07.341 -0400,10884.1311315,-0.54132080078125,0.0224761962890625,-0.4597625732421875,1,0.96
2020-05-16 12:39:07.411 -0400,10884.2009845,-1.118850708007812,0.190399169921875,-0.4321441650390625,1,0.96
2020-05-16 12:39:07.481 -0400,10884.27083629167,-1.369415283203125,-0.5690765380859375,-0.345062255859375,1,0.96
2020-05-16 12:39:07.551 -0400,10884.34068829167,-0.6437835693359375,-0.264068603515625,-0.03192138671875,1,0.96
2020-05-16 12:39:07.621 -0400,10884.41054029167,-0.292724609375,0.57122802734375,0.2644500732421875,1,0.96
2020-05-16 12:39:07.691 -0400,10884.48039329167,-0.052276611328125,1.020645141601562,-0.1579132080078125,1,0.96
2020-05-16 12:39:07.760 -0400,10884.55024529167,0.253448486328125,0.9960479736328125,0.0324249267578125,1,0.96
2020-05-16 12:39:07.830 -0400,10884.62009129167,0.498992919921875,0.62420654296875,-0.091033935546875,1,0.96
2020-05-16 12:39:07.900 -0400,10884.68993429167,0.740936279296875,0.720703125,-0.237823486328125,1,0.96
2020-05-16 12:39:07.970 -0400,10884.75977929167,1.06298828125,0.619415283203125,-0.0988922119140625,1,0.96
2020-05-16 12:39:08.040 -0400,10884.82962729167,2.49554443359375,1.01806640625,-0.3163909912109375,1,0.96
2020-05-16 12:39:08.110 -0400,10884.89947029167,0.977935791015625,0.67779541015625,-0.6579437255859375,1,0.96
2020-05-16 12:39:08.180 -0400,10884.96931629167,1.103775024414062,0.752685546875,-0.252471923828125,1,0.96
2020-05-16 12:39:08.249 -0400,10885.03916329167,0.5859527587890625,0.3864288330078125,-0.281829833984375,1,0.96
2020-05-16 12:39:08.319 -0400,10885.10900929167,0.162200927734375,0.0891876220703125,-0.38726806640625,1,0.96
2020-05-16 12:39:08.389 -0400,10885.17885829167,0.2533721923828125,0.2850799560546875,-0.3512420654296875,1,0.96
2020-05-16 12:39:08.459 -0400,10885.24870629167,0.8760528564453125,0.481201171875,-0.3927001953125,1,0.96
2020-05-16 12:39:08.529 -0400,10885.31855779167,1.359634399414062,0.9345245361328125,-0.2150115966796875,1,0.96
2020-05-16 12:39:08.599 -0400,10885.38840979167,1.711654663085938,0.2743682861328125,-0.383941650390625,1,0.96
2020-05-16 12:39:08.669 -0400,10885.45826179167,1.479293823242188,0.5659637451171875,-0.3855133056640625,1,0.96
2020-05-16 12:39:08.739 -0400,10885.52811379167,1.150009155273438,0.5710296630859375,-0.0295257568359375,1,0.96
2020-05-16 12:39:08.808 -0400,10885.59796279167,0.564178466796875,0.29498291015625,-0.09423828125,1,0.96
2020-05-16 12:39:08.878 -0400,10885.66781279167,0.6278076171875,0.4039459228515625,-0.0782623291015625,1,0.96
2020-05-16 12:39:08.948 -0400,10885.73766079167,0.825164794921875,0.27569580078125,0.0823822021484375,1,0.96
2020-05-16 12:39:09.018 -0400,10885.80751079167,0.577880859375,0.230621337890625,-0.0241241455078125,1,0.96
2020-05-16 12:39:09.088 -0400,10885.87735879167,0.41973876953125,0.322662353515625,-0.2984466552734375,1,0.96
2020-05-16 12:39:09.157 -0400,10885.94720379167,0.9442596435546875,0.2827606201171875,-0.1580047607421875,1,0.96
2020-05-16 12:39:09.234 -0400,10886.01705079167,2.209808349609375,1.03497314453125,-0.9459991455078125,1,0.96
2020-05-16 12:39:09.297 -0400,10886.08689779167,0.648284912109375,0.4514312744140625,0.015472412109375,1,0.96
2020-05-16 12:39:09.367 -0400,10886.15674679167,0.66632080078125,0.8040618896484375,-0.288299560546875,1,0.96
2020-05-16 12:39:09.437 -0400,10886.22659879167,0.6638031005859375,0.67041015625,-0.6571502685546875,1,0.96
2020-05-16 12:39:09.507 -0400,10886.296442,0.5298309326171875,0.800506591796875,-0.5556640625,1,0.96
2020-05-16 12:39:09.577 -0400,10886.366285,1.092193603515625,0.75634765625,-0.27813720703125,1,0.96
2020-05-16 12:39:09.646 -0400,10886.436126,2.227859497070312,0.698974609375,-0.4030609130859375,1,0.96
2020-05-16 12:39:09.716 -0400,10886.505967,1.371795654296875,0.63427734375,-0.447052001953125,1,0.96
2020-05-16 12:39:09.786 -0400,10886.575809,1.2666015625,0.8006591796875,-0.20391845703125,1,0.96
2020-05-16 12:39:09.856 -0400,10886.645647,0.904083251953125,0.2137298583984375,0.000732421875,1,0.96
2020-05-16 12:39:09.926 -0400,10886.715487,0.805389404296875,0.1217041015625,-0.0498046875,1,0.96
2020-05-16 12:39:09.996 -0400,10886.785327,0.701263427734375,0.1828155517578125,-0.0042266845703125,1,0.96
2020-05-16 12:39:10.065 -0400,10886.855171,0.56396484375,0.178497314453125,0.0972900390625,1,0.96
2020-05-16 12:39:10.135 -0400,10886.925014,0.4204864501953125,0.2792816162109375,0.0135345458984375,1,0.96
2020-05-16 12:39:10.205 -0400,10886.994854,0.9391632080078125,0.63134765625,-0.1884307861328125,1,0.96
2020-05-16 12:39:10.275 -0400,10887.064698,2.460891723632812,1.360015869140625,-0.98504638671875,1,0.96
2020-05-16 12:39:10.345 -0400,10887.134541,0.753753662109375,-0.230621337890625,-0.05120849609375,1,0.96
2020-05-16 12:39:10.415 -0400,10887.204385,0.64227294921875,0.959869384765625,-0.339080810546875,1,0.96
2020-05-16 12:39:10.485 -0400,10887.274229875,0.3892974853515625,0.803863525390625,-0.1811676025390625,1,0.96
2020-05-16 12:39:10.554 -0400,10887.344073875,0.10296630859375,0.2219390869140625,-0.102874755859375,1,0.96
2020-05-16 12:39:10.626 -0400,10887.413917875,0.7109832763671875,0.819610595703125,-0.3538665771484375,1,0.96
2020-05-16 12:39:10.694 -0400,10887.483761875,1.650314331054688,1.967941284179688,0.0064849853515625,1,0.96
2020-05-16 12:39:10.764 -0400,10887.553603875,1.503860473632812,-0.7183074951171875,-0.0105743408203125,1,0.96
2020-05-16 12:39:10.834 -0400,10887.623447875,1.319732666015625,1.008392333984375,-0.29815673828125,1,0.96
2020-05-16 12:39:10.904 -0400,10887.693292875,0.96038818359375,0.5904388427734375,-0.5028228759765625,1,0.96
2020-05-16 12:39:10.973 -0400,10887.763137875,0.8668212890625,0.2453765869140625,-0.08819580078125,1,0.96
2020-05-16 12:39:11.043 -0400,10887.832980875,0.7942657470703125,0.021636962890625,-0.0537109375,1,0.96
2020-05-16 12:39:11.113 -0400,10887.902819875,0.60784912109375,0.1240997314453125,-0.0038909912109375,1,0.96
2020-05-16 12:39:11.183 -0400,10887.972657875,0.6322784423828125,0.257110595703125,-0.049957275390625,1,0.96
2020-05-16 12:39:11.253 -0400,10888.042501875,1.056747436523438,1.146575927734375,-0.2474212646484375,1,0.96
2020-05-16 12:39:11.323 -0400,10888.112343875,1.760940551757812,0.569244384765625,-0.2537841796875,1,0.96
2020-05-16 12:39:11.392 -0400,10888.182187875,1.142318725585938,0.370452880859375,-0.3982086181640625,1,0.96
2020-05-16 12:39:11.462 -0400,10888.252033875,0.709136962890625,0.4637298583984375,-0.303192138671875,1,0.96
2020-05-16 12:39:11.532 -0400,10888.32188154167,0.525848388671875,0.8097076416015625,-0.324310302734375,1,0.96
2020-05-16 12:39:11.602 -0400,10888.39173154167,0.68896484375,0.81854248046875,-0.3654632568359375,1,0.96
2020-05-16 12:39:11.672 -0400,10888.46157854167,0.9950714111328125,0.90850830078125,-0.5210723876953125,1,0.96
2020-05-16 12:39:11.742 -0400,10888.53142554167,1.77880859375,0.614715576171875,-0.49444580078125,1,0.96
2020-05-16 12:39:11.812 -0400,10888.60127254167,1.562240600585938,0.272308349609375,-0.3681640625,1,0.96
2020-05-16 12:39:11.881 -0400,10888.67111854167,1.578323364257812,0.58123779296875,-0.33880615234375,1,0.96
2020-05-16 12:39:11.951 -0400,10888.74096454167,1.0205078125,0.281402587890625,-0.2817535400390625,1,0.96
2020-05-16 12:39:12.021 -0400,10888.81081154167,0.652801513671875,0.1656036376953125,-0.1605377197265625,1,0.96
2020-05-16 12:39:12.091 -0400,10888.88065754167,0.4384002685546875,0.05401611328125,-0.1528167724609375,1,0.96
2020-05-16 12:39:12.161 -0400,10888.95050854167,0.335418701171875,0.0521087646484375,-0.09722900390625,1,0.96
2020-05-16 12:39:12.231 -0400,10889.02035254167,0.3982086181640625,0.18536376953125,-0.06414794921875,1,0.96
2020-05-16 12:39:12.301 -0400,10889.09019654167,1.246292114257812,1.027999877929688,-0.3362579345703125,1,0.96
2020-05-16 12:39:12.370 -0400,10889.16004354167,2.037353515625,0.7379913330078125,-0.15789794921875,1,0.96
2020-05-16 12:39:12.440 -0400,10889.22989354167,1.357070922851562,0.8422393798828125,-0.440155029296875,1,0.96
2020-05-16 12:39:12.510 -0400,10889.29974275,0.769866943359375,0.787841796875,-0.12213134765625,1,0.96
2020-05-16 12:39:12.580 -0400,10889.36959275,0.5651702880859375,0.5883636474609375,-0.1344451904296875,1,0.96
2020-05-16 12:39:12.650 -0400,10889.43944175,0.5313568115234375,0.738922119140625,-0.2747802734375,1,0.96
2020-05-16 12:39:12.720 -0400,10889.50928875,1.026870727539062,1.153121948242188,-0.2320098876953125,1,0.96
2020-05-16 12:39:12.790 -0400,10889.57913075,1.468887329101562,0.864105224609375,-0.561065673828125,1,0.96
2020-05-16 12:39:12.859 -0400,10889.64897075,1.572265625,0.66497802734375,-0.3011627197265625,1,0.96
2020-05-16 12:39:12.929 -0400,10889.71881075,1.810928344726562,0.4221038818359375,-0.299530029296875,1,0.96
2020-05-16 12:39:12.999 -0400,10889.78865275,1.187850952148438,0.2361602783203125,-0.270111083984375,1,0.96
2020-05-16 12:39:13.069 -0400,10889.85849375,0.8263092041015625,0.001983642578125,-0.1918792724609375,1,0.96
2020-05-16 12:39:13.139 -0400,10889.92833375,0.447601318359375,-0.201873779296875,-0.122711181640625,1,0.96
2020-05-16 12:39:13.208 -0400,10889.99817575,0.34893798828125,0.0412445068359375,-0.085174560546875,1,0.96
2020-05-16 12:39:13.278 -0400,10890.06801775,0.386810302734375,0.202117919921875,-0.043853759765625,1,0.96
2020-05-16 12:39:13.348 -0400,10890.13785875,1.211898803710938,0.623687744140625,-0.3163909912109375,1,0.96
2020-05-16 12:39:13.418 -0400,10890.20769975,2.489181518554688,0.6735687255859375,-0.093231201171875,1,0.96
2020-05-16 12:39:13.488 -0400,10890.27753891667,1.535064697265625,0.87042236328125,-0.70928955078125,1,0.96
2020-05-16 12:39:13.558 -0400,10890.34738091667,0.8647918701171875,0.793060302734375,-0.095550537109375,1,0.96
2020-05-16 12:39:13.628 -0400,10890.41722591667,0.579681396484375,0.508941650390625,-0.2739715576171875,1,0.96
2020-05-16 12:39:13.698 -0400,10890.48706791667,0.3739013671875,0.632904052734375,-0.40728759765625,1,0.96
2020-05-16 12:39:13.767 -0400,10890.55690591667,0.5900115966796875,0.90478515625,-0.2440032958984375,1,0.96
2020-05-16 12:39:13.837 -0400,10890.62674791667,0.944915771484375,0.827789306640625,-0.3475341796875,1,0.96
2020-05-16 12:39:13.907 -0400,10890.69659691667,2.245208740234375,0.448333740234375,-0.056060791015625,1,0.96
2020-05-16 12:39:13.977 -0400,10890.76644091667,1.988555908203125,0.4415435791015625,-0.3396453857421875,1,0.96
2020-05-16 12:39:14.047 -0400,10890.83628491667,1.398056030273438,0.5786590576171875,-0.1854705810546875,1,0.96
2020-05-16 12:39:14.116 -0400,10890.90612891667,0.7458343505859375,0.28948974609375,0.0208587646484375,1,0.96
2020-05-16 12:39:14.186 -0400,10890.97597291667,0.558807373046875,0.4373931884765625,0.012542724609375,1,0.96
2020-05-16 12:39:14.256 -0400,10891.04581591667,0.5220184326171875,0.8304901123046875,-0.1029052734375,1,0.96
2020-05-16 12:39:14.326 -0400,10891.11565891667,-0.1946868896484375,1.424453735351562,-0.3494873046875,1,0.96
2020-05-16 12:39:14.396 -0400,10891.18550591667,-1.12060546875,1.06768798828125,-0.47589111328125,1,0.96
2020-05-16 12:39:14.466 -0400,10891.25535291667,-0.6991119384765625,0.7565155029296875,-0.547698974609375,1,0.96
2020-05-16 12:39:14.536 -0400,10891.32519491667,-0.467529296875,0.5052490234375,-0.32073974609375,1,0.96
2020-05-16 12:39:14.605 -0400,10891.39503891667,-0.3157501220703125,0.1415863037109375,-0.19647216796875,1,0.96
2020-05-16 12:39:14.675 -0400,10891.46488191667,-0.544281005859375,0.22442626953125,-0.3244781494140625,1,0.96
2020-05-16 12:39:14.745 -0400,10891.53472491667,-0.954864501953125,0.515838623046875,-0.5299072265625,1,0.96
2020-05-16 12:39:14.815 -0400,10891.60457091667,-1.115310668945312,0.41949462890625,-0.558990478515625,1,0.96
2020-05-16 12:39:14.885 -0400,10891.67441891667,-1.455581665039062,0.4557647705078125,-0.10009765625,1,0.96
2020-05-16 12:39:14.955 -0400,10891.74426191667,-1.12042236328125,0.3921356201171875,-0.068939208984375,1,0.96
2020-05-16 12:39:15.025 -0400,10891.81410991667,-0.902252197265625,0.4718170166015625,0.0080108642578125,1,0.96
2020-05-16 12:39:15.094 -0400,10891.88395791667,-0.6407012939453125,0.3608856201171875,-0.0394439697265625,1,0.96
2020-05-16 12:39:15.164 -0400,10891.95380491667,-0.4344635009765625,0.4200439453125,-0.1681060791015625,1,0.96
2020-05-16 12:39:15.234 -0400,10892.02365491667,-0.45184326171875,0.2286224365234375,-0.244842529296875,1,0.96
2020-05-16 12:39:15.304 -0400,10892.09350891667,-0.4946136474609375,-0.2275543212890625,-0.3891448974609375,1,0.96
2020-05-16 12:39:15.374 -0400,10892.16335891667,-0.6248321533203125,-0.3155670166015625,-0.5116119384765625,1,0.96
2020-05-16 12:39:15.443 -0400,10892.23320991667,-1.15771484375,-0.667266845703125,-1.101715087890625,1,0.96
2020-05-16 12:39:15.513 -0400,10892.303055125,-0.6794891357421875,-0.3709259033203125,-1.156234741210938,1,0.96
2020-05-16 12:39:15.583 -0400,10892.372906125,-0.3748321533203125,0.0661468505859375,-0.361328125,1,0.96
2020-05-16 12:39:15.653 -0400,10892.442757125,-0.1707305908203125,-0.222747802734375,-0.1256866455078125,1,0.96
2020-05-16 12:39:15.723 -0400,10892.512606125,-0.3338165283203125,-0.76495361328125,-0.127471923828125,1,0.96
2020-05-16 12:39:15.793 -0400,10892.582454125,-0.9242706298828125,-0.888824462890625,-0.6884307861328125,1,0.96
2020-05-16 12:39:15.863 -0400,10892.652303125,-1.069107055664062,-0.6753997802734375,-0.3411712646484375,1,0.96
2020-05-16 12:39:15.932 -0400,10892.722148125,-0.73492431640625,-0.1050567626953125,-0.7441253662109375,1,0.96
2020-05-16 12:39:16.002 -0400,10892.791995125,-1.230850219726562,0.5005035400390625,-0.547515869140625,1,0.96
2020-05-16 12:39:16.072 -0400,10892.861843125,-1.161102294921875,0.637908935546875,-0.503204345703125,1,0.96
2020-05-16 12:39:16.142 -0400,10892.931693125,-0.70062255859375,0.173980712890625,-0.3475799560546875,1,0.96
2020-05-16 12:39:16.212 -0400,10893.001546125,-0.649505615234375,0.35504150390625,-0.3203277587890625,1,0.96
2020-05-16 12:39:16.282 -0400,10893.071394125,-0.5679931640625,0.2970123291015625,-0.6297454833984375,1,0.96
2020-05-16 12:39:16.352 -0400,10893.141246125,-0.8032989501953125,-0.006988525390625,-0.6219635009765625,1,0.96
2020-05-16 12:39:16.421 -0400,10893.211095125,-0.53009033203125,-0.14581298828125,-1.100448608398438,1,0.96
2020-05-16 12:39:16.491 -0400,10893.28094491667,-0.764984130859375,-0.033538818359375,-1.196945190429688,1,0.96
2020-05-16 12:39:16.561 -0400,10893.35079191667,-1.161727905273438,-0.0091094970703125,-1.055099487304688,1,0.96
2020-05-16 12:39:16.631 -0400,10893.42064091667,-0.7850189208984375,0.0933380126953125,-0.6261749267578125,1,0.96
2020-05-16 12:39:16.701 -0400,10893.49048991667,-0.3137664794921875,-0.0678558349609375,-0.172576904296875,1,0.96
2020-05-16 12:39:16.771 -0400,10893.56033891667,0.044586181640625,-0.0418701171875,-0.34979248046875,1,0.96
2020-05-16 12:39:16.840 -0400,10893.63018391667,-0.0894775390625,-0.0200653076171875,-0.5535736083984375,1,0.96
2020-05-16 12:39:16.910 -0400,10893.70002791667,-0.4795989990234375,-0.469207763671875,-0.89306640625,1,0.96
2020-05-16 12:39:16.980 -0400,10893.76987191667,-0.970672607421875,-0.5157928466796875,-1.012985229492188,1,0.96
2020-05-16 12:39:17.050 -0400,10893.83971891667,-1.038330078125,-0.7889556884765625,-0.8175048828125,1,0.96
2020-05-16 12:39:17.120 -0400,10893.90957091667,-1.150894165039062,-0.3333740234375,-0.600677490234375,1,0.96
2020-05-16 12:39:17.190 -0400,10893.97942091667,-0.5347137451171875,0.1123199462890625,-0.5374908447265625,1,0.96
2020-05-16 12:39:17.259 -0400,10894.04927091667,-0.319091796875,0.366851806640625,-0.4689178466796875,1,0.96
2020-05-16 12:39:17.330 -0400,10894.11911991667,-0.6116943359375,-0.3433990478515625,-0.2627410888671875,1,0.96
2020-05-16 12:39:17.399 -0400,10894.18896791667,-1.342620849609375,-1.10772705078125,-0.3583221435546875,1,0.96
2020-05-16 12:39:17.469 -0400,10894.25881691667,-1.374343872070312,-1.298599243164062,-0.6027374267578125,1,0.96
2020-05-16 12:39:17.539 -0400,10894.328669,-1.048553466796875,-0.820526123046875,-0.524444580078125,1,0.96
2020-05-16 12:39:17.609 -0400,10894.398517,-0.5542449951171875,-0.36517333984375,-0.2998809814453125,1,0.96
2020-05-16 12:39:17.679 -0400,10894.468366,-0.3248748779296875,-0.0473175048828125,-0.50567626953125,1,0.96
2020-05-16 12:39:17.748 -0400,10894.538222,-0.377288818359375,-0.3938751220703125,-0.666900634765625,1,0.96
2020-05-16 12:39:17.818 -0400,10894.608073,-0.4491424560546875,-0.597137451171875,-0.4519500732421875,1,0.96
2020-05-16 12:39:17.899 -0400,10894.677922,-0.48345947265625,-0.4733123779296875,-0.354522705078125,1,0.96
2020-05-16 12:39:18.008 -0400,10894.79766,-0.1515350341796875,-0.5131072998046875,-0.366607666015625,1,0.96
2020-05-16 12:39:18.128 -0400,10894.917402,0.1385498046875,-0.543609619140625,0.1605377197265625,1,0.96
2020-05-16 12:39:18.247 -0400,10895.037142,0.0924835205078125,-0.3248748779296875,0.645782470703125,1,0.96
2020-05-16 12:39:18.367 -0400,10895.156878,1.503570556640625,4.276153564453125,-2.86474609375,1,0.96
2020-05-16 12:39:18.487 -0400,10895.27660679167,0.9668121337890625,2.384429931640625,-0.6270294189453125,1,0.96
2020-05-16 12:39:18.607 -0400,10895.39634079167,0.4756622314453125,0.1786346435546875,-0.501800537109375,1,0.96
2020-05-16 12:39:18.726 -0400,10895.51607679167,2.291152954101562,0.236907958984375,0.1048431396484375,1,0.96
2020-05-16 12:39:18.846 -0400,10895.63581179167,0.9654693603515625,0.2399444580078125,-0.4286651611328125,1,0.96
2020-05-16 12:39:18.966 -0400,10895.75554679167,0.1294403076171875,0.1947479248046875,-0.02947998046875,1,0.96
2020-05-16 12:39:19.086 -0400,10895.87527979167,0.5316162109375,1.125442504882812,-0.134521484375,1,0.96
2020-05-16 12:39:19.206 -0400,10895.99501379167,0.582611083984375,0.522308349609375,-0.3259429931640625,1,0.96
2020-05-16 12:39:19.325 -0400,10896.11474879167,1.943679809570312,0.9973907470703125,-0.3391571044921875,1,0.96
2020-05-16 12:39:19.445 -0400,10896.23448979167,1.031341552734375,-0.0512847900390625,-0.25738525390625,1,0.96
2020-05-16 12:39:19.565 -0400,10896.35423041667,0.535888671875,0.446136474609375,-0.1209869384765625,1,0.96
2020-05-16 12:39:19.638 -0400,10896.42407741667,0.280975341796875,0.0467071533203125,-0.0760345458984375,1,0.96
2020-05-16 12:39:19.704 -0400,10896.49392641667,0.1806793212890625,0.146331787109375,0.034210205078125,1,0.96
2020-05-16 12:39:19.774 -0400,10896.56377541667,0.912078857421875,0.363189697265625,0.014678955078125,1,0.96
2020-05-16 12:39:19.844 -0400,10896.63362141667,1.656845092773438,1.033050537109375,-0.3651580810546875,1,0.96
2020-05-16 12:39:19.914 -0400,10896.70347041667,2.047592163085938,0.1710662841796875,-0.0867919921875,1,0.96
2020-05-16 12:39:19.988 -0400,10896.77331941667,1.101150512695312,-0.3848876953125,-0.6155853271484375,1,0.96
2020-05-16 12:39:20.054 -0400,10896.84316841667,0.404998779296875,0.7570343017578125,-0.2025604248046875,1,0.96
2020-05-16 12:39:20.123 -0400,10896.91301841667,0.2736968994140625,0.4675750732421875,-0.225372314453125,1,0.96
2020-05-16 12:39:20.193 -0400,10896.98286641667,0.4689483642578125,0.7512969970703125,-0.2499542236328125,1,0.96
2020-05-16 12:39:20.264 -0400,10897.05271341667,0.8788909912109375,1.222396850585938,-0.15765380859375,1,0.96
2020-05-16 12:39:20.333 -0400,10897.12256341667,2.326461791992188,0.7261199951171875,-0.137237548828125,1,0.96
2020-05-16 12:39:20.403 -0400,10897.19241241667,1.863067626953125,0.1599578857421875,-0.17730712890625,1,0.96
2020-05-16 12:39:20.473 -0400,10897.26226141667,1.258758544921875,0.6363677978515625,-0.0766754150390625,1,0.96
2020-05-16 12:39:20.542 -0400,10897.33211075,0.8634185791015625,0.3980560302734375,-0.1600189208984375,1,0.96
2020-05-16 12:39:20.612 -0400,10897.40195775,0.819000244140625,0.28350830078125,0.02587890625,1,0.96
2020-05-16 12:39:20.682 -0400,10897.47180675,0.5881805419921875,0.06597900390625,-0.0029449462890625,1,0.96
2020-05-16 12:39:20.752 -0400,10897.54165475,0.3448486328125,0.0318450927734375,0.0010223388671875,1,0.96
2020-05-16 12:39:20.822 -0400,10897.61150375,0.50323486328125,0.1307525634765625,0.0092620849609375,1,0.96
2020-05-16 12:39:20.892 -0400,10897.68134875,1.643722534179688,0.76324462890625,0.3247833251953125,1,0.96
2020-05-16 12:39:20.962 -0400,10897.75119575,3.599273681640625,1.965972900390625,-1.337387084960938,1,0.96
2020-05-16 12:39:21.031 -0400,10897.82103975,0.918914794921875,0.732269287109375,0.437774658203125,1,0.96
2020-05-16 12:39:21.101 -0400,10897.89088575,0.7574462890625,-0.6486663818359375,-0.6502227783203125,1,0.96
2020-05-16 12:39:21.171 -0400,10897.96072775,0.21990966796875,0.3493499755859375,-0.943634033203125,1,0.96
2020-05-16 12:39:21.241 -0400,10898.03057775,0.4632720947265625,1.105728149414062,-0.8513336181640625,1,0.96
2020-05-16 12:39:21.311 -0400,10898.10043175,0.871337890625,0.3982696533203125,-0.5659942626953125,1,0.96
2020-05-16 12:39:21.381 -0400,10898.17027975,2.591964721679688,-0.2896728515625,-0.0306549072265625,1,0.96
2020-05-16 12:39:21.450 -0400,10898.24013075,2.248550415039062,1.09796142578125,0.037200927734375,1,0.96
2020-05-16 12:39:21.520 -0400,10898.309977875,1.86981201171875,0.6191864013671875,-0.1768341064453125,1,0.96
2020-05-16 12:39:21.590 -0400,10898.379829875,1.146041870117188,0.5541229248046875,0.0815582275390625,1,0.96
2020-05-16 12:39:21.660 -0400,10898.449678875,0.661651611328125,0.0213623046875,0.0207672119140625,1,0.96
2020-05-16 12:39:21.730 -0400,10898.519530875,0.3340606689453125,-0.304840087890625,0.04296875,1,0.96
2020-05-16 12:39:21.800 -0400,10898.589380875,0.4366302490234375,-0.0764617919921875,-0.07537841796875,1,0.96
2020-05-16 12:39:21.870 -0400,10898.659229875,0.3732452392578125,0.0958404541015625,0.041107177734375,1,0.96
2020-05-16 12:39:21.939 -0400,10898.729074875,0.6303253173828125,0.7939910888671875,-0.031219482421875,1,0.96
2020-05-16 12:39:22.009 -0400,10898.798922875,1.901260375976562,1.128067016601562,-0.060211181640625,1,0.96
2020-05-16 12:39:22.079 -0400,10898.868772875,2.695541381835938,1.262557983398438,-1.368698120117188,1,0.96
2020-05-16 12:39:22.149 -0400,10898.938617875,1.102020263671875,1.114334106445312,-0.1033935546875,1,0.96
2020-05-16 12:39:22.219 -0400,10899.008465875,0.635955810546875,-0.017242431640625,-0.7440338134765625,1,0.96
2020-05-16 12:39:22.289 -0400,10899.078315875,-0.0396728515625,1.056976318359375,-1.080825805664062,1,0.96
2020-05-16 12:39:22.359 -0400,10899.148164875,0.5871124267578125,1.523880004882812,-0.6130218505859375,1,0.96
2020-05-16 12:39:22.428 -0400,10899.218011875,1.571640014648438,0.7944793701171875,-0.08905029296875,1,0.96
2020-05-16 12:39:22.498 -0400,10899.287859875,2.642288208007812,-0.18707275390625,-0.37628173828125,1,0.96
2020-05-16 12:39:22.568 -0400,10899.357708875,2.627166748046875,1.03082275390625,0.075653076171875,1,0.96
2020-05-16 12:39:22.638 -0400,10899.427553875,1.881240844726562,0.910003662109375,0.05523681640625,1,0.96
2020-05-16 12:39:22.708 -0400,10899.497401875,1.170318603515625,0.0987091064453125,0.01324462890625,1,0.96
2020-05-16 12:39:22.778 -0400,10899.567248875,0.5424041748046875,-0.5510711669921875,0.0324249267578125,1,0.96
2020-05-16 12:39:22.847 -0400,10899.637095875,0.537261962890625,-0.0941619873046875,-0.1441497802734375,1,0.96
2020-05-16 12:39:22.917 -0400,10899.706936875,0.5179290771484375,-0.0206756591796875,0.0124969482421875,1,0.96
2020-05-16 12:39:22.987 -0400,10899.776780875,0.3470001220703125,0.13897705078125,-0.0792083740234375,1,0.96
2020-05-16 12:39:23.057 -0400,10899.846623875,1.785293579101562,1.401229858398438,-0.46185302734375,1,0.96
2020-05-16 12:39:23.127 -0400,10899.916470875,2.114944458007812,0.8064117431640625,-0.943572998046875,1,0.96
2020-05-16 12:39:23.197 -0400,10899.986314875,1.943405151367188,1.09234619140625,-0.34356689453125,1,0.96
2020-05-16 12:39:23.266 -0400,10900.056151875,0.9447021484375,0.6928558349609375,-0.29974365234375,1,0.96
2020-05-16 12:39:23.336 -0400,10900.125988875,0.64935302734375,0.762786865234375,-0.1414794921875,1,0.96
2020-05-16 12:39:23.406 -0400,10900.195828875,0.380950927734375,1.009902954101562,0.0260162353515625,1,0.96
2020-05-16 12:39:23.476 -0400,10900.265670875,0.697662353515625,1.043441772460938,0.0276031494140625,1,0.96
2020-05-16 12:39:23.546 -0400,10900.335508,2.493011474609375,1.219558715820312,-0.4730072021484375,1,0.96
2020-05-16 12:39:23.616 -0400,10900.405351,1.818069458007812,0.6990966796875,-0.331573486328125,1,0.96
2020-05-16 12:39:23.685 -0400,10900.475196,2.007110595703125,0.688323974609375,-0.2267608642578125,1,0.96
2020-05-16 12:39:23.755 -0400,10900.545037,1.163436889648438,0.2228240966796875,-0.17181396484375,1,0.96
2020-05-16 12:39:23.825 -0400,10900.614878,0.836151123046875,0.1916656494140625,-0.1164093017578125,1,0.96
2020-05-16 12:39:23.895 -0400,10900.684718,0.6695098876953125,0.1313629150390625,-0.0419464111328125,1,0.96
2020-05-16 12:39:23.965 -0400,10900.754561,0.6140289306640625,0.067718505859375,-0.03668212890625,1,0.96
2020-05-16 12:39:24.035 -0400,10900.824407,0.6122589111328125,0.1409912109375,-0.011138916015625,1,0.96
2020-05-16 12:39:24.104 -0400,10900.894253,0.918487548828125,1.02496337890625,-0.059722900390625,1,0.96
2020-05-16 12:39:24.175 -0400,10900.964102,1.836212158203125,0.9040985107421875,-0.692291259765625,1,0.96
2020-05-16 12:39:24.244 -0400,10901.03395,1.649429321289062,0.6914825439453125,-0.331085205078125,1,0.96
2020-05-16 12:39:24.314 -0400,10901.103798,0.988739013671875,1.038162231445312,-0.283477783203125,1,0.96
2020-05-16 12:39:24.384 -0400,10901.173647,0.7887420654296875,0.6137542724609375,-0.479278564453125,1,0.96
2020-05-16 12:39:24.454 -0400,10901.243497,0.5145416259765625,0.89556884765625,-0.4217071533203125,1,0.96
2020-05-16 12:39:24.524 -0400,10901.31334554167,0.7947540283203125,1.203872680664062,-0.3854827880859375,1,0.96
2020-05-16 12:39:24.593 -0400,10901.38319254167,1.82879638671875,1.106094360351562,-0.7195892333984375,1,0.96
2020-05-16 12:39:24.663 -0400,10901.45303954167,1.956512451171875,0.1107025146484375,-0.21405029296875,1,0.96
2020-05-16 12:39:24.733 -0400,10901.52288254167,2.05792236328125,0.514862060546875,-0.1925506591796875,1,0.96
2020-05-16 12:39:24.803 -0400,10901.59272654167,1.309173583984375,0.4857330322265625,-0.2176055908203125,1,0.96
2020-05-16 12:39:24.873 -0400,10901.66257154167,1.014739990234375,0.4356689453125,-0.0312042236328125,1,0.96
2020-05-16 12:39:24.943 -0400,10901.73241254167,0.87677001953125,0.17083740234375,0.058502197265625,1,0.96
2020-05-16 12:39:25.013 -0400,10901.80225354167,0.5138702392578125,-0.00311279296875,0.0670928955078125,1,0.96
2020-05-16 12:39:25.082 -0400,10901.87209854167,0.3658599853515625,0.007659912109375,0.09783935546875,1,0.96
2020-05-16 12:39:25.153 -0400,10901.94194254167,0.458343505859375,0.5590972900390625,0.0886383056640625,1,0.96
2020-05-16 12:39:25.222 -0400,10902.01178354167,1.126068115234375,1.000015258789062,-0.949798583984375,1,0.96
2020-05-16 12:39:25.292 -0400,10902.08162354167,1.669570922851562,0.6746368408203125,-0.8262481689453125,1,0.96
2020-05-16 12:39:25.362 -0400,10902.15146454167,1.14471435546875,0.695343017578125,-0.7283477783203125,1,0.96
2020-05-16 12:39:25.431 -0400,10902.22130454167,0.640625,0.28271484375,-0.712982177734375,1,0.96
2020-05-16 12:39:25.501 -0400,10902.291149625,0.90740966796875,0.95843505859375,-0.5557098388671875,1,0.96
2020-05-16 12:39:25.571 -0400,10902.360988625,1.522476196289062,1.348175048828125,-0.4929351806640625,1,0.96
2020-05-16 12:39:25.641 -0400,10902.430825625,1.047256469726562,0.247711181640625,-0.1642303466796875,1,0.96
2020-05-16 12:39:25.711 -0400,10902.500666625,1.587615966796875,0.5250091552734375,-0.3166046142578125,1,0.96
2020-05-16 12:39:25.781 -0400,10902.570506625,1.494873046875,0.581207275390625,-0.096588134765625,1,0.96
2020-05-16 12:39:25.851 -0400,10902.640346625,1.123825073242188,0.2332305908203125,-0.0448760986328125,1,0.96
2020-05-16 12:39:25.920 -0400,10902.710183625,0.8447265625,0.30267333984375,0.022735595703125,1,0.96
2020-05-16 12:39:25.991 -0400,10902.780024625,0.569488525390625,0.2409515380859375,-0.016357421875,1,0.96
2020-05-16 12:39:26.060 -0400,10902.849868625,0.346099853515625,0.348358154296875,-0.1602783203125,1,0.96
2020-05-16 12:39:26.130 -0400,10902.919708625,0.159027099609375,0.0894622802734375,-0.171783447265625,1,0.96
2020-05-16 12:39:26.200 -0400,10902.989548625,0.34954833984375,0.272552490234375,-0.264251708984375,1,0.96
2020-05-16 12:39:26.270 -0400,10903.059391625,1.880294799804688,0.485687255859375,-0.490997314453125,1,0.96
2020-05-16 12:39:26.340 -0400,10903.129235625,2.060028076171875,0.2468719482421875,-0.995025634765625,1,0.96
2020-05-16 12:39:26.409 -0400,10903.199079625,1.397598266601562,0.0552520751953125,-0.5999755859375,1,0.96
2020-05-16 12:39:26.479 -0400,10903.268927625,1.105255126953125,0.806671142578125,-0.498321533203125,1,0.96
2020-05-16 12:39:26.549 -0400,10903.33876775,0.564208984375,0.7873077392578125,-0.3977203369140625,1,0.96
2020-05-16 12:39:26.619 -0400,10903.40861275,0.968841552734375,0.77899169921875,-0.972625732421875,1,0.96
2020-05-16 12:39:26.689 -0400,10903.47845775,0.6344757080078125,0.1905670166015625,-0.42626953125,1,0.96
2020-05-16 12:39:26.759 -0400,10903.54830075,1.417449951171875,0.194366455078125,-0.5787506103515625,1,0.96
2020-05-16 12:39:26.828 -0400,10903.61814575,1.453231811523438,0.6533355712890625,-0.38031005859375,1,0.96
2020-05-16 12:39:26.898 -0400,10903.68798975,1.767196655273438,0.2640838623046875,-0.3233795166015625,1,0.96
2020-05-16 12:39:26.968 -0400,10903.75783375,1.29302978515625,0.421478271484375,-0.148223876953125,1,0.96
2020-05-16 12:39:27.038 -0400,10903.82767775,1.084182739257812,0.4976043701171875,-0.00726318359375,1,0.96
2020-05-16 12:39:27.108 -0400,10903.89751975,0.8964385986328125,0.2581787109375,-0.049224853515625,1,0.96
2020-05-16 12:39:27.178 -0400,10903.96736075,0.69891357421875,0.1814422607421875,-0.07745361328125,1,0.96
2020-05-16 12:39:27.248 -0400,10904.03720075,0.517181396484375,-0.0333099365234375,-0.00396728515625,1,0.96
2020-05-16 12:39:27.317 -0400,10904.10704475,0.292999267578125,0.06005859375,-0.108306884765625,1,0.96
2020-05-16 12:39:27.387 -0400,10904.17688975,1.219970703125,0.39605712890625,-0.2150726318359375,1,0.96
2020-05-16 12:39:27.457 -0400,10904.24673475,2.03228759765625,0.555206298828125,-0.828887939453125,1,0.96
2020-05-16 12:39:27.527 -0400,10904.316577125,1.141265869140625,1.2515869140625,-1.200103759765625,1,0.96
2020-05-16 12:39:27.597 -0400,10904.386419125,0.8898468017578125,1.123489379882812,-0.6838531494140625,1,0.96
2020-05-16 12:39:27.667 -0400,10904.456261125,0.3885955810546875,0.52374267578125,-0.2062225341796875,1,0.96
2020-05-16 12:39:27.736 -0400,10904.526103125,0.184661865234375,0.31109619140625,-0.1311187744140625,1,0.96
2020-05-16 12:39:27.806 -0400,10904.595943125,0.370574951171875,0.40814208984375,-0.2318878173828125,1,0.96
2020-05-16 12:39:27.876 -0400,10904.665787125,0.842803955078125,0.5774383544921875,-0.3938446044921875,1,0.96
2020-05-16 12:39:27.946 -0400,10904.735629125,0.9366607666015625,0.3757171630859375,-0.3565216064453125,1,0.96
2020-05-16 12:39:28.016 -0400,10904.805470125,2.39105224609375,-0.1413421630859375,-1.117263793945312,1,0.96
2020-05-16 12:39:28.086 -0400,10904.875313125,1.625442504882812,0.21966552734375,-0.3132781982421875,1,0.96
2020-05-16 12:39:28.156 -0400,10904.945155125,1.1802978515625,0.416717529296875,0.1092681884765625,1,0.96
2020-05-16 12:39:28.225 -0400,10905.014994125,0.598052978515625,0.450042724609375,-0.0026702880859375,1,0.96
2020-05-16 12:39:28.295 -0400,10905.084837125,0.4538726806640625,0.315765380859375,-0.0628662109375,1,0.96
2020-05-16 12:39:28.366 -0400,10905.154677125,0.3887176513671875,0.2141876220703125,-0.055328369140625,1,0.96
2020-05-16 12:39:28.435 -0400,10905.224517125,0.4470977783203125,0.20037841796875,0.012786865234375,1,0.96
2020-05-16 12:39:28.505 -0400,10905.29435525,1.681427001953125,0.5377044677734375,0.1566925048828125,1,0.96
2020-05-16 12:39:28.574 -0400,10905.36419125,1.878250122070312,1.282180786132812,-1.358963012695312,1,0.96
2020-05-16 12:39:28.644 -0400,10905.43402825,1.173583984375,0.076690673828125,-0.112945556640625,1,0.96
2020-05-16 12:39:28.714 -0400,10905.50387125,0.6337890625,0.3873443603515625,-0.3469390869140625,1,0.96
2020-05-16 12:39:28.784 -0400,10905.57371925,0.4644775390625,0.374420166015625,-0.408599853515625,1,0.96
2020-05-16 12:39:28.854 -0400,10905.64356325,0.47113037109375,0.5009918212890625,-0.390228271484375,1,0.96
2020-05-16 12:39:28.924 -0400,10905.71340325,0.462310791015625,0.5058135986328125,-0.179595947265625,1,0.96
2020-05-16 12:39:28.994 -0400,10905.78324625,0.9435577392578125,0.72796630859375,-0.03173828125,1,0.96
2020-05-16 12:39:29.063 -0400,10905.85309025,1.9984130859375,0.9425811767578125,0.1696624755859375,1,0.96
2020-05-16 12:39:29.133 -0400,10905.92293925,1.691207885742188,0.4488067626953125,-0.299468994140625,1,0.96
2020-05-16 12:39:29.203 -0400,10905.99277925,1.038665771484375,0.5966796875,-0.045257568359375,1,0.96
2020-05-16 12:39:29.275 -0400,10906.06261625,0.794647216796875,0.3970794677734375,-0.1109466552734375,1,0.96
2020-05-16 12:39:29.343 -0400,10906.13245825,0.5197601318359375,0.1679840087890625,-0.02276611328125,1,0.96
2020-05-16 12:39:29.413 -0400,10906.20230225,0.312042236328125,0.1085662841796875,-0.0261993408203125,1,0.96
2020-05-16 12:39:29.482 -0400,10906.27214325,0.37469482421875,0.223846435546875,0.01934814453125,1,0.96
2020-05-16 12:39:29.552 -0400,10906.34198529167,0.449615478515625,0.3808746337890625,-0.0145263671875,1,0.96
2020-05-16 12:39:29.622 -0400,10906.41183329167,1.555984497070312,1.129058837890625,-0.31243896484375,1,0.96
2020-05-16 12:39:29.692 -0400,10906.48167929167,1.651779174804688,0.7276458740234375,-0.538299560546875,1,0.96
2020-05-16 12:39:29.763 -0400,10906.55152329167,1.198898315429688,0.6781768798828125,-0.4295654296875,1,0.96
2020-05-16 12:39:29.832 -0400,10906.62136329167,0.8541717529296875,0.9373931884765625,-0.3773193359375,1,0.96
2020-05-16 12:39:29.902 -0400,10906.69120529167,0.463531494140625,0.514984130859375,-0.2794342041015625,1,0.96
2020-05-16 12:39:29.972 -0400,10906.76105029167,0.363037109375,0.457183837890625,-0.2740631103515625,1,0.96
2020-05-16 12:39:30.041 -0400,10906.83089529167,0.5410614013671875,0.522705078125,-0.3157806396484375,1,0.96
2020-05-16 12:39:30.111 -0400,10906.90073829167,0.860504150390625,0.3934478759765625,-0.2009429931640625,1,0.96
2020-05-16 12:39:30.181 -0400,10906.97058329167,1.927108764648438,0.46600341796875,-0.143646240234375,1,0.96
2020-05-16 12:39:30.251 -0400,10907.04042829167,1.601806640625,0.5933837890625,-0.014068603515625,1,0.96
2020-05-16 12:39:30.321 -0400,10907.11027429167,1.391403198242188,0.7092742919921875,-0.241241455078125,1,0.96
2020-05-16 12:39:30.391 -0400,10907.18011629167,0.991241455078125,0.3905029296875,-0.0844573974609375,1,0.96
2020-05-16 12:39:30.460 -0400,10907.24995729167,0.62579345703125,0.132781982421875,0.008453369140625,1,0.96
2020-05-16 12:39:30.530 -0400,10907.31979954167,0.414886474609375,0.1441192626953125,-0.0142974853515625,1,0.96
2020-05-16 12:39:30.600 -0400,10907.38964454167,0.48974609375,0.267822265625,0.057586669921875,1,0.96
2020-05-16 12:39:30.670 -0400,10907.45948554167,0.484954833984375,0.2642059326171875,0.140350341796875,1,0.96
2020-05-16 12:39:30.740 -0400,10907.52932754167,0.6380157470703125,0.31829833984375,0.13323974609375,1,0.96
2020-05-16 12:39:30.810 -0400,10907.59916854167,2.578201293945312,0.6505126953125,0.5379486083984375,1,0.96
2020-05-16 12:39:30.879 -0400,10907.66901354167,1.612472534179688,1.238601684570312,-0.8036956787109375,1,0.96
2020-05-16 12:39:30.949 -0400,10907.73885954167,1.050247192382812,0.7086029052734375,-0.2781524658203125,1,0.96
2020-05-16 12:39:31.019 -0400,10907.80870354167,0.5980224609375,0.66314697265625,-0.067657470703125,1,0.96
2020-05-16 12:39:31.089 -0400,10907.87854654167,0.3195648193359375,0.1114654541015625,-0.1798248291015625,1,0.96
2020-05-16 12:39:31.159 -0400,10907.94839454167,0.4261474609375,0.4159698486328125,-0.120330810546875,1,0.96
2020-05-16 12:39:31.229 -0400,10908.01824554167,0.871124267578125,0.5802459716796875,-0.2490081787109375,1,0.96
2020-05-16 12:39:31.299 -0400,10908.08809254167,1.099884033203125,0.2682647705078125,-0.525177001953125,1,0.96
2020-05-16 12:39:31.368 -0400,10908.15793854167,0.8496246337890625,-0.1959686279296875,-0.604827880859375,1,0.96
2020-05-16 12:39:31.439 -0400,10908.22778654167,1.4285888671875,0.525726318359375,-0.3032684326171875,1,0.96
2020-05-16 12:39:31.508 -0400,10908.29763625,1.309921264648438,0.6288299560546875,0.1409454345703125,1,0.96
2020-05-16 12:39:31.578 -0400,10908.36748725,0.77734375,0.2472381591796875,0.1212310791015625,1,0.96
2020-05-16 12:39:31.648 -0400,10908.43733225,0.5885772705078125,0.5244903564453125,0.1139678955078125,1,0.96
2020-05-16 12:39:31.717 -0400,10908.50718025,0.634002685546875,0.5216217041015625,0.1272125244140625,1,0.96
2020-05-16 12:39:31.787 -0400,10908.57702425,0.828033447265625,0.3537750244140625,0.077880859375,1,0.96
2020-05-16 12:39:31.857 -0400,10908.64687325,0.64227294921875,0.1844940185546875,-0.034759521484375,1,0.96
2020-05-16 12:39:31.927 -0400,10908.71671825,0.5194244384765625,0.2652740478515625,-0.1241607666015625,1,0.96
2020-05-16 12:39:31.997 -0400,10908.78656325,0.6788787841796875,0.3303070068359375,-0.1455078125,1,0.96
2020-05-16 12:39:32.067 -0400,10908.85641125,1.38616943359375,0.4208221435546875,-0.081939697265625,1,0.96
2020-05-16 12:39:32.137 -0400,10908.92625625,2.093109130859375,0.790252685546875,-0.498291015625,1,0.96
2020-05-16 12:39:32.206 -0400,10908.99609925,1.126022338867188,0.5937652587890625,-0.5353546142578125,1,0.96
2020-05-16 12:39:32.276 -0400,10909.06594425,0.721649169921875,0.190155029296875,-0.1464691162109375,1,0.96
2020-05-16 12:39:32.346 -0400,10909.13578825,0.4683990478515625,0.30548095703125,-0.2523651123046875,1,0.96
2020-05-16 12:39:32.416 -0400,10909.20563325,0.360321044921875,0.4608154296875,-0.277862548828125,1,0.96
2020-05-16 12:39:32.486 -0400,10909.27547525,0.6979827880859375,0.486358642578125,-0.375457763671875,1,0.96
2020-05-16 12:39:32.556 -0400,10909.345316625,1.043106079101562,0.4708251953125,-0.19793701171875,1,0.96
2020-05-16 12:39:32.625 -0400,10909.415156625,1.455291748046875,0.3914642333984375,-0.2391357421875,1,0.96
2020-05-16 12:39:32.695 -0400,10909.484994625,1.643997192382812,0.3795318603515625,-0.2128753662109375,1,0.96
2020-05-16 12:39:32.765 -0400,10909.554833625,1.222976684570312,0.314208984375,-0.162384033203125,1,0.96
2020-05-16 12:39:32.835 -0400,10909.624675625,0.8085174560546875,0.325927734375,-0.187042236328125,1,0.96
2020-05-16 12:39:32.905 -0400,10909.694517625,0.540435791015625,0.2645263671875,-0.154388427734375,1,0.96
2020-05-16 12:39:32.975 -0400,10909.764354625,0.564788818359375,0.16204833984375,-0.1121368408203125,1,0.96
2020-05-16 12:39:33.044 -0400,10909.834192625,0.42828369140625,0.1235809326171875,0.0123443603515625,1,0.96
2020-05-16 12:39:33.114 -0400,10909.904032625,0.65625,0.220947265625,0.070770263671875,1,0.96
2020-05-16 12:39:33.184 -0400,10909.973873625,1.675628662109375,1.130752563476562,0.125701904296875,1,0.96
2020-05-16 12:39:33.254 -0400,10910.043718625,1.514556884765625,1.332199096679688,-0.6933441162109375,1,0.96
2020-05-16 12:39:33.329 -0400,10910.113566625,0.8564910888671875,0.37213134765625,-0.0267791748046875,1,0.96
2020-05-16 12:39:33.394 -0400,10910.183414625,0.6651763916015625,0.038360595703125,-0.3687591552734375,1,0.96
2020-05-16 12:39:33.464 -0400,10910.253260625,0.361663818359375,0.38848876953125,-0.5337371826171875,1,0.96
2020-05-16 12:39:33.534 -0400,10910.32310841667,0.5089874267578125,0.73321533203125,-0.6675262451171875,1,0.96
2020-05-16 12:39:33.603 -0400,10910.39295341667,1.46990966796875,0.611053466796875,-0.5095977783203125,1,0.96
2020-05-16 12:39:33.673 -0400,10910.46279941667,1.659027099609375,0.1942901611328125,0.109619140625,1,0.96
2020-05-16 12:39:33.743 -0400,10910.53264441667,1.606246948242188,0.3676300048828125,-0.2833404541015625,1,0.96
2020-05-16 12:39:33.813 -0400,10910.60248741667,1.156448364257812,0.786102294921875,0.0170440673828125,1,0.96
2020-05-16 12:39:33.883 -0400,10910.67233541667,0.84716796875,0.334808349609375,0.1176605224609375,1,0.96
2020-05-16 12:39:33.952 -0400,10910.74218241667,0.575531005859375,0.1212310791015625,0.1033782958984375,1,0.96
2020-05-16 12:39:34.023 -0400,10910.81203141667,0.5479736328125,0.2364959716796875,0.0684661865234375,1,0.96
2020-05-16 12:39:34.092 -0400,10910.88188041667,0.5376739501953125,0.2219390869140625,0.141510009765625,1,0.96
2020-05-16 12:39:34.162 -0400,10910.95173141667,0.4974517822265625,0.290496826171875,0.0789031982421875,1,0.96
2020-05-16 12:39:34.232 -0400,10911.02157941667,0.4066009521484375,0.526275634765625,-0.342437744140625,1,0.96
2020-05-16 12:39:34.302 -0400,10911.09143141667,3.985214233398438,1.179367065429688,-0.2994842529296875,1,0.96
2020-05-16 12:39:34.372 -0400,10911.16128041667,1.0340576171875,0.8912200927734375,-1.425537109375,1,0.96
2020-05-16 12:39:34.442 -0400,10911.23112541667,1.259109497070312,-0.643585205078125,-0.4003448486328125,1,0.96
2020-05-16 12:39:34.511 -0400,10911.300970625,0.307830810546875,0.4742889404296875,-0.632293701171875,1,0.96
2020-05-16 12:39:34.581 -0400,10911.370815625,0.35906982421875,0.930938720703125,-0.6859130859375,1,0.96
2020-05-16 12:39:34.651 -0400,10911.440660625,0.7119293212890625,0.52899169921875,-0.4662628173828125,1,0.96
2020-05-16 12:39:34.721 -0400,10911.510506625,1.735992431640625,0.2849273681640625,-0.244720458984375,1,0.96
2020-05-16 12:39:34.791 -0400,10911.580350625,1.666183471679688,0.2271881103515625,-0.0978851318359375,1,0.96
2020-05-16 12:39:34.861 -0400,10911.650192625,1.389724731445312,0.3024139404296875,-0.1140594482421875,1,0.96
2020-05-16 12:39:34.931 -0400,10911.720038625,1.014312744140625,0.6467132568359375,-0.06768798828125,1,0.96
2020-05-16 12:39:35.000 -0400,10911.789882625,0.626373291015625,0.3956451416015625,-0.135345458984375,1,0.96
2020-05-16 12:39:35.070 -0400,10911.859727625,0.59197998046875,0.0998077392578125,-0.113433837890625,1,0.96
2020-05-16 12:39:35.140 -0400,10911.929574625,0.5425567626953125,-0.003692626953125,-0.09521484375,1,0.96
2020-05-16 12:39:35.210 -0400,10911.999418625,0.4496002197265625,0.174163818359375,-0.1854095458984375,1,0.96
2020-05-16 12:39:35.280 -0400,10912.069261625,0.7393951416015625,0.247406005859375,-0.0736083984375,1,0.96
2020-05-16 12:39:35.349 -0400,10912.139106625,1.413864135742188,0.591033935546875,-0.2828369140625,1,0.96
2020-05-16 12:39:35.419 -0400,10912.208946625,2.29571533203125,1.553497314453125,-0.8345184326171875,1,0.96
2020-05-16 12:39:35.489 -0400,10912.278789625,1.241912841796875,-0.12811279296875,-0.310943603515625,1,0.96
2020-05-16 12:39:35.559 -0400,10912.3486275,0.7783203125,0.0729217529296875,-0.27581787109375,1,0.96
2020-05-16 12:39:35.629 -0400,10912.4184675,0.4174652099609375,1.032730102539062,-0.5381927490234375,1,0.96
2020-05-16 12:39:35.699 -0400,10912.4883105,0.493682861328125,0.7998504638671875,-0.479095458984375,1,0.96
2020-05-16 12:39:35.768 -0400,10912.5581505,1.918121337890625,0.5235748291015625,-0.415252685546875,1,0.96
2020-05-16 12:39:35.838 -0400,10912.6279885,1.527862548828125,0.03717041015625,-0.1802978515625,1,0.96
2020-05-16 12:39:35.908 -0400,10912.6978285,1.315170288085938,0.4553680419921875,-0.2433319091796875,1,0.96
2020-05-16 12:39:35.978 -0400,10912.7676695,1.109451293945312,0.4758453369140625,-0.1060943603515625,1,0.96
2020-05-16 12:39:36.048 -0400,10912.8375075,0.8237457275390625,0.2519073486328125,0.0175018310546875,1,0.96
2020-05-16 12:39:36.118 -0400,10912.9073435,0.6756439208984375,0.2056427001953125,-0.041595458984375,1,0.96
2020-05-16 12:39:36.187 -0400,10912.9771835,0.6326446533203125,0.2276763916015625,-0.0631103515625,1,0.96
2020-05-16 12:39:36.257 -0400,10913.0470195,0.5732879638671875,0.160797119140625,0.0061187744140625,1,0.96
2020-05-16 12:39:36.327 -0400,10913.1168605,0.6295928955078125,0.626434326171875,-0.3086395263671875,1,0.96
2020-05-16 12:39:36.397 -0400,10913.1867025,0.6635894775390625,0.1896820068359375,-0.806304931640625,1,0.96
2020-05-16 12:39:36.467 -0400,10913.2565445,1.79034423828125,-0.2475433349609375,-0.323394775390625,1,0.96
2020-05-16 12:39:36.537 -0400,10913.32638766667,1.034317016601562,1.000274658203125,-1.012237548828125,1,0.96
2020-05-16 12:39:36.607 -0400,10913.39622966667,0.2925567626953125,0.19378662109375,-0.377685546875,1,0.96
2020-05-16 12:39:36.676 -0400,10913.46606866667,0.3585357666015625,0.3383636474609375,-0.400238037109375,1,0.96
2020-05-16 12:39:36.746 -0400,10913.53590666667,0.5186767578125,0.3086090087890625,-0.29071044921875,1,0.96
2020-05-16 12:39:36.816 -0400,10913.60574966667,2.762741088867188,0.6711883544921875,0.342071533203125,1,0.96
2020-05-16 12:39:36.886 -0400,10913.67559066667,1.758148193359375,-0.0968780517578125,-0.57171630859375,1,0.96
2020-05-16 12:39:36.956 -0400,10913.74543466667,0.931427001953125,0.706573486328125,0.0892333984375,1,0.96
2020-05-16 12:39:37.026 -0400,10913.81527866667,0.952484130859375,0.532989501953125,0.266937255859375,1,0.96
2020-05-16 12:39:37.095 -0400,10913.88512266667,0.678558349609375,0.2161102294921875,0.045166015625,1,0.96
2020-05-16 12:39:37.165 -0400,10913.95496766667,0.594970703125,0.132843017578125,-0.1147918701171875,1,0.96
2020-05-16 12:39:37.235 -0400,10914.02481266667,0.5792694091796875,0.24444580078125,-0.10919189453125,1,0.96
2020-05-16 12:39:37.305 -0400,10914.09465366667,0.66741943359375,0.396514892578125,-0.283905029296875,1,0.96
2020-05-16 12:39:37.375 -0400,10914.16449466667,1.06854248046875,0.63592529296875,-0.4204559326171875,1,0.96
2020-05-16 12:39:37.445 -0400,10914.23433466667,1.5933837890625,0.5736236572265625,-0.4028778076171875,1,0.96
2020-05-16 12:39:37.514 -0400,10914.304173375,1.207473754882812,-0.198333740234375,-0.6287841796875,1,0.96
2020-05-16 12:39:37.584 -0400,10914.374016375,0.9662017822265625,0.637969970703125,-0.1829681396484375,1,0.96
2020-05-16 12:39:37.654 -0400,10914.443861375,0.8326416015625,0.381072998046875,0.0679473876953125,1,0.96
2020-05-16 12:39:37.724 -0400,10914.513706375,0.4972991943359375,0.261749267578125,0.00689697265625,1,0.96
2020-05-16 12:39:37.794 -0400,10914.583552375,0.3404388427734375,0.40679931640625,0.10791015625,1,0.96
2020-05-16 12:39:37.864 -0400,10914.653397375,0.38555908203125,0.3894805908203125,0.0534820556640625,1,0.96
2020-05-16 12:39:37.934 -0400,10914.723241375,1.968643188476562,1.275527954101562,-0.435546875,1,0.96
2020-05-16 12:39:38.003 -0400,10914.793082375,1.139999389648438,0.63238525390625,0.03985595703125,1,0.96
2020-05-16 12:39:38.073 -0400,10914.862932375,1.223037719726562,-0.0102386474609375,0.01123046875,1,0.96
2020-05-16 12:39:38.143 -0400,10914.932780375,0.8885345458984375,0.4256439208984375,-0.282928466796875,1,0.96
2020-05-16 12:39:38.213 -0400,10915.002628375,0.785400390625,0.523956298828125,-0.2991943359375,1,0.96
2020-05-16 12:39:38.283 -0400,10915.072472375,0.8268280029296875,0.3767547607421875,-0.281158447265625,1,0.96
2020-05-16 12:39:38.353 -0400,10915.142321375,0.771087646484375,0.1339111328125,-0.3006744384765625,1,0.96
2020-05-16 12:39:38.423 -0400,10915.212170375,0.930908203125,0.146881103515625,-0.14727783203125,1,0.96
2020-05-16 12:39:38.492 -0400,10915.282019375,1.55523681640625,0.5170745849609375,-0.148651123046875,1,0.96
2020-05-16 12:39:38.562 -0400,10915.351871625,0.612060546875,0.545257568359375,-0.294403076171875,1,0.96
2020-05-16 12:39:38.632 -0400,10915.421719625,1.2955322265625,0.565948486328125,-0.092193603515625,1,0.96
2020-05-16 12:39:38.702 -0400,10915.491567625,0.878143310546875,0.4633026123046875,-0.000701904296875,1,0.96
2020-05-16 12:39:38.772 -0400,10915.561419625,0.7169647216796875,0.6386566162109375,-0.1007232666015625,1,0.96
2020-05-16 12:39:38.842 -0400,10915.631269625,0.5982818603515625,0.7051239013671875,-0.2079620361328125,1,0.96
2020-05-16 12:39:38.911 -0400,10915.701116625,0.4802703857421875,0.658447265625,-0.3995361328125,1,0.96
2020-05-16 12:39:38.981 -0400,10915.770961625,0.8665924072265625,0.6941986083984375,-0.36871337890625,1,0.96
2020-05-16 12:39:39.051 -0400,10915.840809625,2.166946411132812,0.63525390625,-0.5018310546875,1,0.96
2020-05-16 12:39:39.121 -0400,10915.910659625,1.714797973632812,0.07464599609375,-0.3284149169921875,1,0.96
2020-05-16 12:39:39.191 -0400,10915.980506625,1.819198608398438,0.4728240966796875,-0.3192291259765625,1,0.96
2020-05-16 12:39:39.265 -0400,10916.050354625,1.116500854492188,0.345245361328125,-0.21246337890625,1,0.96
2020-05-16 12:39:39.331 -0400,10916.120203625,0.8668975830078125,0.2271270751953125,-0.12689208984375,1,0.96
2020-05-16 12:39:39.400 -0400,10916.190052625,0.6339263916015625,0.0493316650390625,-0.1234893798828125,1,0.96
2020-05-16 12:39:39.470 -0400,10916.259901625,0.46380615234375,-0.022186279296875,-0.0777740478515625,1,0.96
2020-05-16 12:39:39.540 -0400,10916.3297495,0.396209716796875,0.1486968994140625,-0.042816162109375,1,0.96
2020-05-16 12:39:39.610 -0400,10916.3995965,1.148452758789062,0.73992919921875,-0.0793304443359375,1,0.96
2020-05-16 12:39:39.680 -0400,10916.4694435,1.361679077148438,0.8113555908203125,-0.438629150390625,1,0.96
2020-05-16 12:39:39.750 -0400,10916.5392915,1.862533569335938,1.040130615234375,-0.714080810546875,1,0.96
2020-05-16 12:39:39.819 -0400,10916.6091365,1.044815063476562,0.221832275390625,-0.303497314453125,1,0.96
2020-05-16 12:39:39.889 -0400,10916.6789815,0.7475128173828125,0.2915802001953125,-0.292388916015625,1,0.96
2020-05-16 12:39:39.959 -0400,10916.7488275,0.6198883056640625,1.047637939453125,-0.4331817626953125,1,0.96
2020-05-16 12:39:40.029 -0400,10916.8186715,0.7113189697265625,0.604766845703125,-0.4875030517578125,1,0.96
2020-05-16 12:39:40.099 -0400,10916.8885165,1.2803955078125,0.3770599365234375,-0.451812744140625,1,0.96
2020-05-16 12:39:40.169 -0400,10916.9583565,1.566131591796875,0.0991058349609375,-0.3532867431640625,1,0.96
2020-05-16 12:39:40.238 -0400,10917.0281985,0.9095458984375,0.2760162353515625,-0.15478515625,1,0.96
2020-05-16 12:39:40.309 -0400,10917.0980435,0.8940887451171875,0.3816070556640625,-0.088592529296875,1,0.96
2020-05-16 12:39:40.378 -0400,10917.1678845,0.90643310546875,0.3601531982421875,0.08441162109375,1,0.96
2020-05-16 12:39:40.448 -0400,10917.2377255,0.596343994140625,0.3371124267578125,0.0574188232421875,1,0.96
2020-05-16 12:39:40.518 -0400,10917.307567625,0.78216552734375,0.47479248046875,0.049591064453125,1,0.96
2020-05-16 12:39:40.588 -0400,10917.377407625,0.9412841796875,0.4828643798828125,0.075958251953125,1,0.96
2020-05-16 12:39:40.658 -0400,10917.447247625,1.028457641601562,0.51007080078125,0.07049560546875,1,0.96
2020-05-16 12:39:40.728 -0400,10917.517092625,1.08489990234375,0.5835113525390625,-0.031585693359375,1,0.96
2020-05-16 12:39:40.797 -0400,10917.586938625,1.061767578125,0.661773681640625,-0.1461944580078125,1,0.96
2020-05-16 12:39:40.867 -0400,10917.656783625,1.13385009765625,0.573028564453125,-0.2274627685546875,1,0.96
2020-05-16 12:39:40.937 -0400,10917.726628625,1.30517578125,0.734771728515625,-0.1943817138671875,1,0.96
2020-05-16 12:39:41.007 -0400,10917.796469625,0.9528350830078125,-0.0183563232421875,-0.420867919921875,1,0.96
2020-05-16 12:39:41.076 -0400,10917.866310625,0.9769439697265625,0.3858184814453125,-0.1624298095703125,1,0.96
2020-05-16 12:39:41.146 -0400,10917.936150625,0.89654541015625,0.3725433349609375,-0.1122589111328125,1,0.96
2020-05-16 12:39:41.216 -0400,10918.005993625,0.9469146728515625,0.322967529296875,-0.032684326171875,1,0.96
2020-05-16 12:39:41.286 -0400,10918.075838625,0.751953125,0.4130401611328125,-0.0079345703125,1,0.96
2020-05-16 12:39:41.356 -0400,10918.145682625,0.8275604248046875,0.5023345947265625,-0.1135711669921875,1,0.96
2020-05-16 12:39:41.426 -0400,10918.215523625,0.9370269775390625,0.49139404296875,-0.1295013427734375,1,0.96
2020-05-16 12:39:41.496 -0400,10918.285361625,0.8175201416015625,0.361541748046875,-0.1771392822265625,1,0.96
2020-05-16 12:39:41.565 -0400,10918.35520125,1.007659912109375,0.2528533935546875,-0.2469024658203125,1,0.96
2020-05-16 12:39:41.635 -0400,10918.42504025,0.93701171875,0.7916412353515625,-0.961639404296875,1,0.96
2020-05-16 12:39:41.705 -0400,10918.49488025,0.804962158203125,0.3409423828125,-0.5789794921875,1,0.96
2020-05-16 12:39:41.775 -0400,10918.56471925,0.9107818603515625,0.1380615234375,-0.2353668212890625,1,0.96
2020-05-16 12:39:41.845 -0400,10918.63455525,0.9556121826171875,0.2886810302734375,-0.0885162353515625,1,0.96
2020-05-16 12:39:41.915 -0400,10918.70439625,0.81781005859375,0.3401336669921875,-0.1286773681640625,1,0.96
2020-05-16 12:39:41.984 -0400,10918.77424025,0.8124237060546875,0.3941497802734375,-0.240814208984375,1,0.96
2020-05-16 12:39:42.054 -0400,10918.84408625,0.7517852783203125,0.3111724853515625,-0.3101806640625,1,0.96
2020-05-16 12:39:42.124 -0400,10918.91393525,0.6981201171875,0.3910675048828125,-0.436004638671875,1,0.96
2020-05-16 12:39:42.194 -0400,10918.98378025,0.697113037109375,0.2540435791015625,-0.605621337890625,1,0.96
2020-05-16 12:39:42.264 -0400,10919.05362925,1.142410278320312,0.930267333984375,-0.780609130859375,1,0.96
2020-05-16 12:39:42.334 -0400,10919.12347025,0.6947479248046875,0.3826751708984375,-0.237579345703125,1,0.96
2020-05-16 12:39:42.404 -0400,10919.19331325,0.8772125244140625,0.2975616455078125,-0.0873870849609375,1,0.96
2020-05-16 12:39:42.473 -0400,10919.26315025,1.000167846679688,0.491943359375,-0.1494598388671875,1,0.96
2020-05-16 12:39:42.543 -0400,10919.332992375,1.03521728515625,0.492401123046875,-0.0966339111328125,1,0.96
2020-05-16 12:39:42.613 -0400,10919.402834375,0.856201171875,0.428009033203125,-0.0336456298828125,1,0.96
2020-05-16 12:39:42.683 -0400,10919.472681375,0.7683563232421875,0.4269561767578125,-0.0350341796875,1,0.96
2020-05-16 12:39:42.753 -0400,10919.542526375,0.886688232421875,0.4914703369140625,-0.082672119140625,1,0.96
2020-05-16 12:39:42.823 -0400,10919.612370375,0.9190521240234375,0.4641571044921875,-0.1474609375,1,0.96
2020-05-16 12:39:42.893 -0400,10919.682212375,1.022613525390625,0.3495941162109375,-0.1659088134765625,1,0.96
2020-05-16 12:39:42.962 -0400,10919.752054375,0.8910064697265625,0.291839599609375,-0.2366790771484375,1,0.96
2020-05-16 12:39:43.032 -0400,10919.821894375,0.9037017822265625,0.29412841796875,-0.3356170654296875,1,0.96
2020-05-16 12:39:43.102 -0400,10919.891738375,0.8231658935546875,0.492828369140625,-0.488800048828125,1,0.96
2020-05-16 12:39:43.172 -0400,10919.961580375,0.7714996337890625,0.2999114990234375,-0.4401397705078125,1,0.96
2020-05-16 12:39:43.242 -0400,10920.031421375,0.59490966796875,0.4400634765625,-0.1784210205078125,1,0.96
2020-05-16 12:39:43.317 -0400,10920.101261375,0.5210723876953125,0.3556671142578125,0.01611328125,1,0.96
2020-05-16 12:39:43.382 -0400,10920.171102375,0.9926605224609375,0.5069427490234375,-0.1732330322265625,1,0.96
2020-05-16 12:39:43.451 -0400,10920.240945375,1.166366577148438,0.5619049072265625,-0.109222412109375,1,0.96
2020-05-16 12:39:43.521 -0400,10920.310787125,1.144729614257812,0.3375091552734375,-0.2753143310546875,1,0.96
2020-05-16 12:39:43.591 -0400,10920.380625125,1.155319213867188,0.4443817138671875,-0.3105926513671875,1,0.96
2020-05-16 12:39:43.661 -0400,10920.450469125,1.0523681640625,0.4476165771484375,-0.3350372314453125,1,0.96
2020-05-16 12:39:43.731 -0400,10920.520312125,0.9352874755859375,0.31268310546875,-0.3385009765625,1,0.96
2020-05-16 12:39:43.800 -0400,10920.590151125,0.8921966552734375,0.33697509765625,-0.269317626953125,1,0.96
2020-05-16 12:39:43.870 -0400,10920.659996125,0.91485595703125,0.3164825439453125,-0.2290496826171875,1,0.96
2020-05-16 12:39:43.940 -0400,10920.729842125,0.9327239990234375,0.34564208984375,-0.19122314453125,1,0.96
2020-05-16 12:39:44.010 -0400,10920.799686125,0.8121795654296875,0.3629913330078125,-0.1764678955078125,1,0.96
2020-05-16 12:39:44.080 -0400,10920.869529125,0.740203857421875,0.388946533203125,-0.1586456298828125,1,0.96
2020-05-16 12:39:44.150 -0400,10920.939368125,0.82373046875,0.372528076171875,-0.1574554443359375,1,0.96
2020-05-16 12:39:44.220 -0400,10921.009206125,0.889190673828125,0.3727569580078125,-0.15655517578125,1,0.96
2020-05-16 12:39:44.290 -0400,10921.079046125,1.122695922851562,0.3864288330078125,-0.1868896484375,1,0.96
2020-05-16 12:39:44.359 -0400,10921.148886125,0.84698486328125,0.3433074951171875,-0.1781005859375,1,0.96
2020-05-16 12:39:44.429 -0400,10921.218728125,0.7748260498046875,0.2929229736328125,-0.107818603515625,1,0.96
2020-05-16 12:39:44.499 -0400,10921.288569125,0.6509552001953125,0.31829833984375,-0.0406341552734375,1,0.96
2020-05-16 12:39:44.569 -0400,10921.35841129167,0.7577056884765625,0.3681182861328125,0.0711822509765625,1,0.96
2020-05-16 12:39:44.639 -0400,10921.42825329167,1.354995727539062,0.5437164306640625,0.247314453125,1,0.96
2020-05-16 12:39:44.708 -0400,10921.49809429167,1.184127807617188,0.6095733642578125,0.144317626953125,1,0.96
2020-05-16 12:39:44.778 -0400,10921.56793229167,0.96759033203125,0.497955322265625,0.0512237548828125,1,0.96
2020-05-16 12:39:44.848 -0400,10921.63777029167,1.115997314453125,0.6410675048828125,-0.010650634765625,1,0.96
2020-05-16 12:39:44.918 -0400,10921.70760929167,1.175613403320312,0.4909820556640625,-0.1030731201171875,1,0.96
2020-05-16 12:39:44.988 -0400,10921.77744729167,1.183364868164062,0.404144287109375,-0.163177490234375,1,0.96
2020-05-16 12:39:45.064 -0400,10921.84729029167,1.148452758789062,0.382232666015625,-0.141082763671875,1,0.96
2020-05-16 12:39:45.127 -0400,10921.91712829167,1.020278930664062,-0.3544769287109375,-0.261138916015625,1,0.96
2020-05-16 12:39:45.197 -0400,10921.98696729167,0.66705322265625,0.2500762939453125,-0.0500640869140625,1,0.96
2020-05-16 12:39:45.267 -0400,10922.05680729167,0.528961181640625,0.3600921630859375,0.0343475341796875,1,0.96
2020-05-16 12:39:45.337 -0400,10922.12665029167,0.989349365234375,0.328338623046875,0.0536956787109375,1,0.96
2020-05-16 12:39:45.407 -0400,10922.19649129167,0.8870697021484375,0.3420562744140625,-0.0615997314453125,1,0.96
2020-05-16 12:39:45.477 -0400,10922.26633229167,1.176132202148438,0.33135986328125,-0.4167633056640625,1,0.96
2020-05-16 12:39:45.547 -0400,10922.336177625,0.7863311767578125,-0.0726318359375,-0.2486114501953125,1,0.96
2020-05-16 12:39:45.616 -0400,10922.406018625,0.797119140625,0.1199188232421875,-0.3180389404296875,1,0.96
2020-05-16 12:39:45.686 -0400,10922.475859625,0.812469482421875,0.2185211181640625,-0.315277099609375,1,0.96
2020-05-16 12:39:45.756 -0400,10922.545699625,0.935150146484375,0.239898681640625,-0.2229156494140625,1,0.96
2020-05-16 12:39:45.826 -0400,10922.615539625,0.9415130615234375,0.31195068359375,-0.25506591796875,1,0.96
2020-05-16 12:39:45.896 -0400,10922.685377625,0.727264404296875,0.285003662109375,-0.3310089111328125,1,0.96
2020-05-16 12:39:45.966 -0400,10922.755213625,0.8834381103515625,0.38629150390625,-0.323638916015625,1,0.96
2020-05-16 12:39:46.035 -0400,10922.825049625,0.9003753662109375,0.4379730224609375,-0.1775054931640625,1,0.96
2020-05-16 12:39:46.105 -0400,10922.894884625,0.95318603515625,0.5161285400390625,-0.2610626220703125,1,0.96
2020-05-16 12:39:46.175 -0400,10922.964723625,0.835601806640625,0.6217803955078125,-0.179595947265625,1,0.96
2020-05-16 12:39:46.245 -0400,10923.034563625,1.070770263671875,0.673919677734375,-0.0548858642578125,1,0.96
2020-05-16 12:39:46.315 -0400,10923.104405625,0.958984375,0.631561279296875,-0.064788818359375,1,0.96
2020-05-16 12:39:46.384 -0400,10923.174244625,1.0255126953125,0.759246826171875,-0.0648345947265625,1,0.96
2020-05-16 12:39:46.454 -0400,10923.244084625,1.055557250976562,1.125015258789062,-0.256744384765625,1,0.96
2020-05-16 12:39:46.524 -0400,10923.31392554167,1.013641357421875,1.462539672851562,-0.1541595458984375,1,0.96
2020-05-16 12:39:46.594 -0400,10923.38376554167,1.141769409179688,1.017303466796875,-0.2271575927734375,1,0.96
2020-05-16 12:39:46.664 -0400,10923.45360454167,1.524276733398438,0.1243743896484375,0.13922119140625,1,0.96
2020-05-16 12:39:46.734 -0400,10923.52344254167,1.644699096679688,-0.31329345703125,-0.0868072509765625,1,0.96
2020-05-16 12:39:46.804 -0400,10923.59327654167,0.92236328125,0.0396728515625,0.01165771484375,1,0.96
2020-05-16 12:39:46.873 -0400,10923.66311354167,2.10467529296875,1.255569458007812,-0.2801055908203125,1,0.96
2020-05-16 12:39:46.943 -0400,10923.73295154167,1.931427001953125,0.9885101318359375,-0.3560943603515625,1,0.96
2020-05-16 12:39:47.013 -0400,10923.80278854167,0.93426513671875,0.8130340576171875,-0.363494873046875,1,0.96
2020-05-16 12:39:47.083 -0400,10923.87262754167,0.3356781005859375,0.7303009033203125,-0.440582275390625,1,0.96
2020-05-16 12:39:47.153 -0400,10923.94247154167,0.23114013671875,0.7212371826171875,-0.39691162109375,1,0.96
2020-05-16 12:39:47.223 -0400,10924.01231454167,0.437652587890625,0.506622314453125,-0.3157806396484375,1,0.96
2020-05-16 12:39:47.293 -0400,10924.08215754167,0.899871826171875,0.79058837890625,-0.446990966796875,1,0.96
2020-05-16 12:39:47.362 -0400,10924.15199954167,2.2169189453125,1.148345947265625,-0.608062744140625,1,0.96
2020-05-16 12:39:47.432 -0400,10924.22183854167,1.60205078125,0.700714111328125,-0.4362945556640625,1,0.96
2020-05-16 12:39:47.502 -0400,10924.29167854167,1.555374145507812,0.3962554931640625,-0.054656982421875,1,0.96
2020-05-16 12:39:47.572 -0400,10924.36151525,1.294525146484375,0.38787841796875,0.2261810302734375,1,0.96
2020-05-16 12:39:47.642 -0400,10924.43135625,1.274658203125,0.3399200439453125,0.259613037109375,1,0.96
2020-05-16 12:39:47.711 -0400,10924.50119725,1.251358032226562,0.423126220703125,0.190673828125,1,0.96
2020-05-16 12:39:47.781 -0400,10924.57103525,0.84942626953125,0.4445953369140625,0.0899658203125,1,0.96
2020-05-16 12:39:47.851 -0400,10924.64087325,0.4489593505859375,0.4268035888671875,-0.1832122802734375,1,0.96
2020-05-16 12:39:47.921 -0400,10924.71071225,0.030487060546875,0.3904266357421875,-0.610076904296875,1,0.96
2020-05-16 12:39:47.991 -0400,10924.78055325,0.0399932861328125,0.0783233642578125,-0.81573486328125,1,0.96
2020-05-16 12:39:48.061 -0400,10924.85039425,0.4259796142578125,0.9205322265625,-1.094375610351562,1,0.96
2020-05-16 12:39:48.131 -0400,10924.92023425,1.017547607421875,1.447372436523438,-0.74407958984375,1,0.96
2020-05-16 12:39:48.200 -0400,10924.99007425,1.306732177734375,1.099365234375,-0.45404052734375,1,0.96
2020-05-16 12:39:48.270 -0400,10925.05991025,0.3026885986328125,0.6345367431640625,-0.2126007080078125,1,0.96
2020-05-16 12:39:48.340 -0400,10925.12974625,0.1224212646484375,0.2332305908203125,-0.129638671875,1,0.96
2020-05-16 12:39:48.410 -0400,10925.19958225,1.151870727539062,0.1382598876953125,0.094635009765625,1,0.96
2020-05-16 12:39:48.480 -0400,10925.26942025,1.622528076171875,0.2374267578125,0.13421630859375,1,0.96
2020-05-16 12:39:48.550 -0400,10925.339259,1.293716430664062,0.277984619140625,0.0040740966796875,1,0.96
2020-05-16 12:39:48.619 -0400,10925.409098,0.8081817626953125,0.487457275390625,-0.304931640625,1,0.96
2020-05-16 12:39:48.689 -0400,10925.478934,0.5291595458984375,0.4952850341796875,-0.359130859375,1,0.96
2020-05-16 12:39:48.759 -0400,10925.54877,0.6193084716796875,0.285736083984375,-0.1969451904296875,1,0.96
2020-05-16 12:39:48.829 -0400,10925.618609,1.095489501953125,0.41876220703125,-0.2176361083984375,1,0.96
2020-05-16 12:39:48.899 -0400,10925.688451,1.228225708007812,0.6830902099609375,-0.4447174072265625,1,0.96
2020-05-16 12:39:48.969 -0400,10925.75829,1.143600463867188,0.6770477294921875,-0.431488037109375,1,0.96
2020-05-16 12:39:49.038 -0400,10925.82813,1.4954833984375,0.704681396484375,-0.6260223388671875,1,0.96
2020-05-16 12:39:49.108 -0400,10925.897968,2.059463500976562,0.1844635009765625,0.0509490966796875,1,0.96
2020-05-16 12:39:49.178 -0400,10925.967811,2.022308349609375,0.069427490234375,-0.2020721435546875,1,0.96
2020-05-16 12:39:49.255 -0400,10926.037651,1.064254760742188,0.4722747802734375,-0.0304412841796875,1,0.96
2020-05-16 12:39:49.318 -0400,10926.10749,0.4642333984375,0.2309722900390625,0.1717376708984375,1,0.96
2020-05-16 12:39:49.388 -0400,10926.177333,0.3399810791015625,0.182830810546875,0.1527557373046875,1,0.96
2020-05-16 12:39:49.458 -0400,10926.247177,0.387603759765625,0.2350616455078125,0.1083831787109375,1,0.96
2020-05-16 12:39:49.527 -0400,10926.31701975,1.047271728515625,0.3983612060546875,-0.0333709716796875,1,0.96
2020-05-16 12:39:49.597 -0400,10926.38685875,1.425399780273438,0.18060302734375,-0.0149383544921875,1,0.96
2020-05-16 12:39:49.667 -0400,10926.45669675,1.525375366210938,0.180755615234375,-0.0964202880859375,1,0.96
2020-05-16 12:39:49.737 -0400,10926.52653075,1.945968627929688,0.5535430908203125,-0.3406524658203125,1,0.96
2020-05-16 12:39:49.807 -0400,10926.59636375,1.545120239257812,0.7091064453125,-0.3944091796875,1,0.96
2020-05-16 12:39:49.877 -0400,10926.66619775,0.825469970703125,0.38275146484375,-0.53875732421875,1,0.96
2020-05-16 12:39:49.946 -0400,10926.73603275,0.4737396240234375,0.121734619140625,-0.2690887451171875,1,0.96
2020-05-16 12:39:50.016 -0400,10926.80586975,0.2975921630859375,0.4370574951171875,-0.1962890625,1,0.96
2020-05-16 12:39:50.086 -0400,10926.87570775,0.7549591064453125,0.84796142578125,-0.4063262939453125,1,0.96
2020-05-16 12:39:50.156 -0400,10926.94554675,1.415756225585938,0.73529052734375,-0.50238037109375,1,0.96
2020-05-16 12:39:50.226 -0400,10927.01539075,1.645919799804688,0.122955322265625,-0.359405517578125,1,0.96
2020-05-16 12:39:50.296 -0400,10927.08523375,1.736373901367188,0.5728912353515625,-0.3521575927734375,1,0.96
2020-05-16 12:39:50.365 -0400,10927.15507475,1.749923706054688,0.3539886474609375,-0.1685638427734375,1,0.96
2020-05-16 12:39:50.435 -0400,10927.22491275,1.589920043945312,0.3065338134765625,-0.097930908203125,1,0.96
2020-05-16 12:39:50.505 -0400,10927.29474975,0.9070587158203125,0.246246337890625,0.026641845703125,1,0.96
2020-05-16 12:39:50.575 -0400,10927.36459141667,0.3912353515625,0.2334747314453125,0.0624847412109375,1,0.96
2020-05-16 12:39:50.645 -0400,10927.43443341667,0.2608184814453125,0.217193603515625,0.10589599609375,1,0.96
2020-05-16 12:39:50.715 -0400,10927.50427441667,0.33148193359375,0.1828765869140625,0.117767333984375,1,0.96
2020-05-16 12:39:50.784 -0400,10927.57411341667,0.75433349609375,0.3058013916015625,0.021209716796875,1,0.96
2020-05-16 12:39:50.854 -0400,10927.64395341667,1.486892700195312,0.3608551025390625,-0.071533203125,1,0.96
2020-05-16 12:39:50.924 -0400,10927.71379141667,1.952667236328125,0.3610992431640625,-0.13909912109375,1,0.96
2020-05-16 12:39:50.994 -0400,10927.78363441667,1.735549926757812,0.684600830078125,-0.5527801513671875,1,0.96
2020-05-16 12:39:51.064 -0400,10927.85347741667,1.188095092773438,0.25689697265625,-0.4284820556640625,1,0.96
2020-05-16 12:39:51.134 -0400,10927.92332041667,0.9759979248046875,0.06640625,-0.322052001953125,1,0.96
2020-05-16 12:39:51.204 -0400,10927.99316241667,0.5943756103515625,0.0504913330078125,-0.4165191650390625,1,0.96
2020-05-16 12:39:51.273 -0400,10928.06300041667,0.374267578125,0.117462158203125,-0.2881317138671875,1,0.96
2020-05-16 12:39:51.343 -0400,10928.13283941667,0.3434295654296875,0.1163787841796875,-0.1523895263671875,1,0.96
2020-05-16 12:39:51.413 -0400,10928.20267841667,0.5660552978515625,0.605133056640625,-0.1432342529296875,1,0.96
2020-05-16 12:39:51.483 -0400,10928.27251541667,1.419647216796875,1.126800537109375,-0.1824951171875,1,0.96
2020-05-16 12:39:51.553 -0400,10928.342351375,1.925506591796875,1.002059936523438,-0.50726318359375,1,0.96
2020-05-16 12:39:51.622 -0400,10928.412187375,1.535415649414062,0.61376953125,-0.3030853271484375,1,0.96
2020-05-16 12:39:51.692 -0400,10928.482022375,0.9488983154296875,0.362945556640625,-0.3469390869140625,1,0.96
2020-05-16 12:39:51.762 -0400,10928.551862375,0.6127777099609375,0.2795562744140625,-0.3161163330078125,1,0.96
2020-05-16 12:39:51.832 -0400,10928.621703375,0.4002685546875,0.2205810546875,-0.248443603515625,1,0.96
2020-05-16 12:39:51.902 -0400,10928.691542375,0.2559967041015625,0.1822509765625,-0.304290771484375,1,0.96
2020-05-16 12:39:51.972 -0400,10928.761382375,0.2051239013671875,0.0577545166015625,-0.5806121826171875,1,0.96
2020-05-16 12:39:52.042 -0400,10928.831218375,0.31005859375,0.0803375244140625,-0.9550323486328125,1,0.96
2020-05-16 12:39:52.111 -0400,10928.901054375,0.2775726318359375,0.0378570556640625,-1.249435424804688,1,0.96
2020-05-16 12:39:52.181 -0400,10928.970889375,0.4416961669921875,0.1199188232421875,-1.215530395507812,1,0.96
2020-05-16 12:39:52.251 -0400,10929.040727375,0.26861572265625,0.1160888671875,-1.110488891601562,1,0.96
2020-05-16 12:39:52.371 -0400,10929.160452375,0.1595611572265625,0.0303497314453125,-0.7230224609375,1,0.96
2020-05-16 12:39:52.491 -0400,10929.280176375,0.0003204345703125,-0.01068115234375,-0.6209259033203125,1,0.96
2020-05-16 12:39:52.610 -0400,10929.399902,0.2372589111328125,0.2476806640625,-0.9805755615234375,1,0.96
2020-05-16 12:39:52.730 -0400,10929.519629,0.3286895751953125,0.5613555908203125,-1.169570922851562,1,0.96
2020-05-16 12:39:52.850 -0400,10929.639354,0.2640838623046875,0.5271453857421875,-1.068679809570312,1,0.96
2020-05-16 12:39:52.969 -0400,10929.759081,0.243621826171875,0.400421142578125,-0.88543701171875,1,0.96
2020-05-16 12:39:53.089 -0400,10929.87881,0.325439453125,0.5206451416015625,-0.6045989990234375,1,0.96
2020-05-16 12:39:53.209 -0400,10929.998542,0.478790283203125,0.422882080078125,-0.577850341796875,1,0.96
2020-05-16 12:39:53.329 -0400,10930.118278,1.396209716796875,0.277130126953125,-0.11517333984375,1,0.96
2020-05-16 12:39:53.448 -0400,10930.238014,1.307525634765625,0.763763427734375,-0.67218017578125,1,0.96
2020-05-16 12:39:53.568 -0400,10930.35775375,0.6358642578125,0.2125091552734375,-0.101318359375,1,0.96
2020-05-16 12:39:53.728 -0400,10930.51740475,0.6118011474609375,0.5364990234375,-0.149627685546875,1,0.96
2020-05-16 12:39:53.806 -0400,10930.58725475,0.9469451904296875,0.623931884765625,-0.4493865966796875,1,0.96
2020-05-16 12:39:53.868 -0400,10930.65710175,0.9531097412109375,0.47808837890625,-0.8269805908203125,1,0.96
2020-05-16 12:39:53.937 -0400,10930.72694975,1.649261474609375,0.4560699462890625,-0.7496795654296875,1,0.96
2020-05-16 12:39:54.007 -0400,10930.79679675,1.019989013671875,0.0541839599609375,-0.3692474365234375,1,0.96
2020-05-16 12:39:54.077 -0400,10930.86664675,1.566864013671875,0.1951751708984375,-0.310577392578125,1,0.96
2020-05-16 12:39:54.147 -0400,10930.93649575,1.169845581054688,0.4329681396484375,0.0347442626953125,1,0.96
2020-05-16 12:39:54.217 -0400,10931.00634475,0.795379638671875,0.35052490234375,0.0972900390625,1,0.96
2020-05-16 12:39:54.287 -0400,10931.07619075,0.7833404541015625,0.3068695068359375,0.1001434326171875,1,0.96
2020-05-16 12:39:54.357 -0400,10931.14603975,1.176513671875,0.372344970703125,0.1463775634765625,1,0.96
2020-05-16 12:39:54.427 -0400,10931.21588975,1.491867065429688,0.2749481201171875,0.1081085205078125,1,0.96
2020-05-16 12:39:54.496 -0400,10931.28573875,0.8278656005859375,0.2370758056640625,0.01708984375,1,0.96
2020-05-16 12:39:54.566 -0400,10931.3555855,0.769866943359375,0.4199981689453125,-0.5511627197265625,1,0.96
2020-05-16 12:39:54.636 -0400,10931.4254345,1.31201171875,0.286102294921875,-0.346466064453125,1,0.96
2020-05-16 12:39:54.706 -0400,10931.4952825,1.063232421875,0.42864990234375,-0.5682220458984375,1,0.96
2020-05-16 12:39:54.775 -0400,10931.5651315,0.8264007568359375,0.6286773681640625,-0.23345947265625,1,0.96
2020-05-16 12:39:54.845 -0400,10931.6349765,0.6921234130859375,0.5707244873046875,-0.1844635009765625,1,0.96
2020-05-16 12:39:54.915 -0400,10931.7048205,0.88665771484375,0.6810760498046875,-0.1984405517578125,1,0.96
2020-05-16 12:39:54.985 -0400,10931.7746685,0.9274444580078125,0.9206695556640625,-0.20489501953125,1,0.96
2020-05-16 12:39:55.055 -0400,10931.8445155,1.389801025390625,0.955230712890625,-0.3365478515625,1,0.96
2020-05-16 12:39:55.125 -0400,10931.9143625,2.296875,0.3378143310546875,0.076812744140625,1,0.96
2020-05-16 12:39:55.195 -0400,10931.9842095,2.373504638671875,0.1434173583984375,0.03900146484375,1,0.96
2020-05-16 12:39:55.265 -0400,10932.0540525,1.446151733398438,0.535614013671875,-0.0362396240234375,1,0.96
2020-05-16 12:39:55.334 -0400,10932.1238955,0.69598388671875,0.2183837890625,0.1505584716796875,1,0.96
2020-05-16 12:39:55.404 -0400,10932.1937395,0.4068145751953125,0.15130615234375,0.179718017578125,1,0.96
2020-05-16 12:39:55.474 -0400,10932.2635865,0.5135040283203125,0.20465087890625,0.1385345458984375,1,0.96
2020-05-16 12:39:55.544 -0400,10932.33343516667,0.84820556640625,0.29205322265625,0.08038330078125,1,0.96
2020-05-16 12:39:55.613 -0400,10932.40327916667,1.179031372070312,0.3006439208984375,0.0243072509765625,1,0.96
2020-05-16 12:39:55.683 -0400,10932.47312116667,1.713027954101562,0.4633941650390625,-0.115875244140625,1,0.96
2020-05-16 12:39:55.753 -0400,10932.54296416667,1.515274047851562,0.61492919921875,-0.61065673828125,1,0.96
2020-05-16 12:39:55.823 -0400,10932.61280716667,1.352386474609375,0.4824066162109375,-0.5208282470703125,1,0.96
2020-05-16 12:39:55.893 -0400,10932.68265016667,0.9698333740234375,0.08935546875,-0.740447998046875,1,0.96
2020-05-16 12:39:55.963 -0400,10932.75249616667,0.4515380859375,0.4356231689453125,-0.770172119140625,1,0.96
