loggingTime(txt),accelerometerTimestamp_sinceReboot(s),accelerometerAccelerationX(G),accelerometerAccelerationY(G),accelerometerAccelerationZ(G),batteryState,batteryLevel
2020-05-16 12:19:48.628 -0400,9835.283156791667,-0.01251220703125,0.0404205322265625,-0.9254608154296875,1,0.98
2020-05-16 12:19:48.749 -0400,9835.402895791667,0.1666412353515625,0.10345458984375,-1.053298950195312,1,0.98
2020-05-16 12:19:48.868 -0400,9835.522625791667,0.354278564453125,0.2963714599609375,-1.150970458984375,1,0.98
2020-05-16 12:19:48.988 -0400,9835.642354791667,0.658050537109375,0.1539154052734375,-0.53289794921875,1,0.98
2020-05-16 12:19:49.108 -0400,9835.762076791667,0.6859588623046875,0.18621826171875,-0.2728729248046875,1,0.98
2020-05-16 12:19:49.228 -0400,9835.881803791668,0.937164306640625,0.5489654541015625,-0.1490020751953125,1,0.98
2020-05-16 12:19:49.347 -0400,9836.001530791667,1.303421020507812,0.836700439453125,-0.15631103515625,1,0.98
2020-05-16 12:19:49.467 -0400,9836.121262791667,1.273330688476562,0.7987823486328125,-0.3821563720703125,1,0.98
2020-05-16 12:19:49.587 -0400,9836.241001375001,1.1414794921875,0.6131134033203125,-0.316009521484375,1,0.98
2020-05-16 12:19:49.706 -0400,9836.360740375001,1.069244384765625,0.309356689453125,-0.1556549072265625,1,0.98
2020-05-16 12:19:49.826 -0400,9836.480480375001,0.7360076904296875,0.386444091796875,-0.0428619384765625,1,0.98
2020-05-16 12:19:49.946 -0400,9836.600221375,0.710479736328125,0.2397308349609375,0.0410003662109375,1,0.98
2020-05-16 12:19:50.066 -0400,9836.719964375001,1.131362915039062,0.4075469970703125,-0.1368408203125,1,0.98
2020-05-16 12:19:50.185 -0400,9836.839702375,1.122238159179688,0.32379150390625,-0.588104248046875,1,0.98
2020-05-16 12:19:50.305 -0400,9836.959445375001,0.851165771484375,0.3459014892578125,-0.420135498046875,1,0.98
2020-05-16 12:19:50.425 -0400,9837.079189375001,0.5959014892578125,0.6326904296875,-0.274627685546875,1,0.98
2020-05-16 12:19:50.544 -0400,9837.198931416668,0.946533203125,0.5601959228515625,-0.4089813232421875,1,0.98
2020-05-16 12:19:50.664 -0400,9837.318669416667,1.500350952148438,0.469573974609375,-0.4128875732421875,1,0.98
2020-05-16 12:19:50.784 -0400,9837.438407416666,1.110260009765625,0.4833221435546875,-0.2025146484375,1,0.98
2020-05-16 12:19:50.904 -0400,9837.558140416668,0.82965087890625,0.255828857421875,-0.0576629638671875,1,0.98
2020-05-16 12:19:51.025 -0400,9837.677875416668,0.5891571044921875,0.3220367431640625,-0.0216522216796875,1,0.98
2020-05-16 12:19:51.143 -0400,9837.797617416667,0.726348876953125,0.2714996337890625,-0.0809173583984375,1,0.98
2020-05-16 12:19:51.263 -0400,9837.917356416667,1.391143798828125,0.5059661865234375,-0.3758392333984375,1,0.98
2020-05-16 12:19:51.383 -0400,9838.037093416668,1.195526123046875,0.2164459228515625,-0.3867645263671875,1,0.98
2020-05-16 12:19:51.513 -0400,9838.156828916668,0.660125732421875,0.49420166015625,-0.3005828857421875,1,0.98
2020-05-16 12:19:51.622 -0400,9838.276562916668,0.6146392822265625,0.4407501220703125,-0.203277587890625,1,0.98
2020-05-16 12:19:51.742 -0400,9838.396298916667,0.86480712890625,0.5358428955078125,-0.2799530029296875,1,0.98
2020-05-16 12:19:51.861 -0400,9838.516031916668,1.347320556640625,0.5384063720703125,-0.457733154296875,1,0.98
2020-05-16 12:19:51.981 -0400,9838.635769916667,1.347763061523438,0.3063812255859375,-0.186798095703125,1,0.98
2020-05-16 12:19:52.101 -0400,9838.755503916667,0.627655029296875,0.3028717041015625,-0.1607513427734375,1,0.98
2020-05-16 12:19:52.221 -0400,9838.875234916668,0.5396575927734375,0.3044281005859375,-0.0425262451171875,1,0.98
2020-05-16 12:19:52.340 -0400,9838.994970916667,0.838348388671875,0.237823486328125,-0.1005401611328125,1,0.98
2020-05-16 12:19:52.460 -0400,9839.114700916667,1.164260864257812,0.4646759033203125,-0.352325439453125,1,0.98
2020-05-16 12:19:52.580 -0400,9839.234434375001,1.178451538085938,0.3682403564453125,-0.2599945068359375,1,0.98
2020-05-16 12:19:52.699 -0400,9839.354173375001,0.57720947265625,0.5706787109375,-0.231597900390625,1,0.98
2020-05-16 12:19:52.819 -0400,9839.473914375001,0.7608489990234375,0.653961181640625,-0.4566650390625,1,0.98
2020-05-16 12:19:52.939 -0400,9839.593651375,1.347610473632812,0.377227783203125,-0.3866729736328125,1,0.98
2020-05-16 12:19:53.059 -0400,9839.713392375001,1.461257934570312,0.325927734375,-0.278350830078125,1,0.98
2020-05-16 12:19:53.179 -0400,9839.833132375001,0.7767486572265625,0.3802947998046875,-0.2051544189453125,1,0.98
2020-05-16 12:19:53.298 -0400,9839.952872375001,0.481475830078125,0.288848876953125,-0.062713623046875,1,0.98
2020-05-16 12:19:53.418 -0400,9840.072610375,0.7887115478515625,0.238067626953125,-0.0747833251953125,1,0.98
2020-05-16 12:19:53.538 -0400,9840.192351291667,1.306488037109375,0.39385986328125,-0.237579345703125,1,0.98
2020-05-16 12:19:53.658 -0400,9840.312087291668,1.411911010742188,0.498565673828125,-0.5762786865234375,1,0.98
2020-05-16 12:19:53.777 -0400,9840.431830291667,0.6561126708984375,0.1978607177734375,-0.20751953125,1,0.98
2020-05-16 12:19:53.897 -0400,9840.551573291667,0.5233306884765625,0.6463165283203125,-0.1681365966796875,1,0.98
2020-05-16 12:19:54.023 -0400,9840.671316291668,1.193878173828125,0.66497802734375,-0.460784912109375,1,0.98
2020-05-16 12:19:54.136 -0400,9840.791060291667,1.013168334960938,0.2750701904296875,-0.3855133056640625,1,0.98
2020-05-16 12:19:54.256 -0400,9840.910804291667,1.234176635742188,0.4965667724609375,-0.3298797607421875,1,0.98
2020-05-16 12:19:54.376 -0400,9841.030544291667,0.755828857421875,0.313690185546875,-0.1494293212890625,1,0.98
2020-05-16 12:19:54.512 -0400,9841.15028175,0.69537353515625,0.2840576171875,-0.12158203125,1,0.98
2020-05-16 12:19:54.616 -0400,9841.27002475,0.8867340087890625,0.2484283447265625,-0.1353759765625,1,0.98
2020-05-16 12:19:54.735 -0400,9841.38976675,1.151824951171875,0.519073486328125,-0.337738037109375,1,0.98
2020-05-16 12:19:54.855 -0400,9841.509508750001,1.234970092773438,0.40447998046875,-0.3444366455078125,1,0.98
2020-05-16 12:19:54.974 -0400,9841.629259750001,0.5706634521484375,0.41046142578125,-0.255767822265625,1,0.98
2020-05-16 12:19:55.094 -0400,9841.748997750001,0.64373779296875,0.4877471923828125,-0.3135986328125,1,0.98
2020-05-16 12:19:55.214 -0400,9841.868736750001,1.261459350585938,0.5615081787109375,-0.3242034912109375,1,0.98
2020-05-16 12:19:55.334 -0400,9841.98847475,1.247756958007812,0.3740081787109375,-0.261962890625,1,0.98
2020-05-16 12:19:55.453 -0400,9842.10821375,0.8563995361328125,0.3206329345703125,-0.2215423583984375,1,0.98
2020-05-16 12:19:55.573 -0400,9842.227956291666,0.5821685791015625,0.32073974609375,-0.0519561767578125,1,0.98
2020-05-16 12:19:55.693 -0400,9842.347701291666,0.869873046875,0.25152587890625,-0.0486297607421875,1,0.98
2020-05-16 12:19:55.813 -0400,9842.467442291667,1.194320678710938,0.4557952880859375,-0.161529541015625,1,0.98
2020-05-16 12:19:55.932 -0400,9842.587182291667,1.196243286132812,0.4215087890625,-0.364105224609375,1,0.98
2020-05-16 12:19:56.052 -0400,9842.706921291667,0.5689544677734375,0.28240966796875,-0.3193817138671875,1,0.98
2020-05-16 12:19:56.172 -0400,9842.826664291668,0.6788330078125,0.4662322998046875,-0.2643890380859375,1,0.98
2020-05-16 12:19:56.292 -0400,9842.946406291667,1.057037353515625,0.49700927734375,-0.46160888671875,1,0.98
2020-05-16 12:19:56.411 -0400,9843.066149291668,1.395172119140625,0.3824462890625,-0.4010467529296875,1,0.98
2020-05-16 12:19:56.532 -0400,9843.185891166668,1.081207275390625,0.4241943359375,-0.2096710205078125,1,0.98
2020-05-16 12:19:56.651 -0400,9843.305629166667,0.7020263671875,0.335845947265625,-0.1799468994140625,1,0.98
2020-05-16 12:19:56.770 -0400,9843.425377166668,0.712005615234375,0.33111572265625,-0.08502197265625,1,0.98
2020-05-16 12:19:56.890 -0400,9843.545124166667,0.929168701171875,0.323638916015625,-0.18560791015625,1,0.98
2020-05-16 12:19:57.011 -0400,9843.664874166667,1.38330078125,0.4306640625,-0.238800048828125,1,0.98
2020-05-16 12:19:57.130 -0400,9843.784622166668,1.141860961914062,0.294342041015625,-0.2540130615234375,1,0.98
2020-05-16 12:19:57.249 -0400,9843.904364166667,0.6196441650390625,0.36602783203125,-0.2680206298828125,1,0.98
2020-05-16 12:19:57.369 -0400,9844.024106166667,0.68701171875,0.42388916015625,-0.198577880859375,1,0.98
2020-05-16 12:19:57.489 -0400,9844.143844416667,1.011642456054688,0.4236602783203125,-0.29071044921875,1,0.98
2020-05-16 12:19:57.609 -0400,9844.263579416667,1.263763427734375,0.3973541259765625,-0.2744903564453125,1,0.98
2020-05-16 12:19:57.728 -0400,9844.383325416668,1.179031372070312,0.399200439453125,-0.27606201171875,1,0.98
2020-05-16 12:19:57.848 -0400,9844.503070416667,0.9077911376953125,0.23486328125,-0.1793670654296875,1,0.98
2020-05-16 12:19:57.968 -0400,9844.622818416667,0.4375457763671875,0.3420257568359375,-0.10546875,1,0.98
2020-05-16 12:19:58.088 -0400,9844.742564416667,0.7209014892578125,0.258453369140625,-0.0812225341796875,1,0.98
2020-05-16 12:19:58.208 -0400,9844.862308416667,1.1240234375,0.37506103515625,-0.12908935546875,1,0.98
2020-05-16 12:19:58.328 -0400,9844.982055416667,1.206268310546875,0.565521240234375,-0.39361572265625,1,0.98
2020-05-16 12:19:58.447 -0400,9845.101801416668,1.02734375,0.160980224609375,-0.25732421875,1,0.98
2020-05-16 12:19:58.567 -0400,9845.221547541667,0.5395660400390625,0.3889617919921875,-0.3089752197265625,1,0.98
2020-05-16 12:19:58.687 -0400,9845.341298541667,0.641571044921875,0.3556365966796875,-0.262054443359375,1,0.98
2020-05-16 12:19:58.807 -0400,9845.461042541667,0.9160003662109375,0.2761077880859375,-0.4252777099609375,1,0.98
2020-05-16 12:19:58.926 -0400,9845.580788541667,1.372833251953125,0.415069580078125,-0.3538055419921875,1,0.98
2020-05-16 12:19:59.046 -0400,9845.700532541667,1.02276611328125,0.3742828369140625,-0.3566741943359375,1,0.98
2020-05-16 12:19:59.165 -0400,9845.820280541668,0.9622039794921875,0.2625732421875,-0.1147308349609375,1,0.98
2020-05-16 12:19:59.285 -0400,9845.940030541668,0.534423828125,0.384429931640625,-0.0695648193359375,1,0.98
2020-05-16 12:19:59.405 -0400,9846.059783541667,0.6268463134765625,0.2722930908203125,-0.09417724609375,1,0.98
2020-05-16 12:19:59.525 -0400,9846.179533875,1.415924072265625,0.3256988525390625,-0.189666748046875,1,0.98
2020-05-16 12:19:59.645 -0400,9846.299290875,1.05419921875,0.5279693603515625,-0.4987945556640625,1,0.98
2020-05-16 12:19:59.764 -0400,9846.419046875,0.978515625,0.254486083984375,-0.259857177734375,1,0.98
2020-05-16 12:19:59.884 -0400,9846.538802875,0.5157318115234375,0.420135498046875,-0.173919677734375,1,0.98
2020-05-16 12:20:00.011 -0400,9846.658572875001,0.608184814453125,0.3884429931640625,-0.136322021484375,1,0.98
2020-05-16 12:20:00.124 -0400,9846.778340875,0.923370361328125,0.3884735107421875,-0.341064453125,1,0.98
2020-05-16 12:20:00.243 -0400,9846.898100875,1.43280029296875,0.375274658203125,-0.31744384765625,1,0.98
2020-05-16 12:20:00.363 -0400,9847.017855875001,1.060256958007812,0.5303955078125,-0.2999420166015625,1,0.98
2020-05-16 12:20:00.483 -0400,9847.137620666666,0.9950714111328125,0.262969970703125,-0.07684326171875,1,0.98
2020-05-16 12:20:00.603 -0400,9847.257387666667,0.667999267578125,0.40667724609375,-0.0369720458984375,1,0.98
2020-05-16 12:20:00.722 -0400,9847.377151666667,0.804412841796875,0.2947998046875,-0.0062408447265625,1,0.98
2020-05-16 12:20:00.842 -0400,9847.496911666667,1.14654541015625,0.3394622802734375,-0.1006317138671875,1,0.98
2020-05-16 12:20:00.962 -0400,9847.616676666667,1.095870971679688,0.3925933837890625,-0.2759246826171875,1,0.98
2020-05-16 12:20:01.082 -0400,9847.736437666666,0.99017333984375,0.2667999267578125,-0.393402099609375,1,0.98
2020-05-16 12:20:01.201 -0400,9847.856200666667,0.656097412109375,0.272491455078125,-0.3649444580078125,1,0.98
2020-05-16 12:20:01.321 -0400,9847.975955666667,0.4335479736328125,0.4024810791015625,-0.2298126220703125,1,0.98
2020-05-16 12:20:01.441 -0400,9848.095709666668,0.849090576171875,0.2641448974609375,-0.3448028564453125,1,0.98
2020-05-16 12:20:01.561 -0400,9848.215464791667,1.39837646484375,0.4596710205078125,-0.3474578857421875,1,0.98
2020-05-16 12:20:01.680 -0400,9848.335225791667,1.0849609375,0.4171142578125,-0.31072998046875,1,0.98
2020-05-16 12:20:01.800 -0400,9848.454981791667,1.136459350585938,0.3067626953125,-0.1255035400390625,1,0.98
2020-05-16 12:20:01.920 -0400,9848.574732791667,0.5833892822265625,0.358642578125,-0.079132080078125,1,0.98
2020-05-16 12:20:02.040 -0400,9848.694478791667,0.4959869384765625,0.2860107421875,-0.0335235595703125,1,0.98
2020-05-16 12:20:02.159 -0400,9848.814219791668,1.047012329101562,0.3022003173828125,-0.1188812255859375,1,0.98
2020-05-16 12:20:02.279 -0400,9848.933968791667,1.494827270507812,0.4788970947265625,-0.3216400146484375,1,0.98
2020-05-16 12:20:02.399 -0400,9849.053724791667,1.101852416992188,0.190887451171875,-0.248870849609375,1,0.98
2020-05-16 12:20:02.521 -0400,9849.173478375,0.6267547607421875,0.4147491455078125,-0.2421112060546875,1,0.98
2020-05-16 12:20:02.638 -0400,9849.293225375,0.4035797119140625,0.394866943359375,-0.1242828369140625,1,0.98
2020-05-16 12:20:02.758 -0400,9849.412972375001,0.8886566162109375,0.40167236328125,-0.2045135498046875,1,0.98
2020-05-16 12:20:02.878 -0400,9849.532720375,1.460174560546875,0.4129638671875,-0.2900543212890625,1,0.98
2020-05-16 12:20:03.012 -0400,9849.652469375,1.146713256835938,0.41302490234375,-0.3116302490234375,1,0.98
2020-05-16 12:20:03.118 -0400,9849.772215375,0.8889312744140625,0.1936187744140625,-0.1823577880859375,1,0.98
2020-05-16 12:20:03.237 -0400,9849.891957375001,0.52288818359375,0.40203857421875,-0.0701904296875,1,0.98
2020-05-16 12:20:03.357 -0400,9850.011699375,0.7529144287109375,0.2735137939453125,0.00653076171875,1,0.98
2020-05-16 12:20:03.477 -0400,9850.131442375001,1.282669067382812,0.42095947265625,-0.1778106689453125,1,0.98
2020-05-16 12:20:03.597 -0400,9850.251183875,1.373779296875,0.6060943603515625,-0.613800048828125,1,0.98
2020-05-16 12:20:03.716 -0400,9850.370924875,0.8978729248046875,-0.02276611328125,-0.317840576171875,1,0.98
2020-05-16 12:20:03.836 -0400,9850.490663875,0.56195068359375,0.3582611083984375,-0.2107696533203125,1,0.98
2020-05-16 12:20:03.956 -0400,9850.610411875001,0.64599609375,0.3955535888671875,-0.186614990234375,1,0.98
2020-05-16 12:20:04.075 -0400,9850.730155875,0.7605743408203125,0.362701416015625,-0.194427490234375,1,0.98
2020-05-16 12:20:04.195 -0400,9850.849900875,1.211761474609375,0.4328155517578125,-0.333465576171875,1,0.98
2020-05-16 12:20:04.315 -0400,9850.969648875001,1.110626220703125,0.591217041015625,-0.5145721435546875,1,0.98
2020-05-16 12:20:04.435 -0400,9851.089396875001,1.158782958984375,0.3237457275390625,-0.17901611328125,1,0.98
2020-05-16 12:20:04.555 -0400,9851.209146375,0.6936798095703125,0.4440155029296875,-0.148651123046875,1,0.98
2020-05-16 12:20:04.674 -0400,9851.328886375,0.969390869140625,0.377227783203125,0.0024566650390625,1,0.98
2020-05-16 12:20:04.794 -0400,9851.448623375001,1.100921630859375,0.3031463623046875,-0.0718231201171875,1,0.98
2020-05-16 12:20:04.914 -0400,9851.568366375001,1.079788208007812,0.36724853515625,-0.196136474609375,1,0.98
2020-05-16 12:20:05.034 -0400,9851.688111375001,0.8388671875,0.2520751953125,-0.4196929931640625,1,0.98
2020-05-16 12:20:05.153 -0400,9851.807858375001,0.74786376953125,0.222625732421875,-0.4463348388671875,1,0.98
2020-05-16 12:20:05.273 -0400,9851.927610375,0.4157257080078125,0.3838348388671875,-0.3328704833984375,1,0.98
2020-05-16 12:20:05.393 -0400,9852.047368375001,0.8589324951171875,0.32611083984375,-0.267608642578125,1,0.98
2020-05-16 12:20:05.512 -0400,9852.167122250001,1.3170166015625,0.4262237548828125,-0.250885009765625,1,0.98
2020-05-16 12:20:05.632 -0400,9852.286878250001,1.300888061523438,0.5480499267578125,-0.410491943359375,1,0.98
2020-05-16 12:20:05.752 -0400,9852.406635250001,1.154998779296875,0.2510528564453125,-0.2477264404296875,1,0.98
2020-05-16 12:20:05.884 -0400,9852.526384250001,0.685150146484375,0.3242645263671875,-0.1425323486328125,1,0.98
2020-05-16 12:20:05.992 -0400,9852.646134250001,0.4252166748046875,0.3039093017578125,-0.0066680908203125,1,0.98
2020-05-16 12:20:06.111 -0400,9852.765880250001,0.874847412109375,0.3136444091796875,-0.0639190673828125,1,0.98
2020-05-16 12:20:06.231 -0400,9852.88562725,1.53131103515625,0.4476318359375,-0.226959228515625,1,0.98
2020-05-16 12:20:06.351 -0400,9853.005375250001,1.103652954101562,0.319549560546875,-0.5488433837890625,1,0.98
2020-05-16 12:20:06.470 -0400,9853.125126250001,0.8198394775390625,0.0731201171875,-0.35455322265625,1,0.98
2020-05-16 12:20:06.591 -0400,9853.244866625,0.2882843017578125,0.44903564453125,-0.271148681640625,1,0.98
2020-05-16 12:20:06.710 -0400,9853.364616625,0.4763946533203125,0.332611083984375,-0.1746063232421875,1,0.98
2020-05-16 12:20:06.830 -0400,9853.484362625,1.448822021484375,0.328765869140625,-0.2474517822265625,1,0.98
2020-05-16 12:20:06.949 -0400,9853.604105625001,1.229812622070312,0.5493316650390625,-0.38232421875,1,0.98
2020-05-16 12:20:07.069 -0400,9853.723843625001,1.145523071289062,0.309356689453125,-0.1885528564453125,1,0.98
2020-05-16 12:20:07.189 -0400,9853.843580625,0.429840087890625,0.3673553466796875,-0.168731689453125,1,0.98
2020-05-16 12:20:07.309 -0400,9853.963316625001,0.4909515380859375,0.2957611083984375,-0.0998992919921875,1,0.98
2020-05-16 12:20:07.429 -0400,9854.083052625001,1.321090698242188,0.2495574951171875,-0.123565673828125,1,0.98
2020-05-16 12:20:07.548 -0400,9854.202790625,1.158554077148438,0.4708709716796875,-0.2210235595703125,1,0.98
2020-05-16 12:20:07.668 -0400,9854.322525625001,0.899261474609375,0.2185516357421875,-0.2168731689453125,1,0.98
2020-05-16 12:20:07.788 -0400,9854.442264625,0.747100830078125,0.2421722412109375,-0.29766845703125,1,0.98
2020-05-16 12:20:07.907 -0400,9854.561998625,0.4416351318359375,0.416900634765625,-0.2684326171875,1,0.98
2020-05-16 12:20:08.027 -0400,9854.681732625,0.6020355224609375,0.283233642578125,-0.2407989501953125,1,0.98
2020-05-16 12:20:08.147 -0400,9854.801477625,0.9454498291015625,0.345428466796875,-0.3540802001953125,1,0.98
2020-05-16 12:20:08.267 -0400,9854.921223625,1.359207153320312,0.45123291015625,-0.463165283203125,1,0.98
2020-05-16 12:20:08.387 -0400,9855.040971625001,1.01556396484375,0.46697998046875,-0.35809326171875,1,0.98
2020-05-16 12:20:08.457 -0400,9855.110826625001,1.012420654296875,0.5061798095703125,-0.19354248046875,1,0.98
2020-05-16 12:20:08.526 -0400,9855.180679625,0.894500732421875,0.3623504638671875,-0.144195556640625,1,0.98
2020-05-16 12:20:08.596 -0400,9855.250532625001,0.75213623046875,0.4144744873046875,-0.085205078125,1,0.98
2020-05-16 12:20:08.666 -0400,9855.320384625,0.763824462890625,0.3843231201171875,-0.002044677734375,1,0.98
2020-05-16 12:20:08.736 -0400,9855.390238625001,0.8630523681640625,0.4021148681640625,-0.0123443603515625,1,0.98
2020-05-16 12:20:08.806 -0400,9855.460097625,0.8281707763671875,0.3585052490234375,-0.0780029296875,1,0.98
2020-05-16 12:20:08.875 -0400,9855.529951625,0.942657470703125,0.361419677734375,-0.2097625732421875,1,0.98
2020-05-16 12:20:08.945 -0400,9855.599799625001,1.191650390625,0.3263397216796875,-0.4341278076171875,1,0.98
2020-05-16 12:20:09.015 -0400,9855.669649625001,1.225448608398438,0.2691802978515625,-0.325103759765625,1,0.98
2020-05-16 12:20:09.085 -0400,9855.739500625001,1.06964111328125,0.42669677734375,-0.6271514892578125,1,0.98
2020-05-16 12:20:09.155 -0400,9855.809350625001,0.8929595947265625,0.0860137939453125,-0.3331298828125,1,0.98
2020-05-16 12:20:09.225 -0400,9855.879206625001,0.81671142578125,0.11273193359375,-0.244171142578125,1,0.98
2020-05-16 12:20:09.295 -0400,9855.949061625,0.8455963134765625,0.4604644775390625,-0.2498626708984375,1,0.98
2020-05-16 12:20:09.365 -0400,9856.018919625001,0.757293701171875,0.5880584716796875,-0.2683563232421875,1,0.98
2020-05-16 12:20:09.435 -0400,9856.088778625,0.534942626953125,0.503143310546875,-0.1797637939453125,1,0.98
2020-05-16 12:20:09.504 -0400,9856.158637750001,0.565155029296875,0.421051025390625,-0.140838623046875,1,0.98
2020-05-16 12:20:09.574 -0400,9856.228499750001,0.7581024169921875,0.395965576171875,-0.2251739501953125,1,0.98
2020-05-16 12:20:09.644 -0400,9856.29836275,1.087158203125,0.402374267578125,-0.40606689453125,1,0.98
2020-05-16 12:20:09.714 -0400,9856.36821875,1.152633666992188,0.330963134765625,-0.3463592529296875,1,0.98
2020-05-16 12:20:09.784 -0400,9856.438076750001,1.086776733398438,0.5602264404296875,-0.4955291748046875,1,0.98
2020-05-16 12:20:09.854 -0400,9856.507934750001,1.068923950195312,0.60821533203125,-0.26513671875,1,0.98
2020-05-16 12:20:09.923 -0400,9856.577790750001,1.138900756835938,0.2234344482421875,-0.06915283203125,1,0.98
2020-05-16 12:20:09.993 -0400,9856.64764775,1.106704711914062,0.2811126708984375,-0.09161376953125,1,0.98
2020-05-16 12:20:10.063 -0400,9856.71750375,1.048858642578125,0.408782958984375,-0.07257080078125,1,0.98
2020-05-16 12:20:10.133 -0400,9856.78736375,0.8938446044921875,0.4073028564453125,-0.04205322265625,1,0.98
2020-05-16 12:20:10.203 -0400,9856.857224750001,0.826416015625,0.3725738525390625,-0.117340087890625,1,0.98
2020-05-16 12:20:10.273 -0400,9856.927085750001,0.814239501953125,0.2045135498046875,-0.1795654296875,1,0.98
2020-05-16 12:20:10.343 -0400,9856.996941750001,1.24591064453125,-0.015625,-0.0426788330078125,1,0.98
2020-05-16 12:20:10.412 -0400,9857.066801750001,1.150344848632812,0.39117431640625,-0.4829864501953125,1,0.98
2020-05-16 12:20:10.482 -0400,9857.13666075,0.8498687744140625,0.3251953125,-0.445770263671875,1,0.98
2020-05-16 12:20:10.552 -0400,9857.206519041667,0.5427703857421875,0.0890960693359375,-0.32476806640625,1,0.98
2020-05-16 12:20:10.622 -0400,9857.276374041667,0.594085693359375,0.1947021484375,-0.1488494873046875,1,0.98
2020-05-16 12:20:10.692 -0400,9857.346229041666,0.998016357421875,0.5799713134765625,-0.1230621337890625,1,0.98
2020-05-16 12:20:10.762 -0400,9857.416081041667,0.970428466796875,0.665069580078125,-0.2465362548828125,1,0.98
2020-05-16 12:20:10.832 -0400,9857.485932041667,1.119583129882812,0.5797576904296875,-0.3269195556640625,1,0.98
2020-05-16 12:20:10.902 -0400,9857.555784041668,1.533477783203125,0.5050048828125,-0.4109039306640625,1,0.98
2020-05-16 12:20:10.971 -0400,9857.625640041668,1.168380737304688,0.4570159912109375,-0.483489990234375,1,0.98
2020-05-16 12:20:11.054 -0400,9857.695497041666,1.236663818359375,0.4116973876953125,-0.4607086181640625,1,0.98
2020-05-16 12:20:11.111 -0400,9857.765350041667,1.136016845703125,0.1553802490234375,-0.21160888671875,1,0.98
2020-05-16 12:20:11.181 -0400,9857.835203041668,0.6707611083984375,0.2430877685546875,-0.1795806884765625,1,0.98
2020-05-16 12:20:11.251 -0400,9857.905056041667,0.4980621337890625,0.340911865234375,-0.1124267578125,1,0.98
2020-05-16 12:20:11.321 -0400,9857.974910041667,0.5610198974609375,0.3205413818359375,-0.023223876953125,1,0.98
2020-05-16 12:20:11.390 -0400,9858.044765041668,0.7699737548828125,0.283050537109375,-0.013519287109375,1,0.98
2020-05-16 12:20:11.460 -0400,9858.114620041668,0.97845458984375,0.352752685546875,-0.0503082275390625,1,0.98
2020-05-16 12:20:11.530 -0400,9858.184473500001,1.36962890625,0.4505462646484375,-0.192413330078125,1,0.98
2020-05-16 12:20:11.600 -0400,9858.2543245,1.574050903320312,0.43450927734375,-0.2249908447265625,1,0.98
2020-05-16 12:20:11.670 -0400,9858.324172500001,1.118850708007812,0.5394134521484375,-0.5064697265625,1,0.98
2020-05-16 12:20:11.740 -0400,9858.394018500001,0.9051666259765625,0.2743988037109375,-0.418853759765625,1,0.98
2020-05-16 12:20:11.810 -0400,9858.463868500001,0.8144989013671875,0.1013031005859375,-0.288482666015625,1,0.98
2020-05-16 12:20:11.879 -0400,9858.533719500001,0.5521697998046875,0.2675018310546875,-0.3150634765625,1,0.98
2020-05-16 12:20:11.949 -0400,9858.603569500001,0.3929901123046875,0.3589019775390625,-0.269683837890625,1,0.98
2020-05-16 12:20:12.019 -0400,9858.673420500001,0.48187255859375,0.326385498046875,-0.2767486572265625,1,0.98
2020-05-16 12:20:12.089 -0400,9858.743276500001,0.7353973388671875,0.295654296875,-0.2901458740234375,1,0.98
2020-05-16 12:20:12.159 -0400,9858.8131295,0.8495330810546875,0.3805084228515625,-0.2810211181640625,1,0.98
2020-05-16 12:20:12.229 -0400,9858.8829855,1.151229858398438,0.4160003662109375,-0.28887939453125,1,0.98
2020-05-16 12:20:12.299 -0400,9858.952838500001,1.517791748046875,0.3435516357421875,-0.260498046875,1,0.98
2020-05-16 12:20:12.369 -0400,9859.0226915,1.537033081054688,0.4974517822265625,-0.3201904296875,1,0.98
2020-05-16 12:20:12.438 -0400,9859.092539500001,0.9522552490234375,0.5290679931640625,-0.3061981201171875,1,0.98
2020-05-16 12:20:12.508 -0400,9859.162390291667,0.9918670654296875,0.3622283935546875,-0.1383056640625,1,0.98
2020-05-16 12:20:12.578 -0400,9859.232245291667,0.780975341796875,0.2977142333984375,-0.103546142578125,1,0.98
2020-05-16 12:20:12.648 -0400,9859.302095291667,0.483489990234375,0.352447509765625,-0.0679168701171875,1,0.98
2020-05-16 12:20:12.718 -0400,9859.371945291667,0.3440399169921875,0.35125732421875,-0.0227203369140625,1,0.98
2020-05-16 12:20:12.788 -0400,9859.441796291667,0.4517059326171875,0.32568359375,-0.005096435546875,1,0.98
2020-05-16 12:20:12.857 -0400,9859.511644291668,1.090072631835938,0.3668060302734375,-0.071533203125,1,0.98
2020-05-16 12:20:12.927 -0400,9859.581491291667,1.270156860351562,0.295257568359375,-0.1048583984375,1,0.98
2020-05-16 12:20:12.997 -0400,9859.651339291668,1.753189086914062,0.566497802734375,-0.26898193359375,1,0.98
2020-05-16 12:20:13.067 -0400,9859.721193291667,1.045684814453125,0.6884613037109375,-0.86016845703125,1,0.98
2020-05-16 12:20:13.137 -0400,9859.791047291666,1.013900756835938,0.10260009765625,-0.2987213134765625,1,0.98
2020-05-16 12:20:13.207 -0400,9859.860903291667,0.796051025390625,0.1647796630859375,-0.28289794921875,1,0.98
2020-05-16 12:20:13.277 -0400,9859.930753291666,0.4967193603515625,0.4921112060546875,-0.280303955078125,1,0.98
2020-05-16 12:20:13.346 -0400,9860.000607291668,0.449127197265625,0.4413909912109375,-0.18975830078125,1,0.98
2020-05-16 12:20:13.416 -0400,9860.070458291668,0.6152191162109375,0.3812103271484375,-0.1128692626953125,1,0.98
2020-05-16 12:20:13.486 -0400,9860.140311291667,0.8347320556640625,0.428131103515625,-0.1367645263671875,1,0.98
2020-05-16 12:20:13.556 -0400,9860.210168041667,1.143707275390625,0.4470977783203125,-0.233123779296875,1,0.98
2020-05-16 12:20:13.626 -0400,9860.280020041668,1.375198364257812,0.45001220703125,-0.2950592041015625,1,0.98
2020-05-16 12:20:13.696 -0400,9860.349872041666,1.143875122070312,0.4799957275390625,-0.3791351318359375,1,0.98
2020-05-16 12:20:13.766 -0400,9860.419727041668,1.033737182617188,0.415740966796875,-0.302276611328125,1,0.98
2020-05-16 12:20:13.836 -0400,9860.489578041666,1.068740844726562,0.3351593017578125,-0.236968994140625,1,0.98
2020-05-16 12:20:13.905 -0400,9860.559426041667,0.8663330078125,0.2917327880859375,-0.13507080078125,1,0.98
2020-05-16 12:20:13.975 -0400,9860.629279041666,0.713470458984375,0.37109375,-0.1085205078125,1,0.98
2020-05-16 12:20:14.045 -0400,9860.699134041668,0.7022552490234375,0.3652801513671875,-0.0271148681640625,1,0.98
2020-05-16 12:20:14.115 -0400,9860.768988041667,0.7639923095703125,0.3223876953125,0.01788330078125,1,0.98
2020-05-16 12:20:14.185 -0400,9860.838844041667,0.8102874755859375,0.346099853515625,-0.014739990234375,1,0.98
2020-05-16 12:20:14.254 -0400,9860.908699041667,1.075759887695312,0.392425537109375,-0.09674072265625,1,0.98
2020-05-16 12:20:14.324 -0400,9860.978553041667,1.449447631835938,0.4552001953125,-0.26141357421875,1,0.98
2020-05-16 12:20:14.394 -0400,9861.048402041668,1.015457153320312,0.522064208984375,-0.7258453369140625,1,0.98
2020-05-16 12:20:14.464 -0400,9861.118254041667,0.8579559326171875,0.14385986328125,-0.46563720703125,1,0.98
2020-05-16 12:20:14.534 -0400,9861.188111500001,0.8265228271484375,0.022125244140625,-0.329742431640625,1,0.98
2020-05-16 12:20:14.604 -0400,9861.257966500001,0.5759735107421875,0.4083709716796875,-0.3980255126953125,1,0.98
2020-05-16 12:20:14.674 -0400,9861.327820500001,0.5461578369140625,0.410858154296875,-0.3157196044921875,1,0.98
2020-05-16 12:20:14.744 -0400,9861.3976745,0.638946533203125,0.372955322265625,-0.199676513671875,1,0.98
2020-05-16 12:20:14.813 -0400,9861.467528500001,0.7779388427734375,0.4031219482421875,-0.2793426513671875,1,0.98
2020-05-16 12:20:14.883 -0400,9861.5373805,0.901397705078125,0.382904052734375,-0.34014892578125,1,0.98
2020-05-16 12:20:14.953 -0400,9861.607229500001,1.330825805664062,0.3531036376953125,-0.312835693359375,1,0.98
2020-05-16 12:20:15.023 -0400,9861.677083500001,1.468978881835938,0.528778076171875,-0.5024566650390625,1,0.98
2020-05-16 12:20:15.093 -0400,9861.7469385,1.06488037109375,0.473724365234375,-0.3971099853515625,1,0.98
2020-05-16 12:20:15.163 -0400,9861.816797500001,1.031005859375,0.2716217041015625,-0.1544189453125,1,0.98
2020-05-16 12:20:15.233 -0400,9861.886650500001,0.7512969970703125,0.2883148193359375,-0.155548095703125,1,0.98
2020-05-16 12:20:15.302 -0400,9861.9564995,0.57366943359375,0.3443145751953125,-0.0816192626953125,1,0.98
2020-05-16 12:20:15.372 -0400,9862.026346500001,0.716888427734375,0.4033203125,-0.014923095703125,1,0.98
2020-05-16 12:20:15.442 -0400,9862.096197500001,0.8470916748046875,0.3467864990234375,0.01080322265625,1,0.98
2020-05-16 12:20:15.512 -0400,9862.166044625001,0.9294891357421875,0.37335205078125,-0.0281219482421875,1,0.98
2020-05-16 12:20:15.582 -0400,9862.235890625001,1.147415161132812,0.4317779541015625,-0.1167755126953125,1,0.98
2020-05-16 12:20:15.652 -0400,9862.305741625001,1.094131469726562,0.38909912109375,-0.228973388671875,1,0.98
2020-05-16 12:20:15.722 -0400,9862.375593625,1.528228759765625,0.4622344970703125,-0.3577728271484375,1,0.98
2020-05-16 12:20:15.791 -0400,9862.445444625,0.5191497802734375,0.45623779296875,-0.679656982421875,1,0.98
2020-05-16 12:20:15.862 -0400,9862.515296625001,0.5243682861328125,0.211395263671875,-0.2958984375,1,0.98
2020-05-16 12:20:15.931 -0400,9862.585149625,0.9875640869140625,0.4832611083984375,-0.518035888671875,1,0.98
2020-05-16 12:20:16.001 -0400,9862.655002625001,0.7818756103515625,0.4275360107421875,-0.236785888671875,1,0.98
2020-05-16 12:20:16.071 -0400,9862.724853625001,0.8219146728515625,0.4130401611328125,-0.211273193359375,1,0.98
2020-05-16 12:20:16.141 -0400,9862.794703625001,0.723175048828125,0.4751434326171875,-0.1746673583984375,1,0.98
2020-05-16 12:20:16.210 -0400,9862.864553625001,0.771636962890625,0.3595733642578125,-0.1060943603515625,1,0.98
2020-05-16 12:20:16.280 -0400,9862.934401625,0.6636962890625,0.3254547119140625,-0.1166839599609375,1,0.98
2020-05-16 12:20:16.350 -0400,9863.004254625001,0.8060302734375,0.4163665771484375,-0.15240478515625,1,0.98
2020-05-16 12:20:16.420 -0400,9863.074103625,1.39715576171875,0.5439300537109375,-0.218414306640625,1,0.98
2020-05-16 12:20:16.490 -0400,9863.143955625001,0.898468017578125,0.685791015625,-0.307098388671875,1,0.98
2020-05-16 12:20:16.560 -0400,9863.213807375001,0.9662628173828125,0.4489593505859375,-0.1931610107421875,1,0.98
2020-05-16 12:20:16.630 -0400,9863.283661375001,1.15667724609375,0.14141845703125,-0.149658203125,1,0.98
2020-05-16 12:20:16.700 -0400,9863.353515375,0.77642822265625,0.256927490234375,-0.200042724609375,1,0.98
2020-05-16 12:20:16.770 -0400,9863.423371375,0.8133697509765625,0.43548583984375,-0.080413818359375,1,0.98
2020-05-16 12:20:16.839 -0400,9863.493223375001,0.789093017578125,0.3509521484375,-0.0557708740234375,1,0.98
2020-05-16 12:20:16.909 -0400,9863.563072375,0.7154998779296875,0.3191375732421875,-0.041748046875,1,0.98
2020-05-16 12:20:16.979 -0400,9863.632923375,0.743377685546875,0.3195648193359375,0.006500244140625,1,0.98
2020-05-16 12:20:17.049 -0400,9863.702773375,1.03936767578125,0.4564971923828125,-0.02911376953125,1,0.98
2020-05-16 12:20:17.119 -0400,9863.772626375001,1.195022583007812,0.6722869873046875,-0.3477630615234375,1,0.98
2020-05-16 12:20:17.188 -0400,9863.842482375001,1.070205688476562,0.798583984375,-0.555450439453125,1,0.98
2020-05-16 12:20:17.258 -0400,9863.912337375001,0.901580810546875,-0.015350341796875,-0.3892059326171875,1,0.98
2020-05-16 12:20:17.328 -0400,9863.982189375001,0.580230712890625,-0.08660888671875,-0.5053863525390625,1,0.98
2020-05-16 12:20:17.398 -0400,9864.052039375001,0.649200439453125,0.0017547607421875,-0.49383544921875,1,0.98
2020-05-16 12:20:17.468 -0400,9864.121888375001,0.8179168701171875,0.09161376953125,-0.3152313232421875,1,0.98
2020-05-16 12:20:17.538 -0400,9864.191734625001,1.292770385742188,0.3891754150390625,-0.215545654296875,1,0.98
2020-05-16 12:20:17.607 -0400,9864.261582625,1.503692626953125,0.627655029296875,-0.2048797607421875,1,0.98
2020-05-16 12:20:17.677 -0400,9864.331431625,1.054229736328125,0.2926788330078125,-0.13525390625,1,0.98
2020-05-16 12:20:17.747 -0400,9864.401281625002,1.277420043945312,0.4885406494140625,-0.14288330078125,1,0.98
2020-05-16 12:20:17.817 -0400,9864.471130625001,0.8530120849609375,0.21966552734375,0.013641357421875,1,0.98
2020-05-16 12:20:17.887 -0400,9864.540971625001,0.780853271484375,0.0966339111328125,0.0643310546875,1,0.98
2020-05-16 12:20:17.957 -0400,9864.610822625,0.38201904296875,0.1875,-0.0262451171875,1,0.98
2020-05-16 12:20:18.027 -0400,9864.680672625,0.4490203857421875,0.3436737060546875,-0.1578521728515625,1,0.98
2020-05-16 12:20:18.096 -0400,9864.750523625,0.9418792724609375,0.561492919921875,-0.480438232421875,1,0.98
2020-05-16 12:20:18.166 -0400,9864.820374625,1.102432250976562,0.2461395263671875,-0.3218994140625,1,0.98
2020-05-16 12:20:18.236 -0400,9864.890223625001,0.7842864990234375,-0.1320648193359375,-0.126373291015625,1,0.98
2020-05-16 12:20:18.306 -0400,9864.960074625,0.826202392578125,0.4220428466796875,-0.015106201171875,1,0.98
2020-05-16 12:20:18.376 -0400,9865.029928625001,1.414215087890625,0.849639892578125,0.006103515625,1,0.98
2020-05-16 12:20:18.446 -0400,9865.099782625,0.407470703125,0.7703399658203125,-0.944244384765625,1,0.98
2020-05-16 12:20:18.516 -0400,9865.169632791667,0.5962371826171875,0.52197265625,-0.264129638671875,1,0.98
2020-05-16 12:20:18.585 -0400,9865.239482791667,1.27911376953125,0.1401824951171875,-0.961669921875,1,0.98
2020-05-16 12:20:18.655 -0400,9865.309333791667,0.9648590087890625,-0.0286102294921875,-0.5145263671875,1,0.98
2020-05-16 12:20:18.725 -0400,9865.379184791667,1.052993774414062,-0.183135986328125,-0.18780517578125,1,0.98
2020-05-16 12:20:18.795 -0400,9865.449037791668,1.13641357421875,0.250732421875,-0.1983184814453125,1,0.98
2020-05-16 12:20:18.865 -0400,9865.518890791667,0.88134765625,0.45660400390625,-0.16455078125,1,0.98
2020-05-16 12:20:18.935 -0400,9865.588741791667,0.8846435546875,0.3769378662109375,-0.1600494384765625,1,0.98
2020-05-16 12:20:19.005 -0400,9865.658592791668,0.7196807861328125,0.3227386474609375,0.0237884521484375,1,0.98
2020-05-16 12:20:19.074 -0400,9865.728448791668,0.6756134033203125,0.35406494140625,-0.1334991455078125,1,0.98
2020-05-16 12:20:19.144 -0400,9865.798304791668,0.9146881103515625,0.4059906005859375,-0.1975555419921875,1,0.98
2020-05-16 12:20:19.214 -0400,9865.868158791667,0.8879547119140625,0.324005126953125,-0.188934326171875,1,0.98
2020-05-16 12:20:19.284 -0400,9865.938009791667,0.9240875244140625,0.3290557861328125,-0.1859893798828125,1,0.98
2020-05-16 12:20:19.354 -0400,9866.007861791668,1.199478149414062,0.46673583984375,-0.1851806640625,1,0.98
2020-05-16 12:20:19.424 -0400,9866.077716791668,1.285995483398438,0.7521820068359375,0.1206207275390625,1,0.98
2020-05-16 12:20:19.493 -0400,9866.147569791667,0.4442901611328125,0.4355010986328125,-0.67340087890625,1,0.98
2020-05-16 12:20:19.563 -0400,9866.217420125,0.946258544921875,0.4246978759765625,-0.147674560546875,1,0.98
2020-05-16 12:20:19.633 -0400,9866.287271125,0.4843597412109375,0.141876220703125,-0.166961669921875,1,0.98
2020-05-16 12:20:19.703 -0400,9866.357121125,0.5865936279296875,0.557342529296875,-0.2666778564453125,1,0.98
2020-05-16 12:20:19.773 -0400,9866.426971125,0.8361053466796875,0.590850830078125,-0.446258544921875,1,0.98
2020-05-16 12:20:19.843 -0400,9866.496821125,0.7144622802734375,0.35498046875,-0.4183502197265625,1,0.98
2020-05-16 12:20:19.913 -0400,9866.566671125001,1.1209716796875,0.4314727783203125,-0.6807098388671875,1,0.98
2020-05-16 12:20:19.983 -0400,9866.636520125001,1.673782348632812,0.3736419677734375,-0.4619140625,1,0.98
2020-05-16 12:20:20.052 -0400,9866.706369125,1.030868530273438,0.2302398681640625,-0.271575927734375,1,0.98
2020-05-16 12:20:20.122 -0400,9866.776216125001,1.105606079101562,0.3854217529296875,-0.1068572998046875,1,0.98
2020-05-16 12:20:20.192 -0400,9866.846067125001,1.052703857421875,0.4503631591796875,-0.1482086181640625,1,0.98
2020-05-16 12:20:20.263 -0400,9866.915917125001,0.7756500244140625,0.32183837890625,-0.1048126220703125,1,0.98
2020-05-16 12:20:20.332 -0400,9866.985767125001,0.5950927734375,0.262176513671875,-0.0599365234375,1,0.98
2020-05-16 12:20:20.402 -0400,9867.055619125,0.4757232666015625,0.24151611328125,-0.0505523681640625,1,0.98
2020-05-16 12:20:20.471 -0400,9867.125473125001,0.62689208984375,0.3093109130859375,-0.0570068359375,1,0.98
2020-05-16 12:20:20.541 -0400,9867.195330625,0.682403564453125,0.4324951171875,-0.1892547607421875,1,0.98
2020-05-16 12:20:20.611 -0400,9867.265188625001,1.103134155273438,0.527130126953125,-0.3169708251953125,1,0.98
2020-05-16 12:20:20.681 -0400,9867.335045625001,1.680404663085938,0.56488037109375,-0.491668701171875,1,0.98
2020-05-16 12:20:20.751 -0400,9867.404901625001,0.947601318359375,0.4689178466796875,-0.8144683837890625,1,0.98
2020-05-16 12:20:20.821 -0400,9867.474755625,0.812957763671875,0.325225830078125,-0.60009765625,1,0.98
2020-05-16 12:20:20.891 -0400,9867.544607625001,0.6625213623046875,0.3393707275390625,-0.51300048828125,1,0.98
2020-05-16 12:20:20.960 -0400,9867.614460625,0.66412353515625,0.43218994140625,-0.5439453125,1,0.98
2020-05-16 12:20:21.030 -0400,9867.684312625001,0.801910400390625,0.4022979736328125,-0.4159393310546875,1,0.98
2020-05-16 12:20:21.100 -0400,9867.754167625,0.91961669921875,0.4001922607421875,-0.303009033203125,1,0.98
2020-05-16 12:20:21.170 -0400,9867.824020625001,1.470672607421875,0.5902557373046875,-0.3356781005859375,1,0.98
2020-05-16 12:20:21.240 -0400,9867.893874625001,0.896942138671875,0.3745574951171875,-0.0788726806640625,1,0.98
2020-05-16 12:20:21.310 -0400,9867.963733625,0.8775177001953125,0.42822265625,-0.02532958984375,1,0.98
2020-05-16 12:20:21.380 -0400,9868.033592625001,0.9148712158203125,0.3943328857421875,0.121551513671875,1,0.98
2020-05-16 12:20:21.449 -0400,9868.103447625001,0.839752197265625,0.4857177734375,0.1804351806640625,1,0.98
2020-05-16 12:20:21.519 -0400,9868.173307000001,1.143753051757812,0.580780029296875,0.36761474609375,1,0.98
2020-05-16 12:20:21.589 -0400,9868.243169000001,1.1448974609375,0.3839263916015625,0.2865142822265625,1,0.98
2020-05-16 12:20:21.659 -0400,9868.313029000001,1.1097412109375,0.4273223876953125,0.15606689453125,1,0.98
2020-05-16 12:20:21.729 -0400,9868.382882,1.214096069335938,0.4748687744140625,0.109039306640625,1,0.98
2020-05-16 12:20:21.799 -0400,9868.452735000001,1.218887329101562,0.3632659912109375,0.034393310546875,1,0.98
2020-05-16 12:20:21.869 -0400,9868.52259,1.066574096679688,0.2775421142578125,-0.05938720703125,1,0.98
2020-05-16 12:20:21.938 -0400,9868.592445,0.93804931640625,0.3134307861328125,-0.1405487060546875,1,0.98
2020-05-16 12:20:22.009 -0400,9868.6623,0.8309326171875,0.329193115234375,-0.2601165771484375,1,0.98
2020-05-16 12:20:22.078 -0400,9868.732149000001,0.8329315185546875,0.2971954345703125,-0.3463134765625,1,0.98
2020-05-16 12:20:22.148 -0400,9868.802003000001,0.84185791015625,0.25750732421875,-0.331024169921875,1,0.98
2020-05-16 12:20:22.218 -0400,9868.871856,0.9732513427734375,0.2133636474609375,-0.3090667724609375,1,0.98
2020-05-16 12:20:22.288 -0400,9868.941709000001,1.1641845703125,0.3118743896484375,-0.318511962890625,1,0.98
2020-05-16 12:20:22.358 -0400,9869.011562000002,1.113800048828125,0.474090576171875,-0.2634735107421875,1,0.98
2020-05-16 12:20:22.427 -0400,9869.081417000001,0.9389801025390625,0.5250396728515625,-0.192626953125,1,0.98
2020-05-16 12:20:22.497 -0400,9869.151273000001,0.81060791015625,0.4534912109375,-0.1368408203125,1,0.98
2020-05-16 12:20:22.567 -0400,9869.221127916668,0.8907012939453125,0.4289703369140625,-0.186614990234375,1,0.98
2020-05-16 12:20:22.637 -0400,9869.290983916668,0.7673797607421875,0.3939971923828125,-0.2056121826171875,1,0.98
2020-05-16 12:20:22.707 -0400,9869.360838916667,0.8018951416015625,0.393768310546875,-0.2340240478515625,1,0.98
2020-05-16 12:20:22.777 -0400,9869.430693916667,0.8925628662109375,0.4310760498046875,-0.3099365234375,1,0.98
2020-05-16 12:20:22.847 -0400,9869.500547916667,0.8571014404296875,0.339019775390625,-0.3172149658203125,1,0.98
2020-05-16 12:20:22.916 -0400,9869.570404916667,1.346923828125,0.321990966796875,-0.189422607421875,1,0.98
2020-05-16 12:20:22.986 -0400,9869.640258916666,0.8066253662109375,0.3891448974609375,-0.1844635009765625,1,0.98
2020-05-16 12:20:23.056 -0400,9869.710110916667,0.8199310302734375,0.5674896240234375,-0.2550201416015625,1,0.98
2020-05-16 12:20:23.126 -0400,9869.779961916667,0.7030487060546875,0.50079345703125,-0.2003936767578125,1,0.98
2020-05-16 12:20:23.196 -0400,9869.849812916667,0.9932403564453125,0.501007080078125,-0.3054351806640625,1,0.98
2020-05-16 12:20:23.266 -0400,9869.919663916668,0.9101104736328125,0.4082183837890625,-0.340789794921875,1,0.98
2020-05-16 12:20:23.336 -0400,9869.989513916667,0.804840087890625,0.3492889404296875,-0.3580322265625,1,0.98
2020-05-16 12:20:23.405 -0400,9870.059365916668,0.77911376953125,0.3401947021484375,-0.3479156494140625,1,0.98
2020-05-16 12:20:23.475 -0400,9870.129213916667,0.7641448974609375,0.3069610595703125,-0.305084228515625,1,0.98
2020-05-16 12:20:23.545 -0400,9870.199059291668,0.7513427734375,0.338287353515625,-0.2770843505859375,1,0.98
2020-05-16 12:20:23.615 -0400,9870.268907291667,0.8319091796875,0.396148681640625,-0.31103515625,1,0.98
2020-05-16 12:20:23.685 -0400,9870.338751291667,0.88818359375,0.5382843017578125,-0.3173980712890625,1,0.98
2020-05-16 12:20:23.755 -0400,9870.408595291667,0.88482666015625,1.15753173828125,-0.2145233154296875,1,0.98
2020-05-16 12:20:23.824 -0400,9870.478437291667,0.8272857666015625,1.108963012695312,-0.303436279296875,1,0.98
2020-05-16 12:20:23.894 -0400,9870.548284291668,0.935760498046875,0.8954010009765625,-0.088470458984375,1,0.98
2020-05-16 12:20:23.964 -0400,9870.618130291667,0.671875,0.5436248779296875,-0.0867462158203125,1,0.98
2020-05-16 12:20:24.034 -0400,9870.687976291667,0.6211090087890625,0.4629974365234375,-0.087127685546875,1,0.98
2020-05-16 12:20:24.104 -0400,9870.757819291668,0.8190460205078125,0.533538818359375,0.0021820068359375,1,0.98
2020-05-16 12:20:24.174 -0400,9870.827661291667,0.7814178466796875,0.383636474609375,0.0276031494140625,1,0.98
2020-05-16 12:20:24.244 -0400,9870.897507291667,0.7037506103515625,0.458465576171875,-0.0359039306640625,1,0.98
2020-05-16 12:20:24.314 -0400,9870.967352291667,0.748809814453125,0.5248565673828125,-0.1041412353515625,1,0.98
2020-05-16 12:20:24.383 -0400,9871.037196291667,0.7561492919921875,0.4149017333984375,-0.165008544921875,1,0.98
2020-05-16 12:20:24.453 -0400,9871.107040291667,0.9844818115234375,0.355804443359375,-0.1876983642578125,1,0.98
2020-05-16 12:20:24.523 -0400,9871.176880875,1.206329345703125,0.425811767578125,-0.315582275390625,1,0.98
2020-05-16 12:20:24.593 -0400,9871.246727875001,0.9490814208984375,0.489898681640625,-0.4355621337890625,1,0.98
2020-05-16 12:20:24.663 -0400,9871.316575875,0.9378662109375,0.4226837158203125,-0.619140625,1,0.98
2020-05-16 12:20:24.733 -0400,9871.386421875,1.10296630859375,0.090728759765625,-0.2415924072265625,1,0.98
2020-05-16 12:20:24.802 -0400,9871.456266875,0.5752410888671875,0.313385009765625,-0.3953857421875,1,0.98
2020-05-16 12:20:24.872 -0400,9871.526111875,0.4510650634765625,0.489471435546875,-0.3751068115234375,1,0.98
2020-05-16 12:20:24.942 -0400,9871.595956875,0.4946746826171875,0.365631103515625,-0.3006134033203125,1,0.98
2020-05-16 12:20:25.012 -0400,9871.665802875001,0.791015625,0.3791656494140625,-0.272369384765625,1,0.98
2020-05-16 12:20:25.082 -0400,9871.735653875001,0.8124542236328125,0.5071258544921875,-0.3776702880859375,1,0.98
2020-05-16 12:20:25.152 -0400,9871.805500875,1.512802124023438,0.7938385009765625,-0.429046630859375,1,0.98
2020-05-16 12:20:25.221 -0400,9871.875349875001,1.1121826171875,0.56634521484375,-0.09967041015625,1,0.98
2020-05-16 12:20:25.291 -0400,9871.945196875,1.071258544921875,0.6273956298828125,-0.173065185546875,1,0.98
2020-05-16 12:20:25.361 -0400,9872.015043875001,0.89019775390625,0.789764404296875,-0.0242767333984375,1,0.98
2020-05-16 12:20:25.431 -0400,9872.084888875001,0.8140106201171875,0.6988677978515625,0.0243988037109375,1,0.98
2020-05-16 12:20:25.501 -0400,9872.154732875,0.8787384033203125,0.8008270263671875,0.039794921875,1,0.98
2020-05-16 12:20:25.571 -0400,9872.224578250001,0.8800048828125,0.886993408203125,-0.017578125,1,0.98
2020-05-16 12:20:25.640 -0400,9872.294422250001,0.6499481201171875,1.092514038085938,-0.270050048828125,1,0.98
2020-05-16 12:20:25.710 -0400,9872.364267250001,0.2888336181640625,0.960723876953125,-0.5809173583984375,1,0.98
2020-05-16 12:20:25.780 -0400,9872.43411025,0.1516876220703125,1.219772338867188,-0.694732666015625,1,0.98
2020-05-16 12:20:25.850 -0400,9872.50395425,-0.2290191650390625,0.75469970703125,-0.7146148681640625,1,0.98
2020-05-16 12:20:25.920 -0400,9872.57380025,-0.1056671142578125,0.4070587158203125,-0.616455078125,1,0.98
2020-05-16 12:20:25.990 -0400,9872.64364425,-0.1923980712890625,0.2768707275390625,-0.59844970703125,1,0.98
2020-05-16 12:20:26.060 -0400,9872.71348925,-0.3463287353515625,0.2879486083984375,-0.604217529296875,1,0.98
2020-05-16 12:20:26.129 -0400,9872.783332250001,-0.5713348388671875,0.1691131591796875,-0.5749053955078125,1,0.98
2020-05-16 12:20:26.199 -0400,9872.85317525,-0.770538330078125,0.1727752685546875,-0.481719970703125,1,0.98
2020-05-16 12:20:26.269 -0400,9872.92302025,-0.8574066162109375,0.2415313720703125,-0.3759613037109375,1,0.98
2020-05-16 12:20:26.339 -0400,9872.992866250001,-0.8602142333984375,0.206298828125,-0.3662109375,1,0.98
2020-05-16 12:20:26.409 -0400,9873.062708250001,-0.862030029296875,0.00341796875,-0.4680938720703125,1,0.98
2020-05-16 12:20:26.479 -0400,9873.13255025,-0.961944580078125,0.126068115234375,-0.6132965087890625,1,0.98
2020-05-16 12:20:26.548 -0400,9873.2023945,-0.79937744140625,0.229339599609375,-0.53594970703125,1,0.98
2020-05-16 12:20:26.619 -0400,9873.272237500001,-0.7431793212890625,0.2384490966796875,-0.570831298828125,1,0.98
2020-05-16 12:20:26.688 -0400,9873.3420785,-0.777252197265625,0.118743896484375,-0.563812255859375,1,0.98
2020-05-16 12:20:26.758 -0400,9873.4119235,-0.828857421875,-0.1557159423828125,-0.7232208251953125,1,0.98
2020-05-16 12:20:26.828 -0400,9873.481772500001,-0.852569580078125,-0.061676025390625,-0.5572967529296875,1,0.98
2020-05-16 12:20:26.898 -0400,9873.551617500001,-0.782562255859375,-0.0450592041015625,-0.5847015380859375,1,0.98
2020-05-16 12:20:26.967 -0400,9873.6214655,-0.74627685546875,-0.07684326171875,-0.5697479248046875,1,0.98
2020-05-16 12:20:27.037 -0400,9873.6913095,-0.8233489990234375,-0.217010498046875,-0.465057373046875,1,0.98
2020-05-16 12:20:27.107 -0400,9873.761153500001,-0.821014404296875,-0.1804962158203125,-0.6417999267578125,1,0.98
2020-05-16 12:20:27.177 -0400,9873.8310005,-0.7913665771484375,-0.1514739990234375,-0.48394775390625,1,0.98
2020-05-16 12:20:27.247 -0400,9873.900848500001,-0.79998779296875,-0.13262939453125,-0.556427001953125,1,0.98
2020-05-16 12:20:27.317 -0400,9873.9707005,-0.8674468994140625,-0.1236572265625,-0.6021270751953125,1,0.98
2020-05-16 12:20:27.387 -0400,9874.040547500001,-0.84124755859375,-0.17742919921875,-0.524871826171875,1,0.98
2020-05-16 12:20:27.456 -0400,9874.1103955,-0.814300537109375,-0.158203125,-0.5294647216796875,1,0.98
2020-05-16 12:20:27.526 -0400,9874.180239250001,-0.8246612548828125,-0.166229248046875,-0.5015411376953125,1,0.98
2020-05-16 12:20:27.596 -0400,9874.25008525,-0.8726348876953125,-0.1542510986328125,-0.5123748779296875,1,0.98
2020-05-16 12:20:27.666 -0400,9874.31993125,-0.8405914306640625,-0.1535797119140625,-0.5554046630859375,1,0.98
2020-05-16 12:20:27.736 -0400,9874.38977525,-0.8333892822265625,-0.1514129638671875,-0.5165252685546875,1,0.98
2020-05-16 12:20:27.806 -0400,9874.459619250001,-0.8450469970703125,-0.11651611328125,-0.51617431640625,1,0.98
2020-05-16 12:20:27.876 -0400,9874.52946525,-0.8671112060546875,-0.1513824462890625,-0.522796630859375,1,0.98
2020-05-16 12:20:27.945 -0400,9874.59931125,-0.8573150634765625,-0.123077392578125,-0.510833740234375,1,0.98
2020-05-16 12:20:28.016 -0400,9874.669160250001,-0.8385009765625,-0.1342010498046875,-0.5193939208984375,1,0.98
2020-05-16 12:20:28.085 -0400,9874.739010250001,-0.8601837158203125,-0.1133880615234375,-0.4758148193359375,1,0.98
2020-05-16 12:20:28.155 -0400,9874.80885725,-0.85736083984375,-0.08074951171875,-0.50238037109375,1,0.98
2020-05-16 12:20:28.225 -0400,9874.878700250001,-0.8642578125,-0.147918701171875,-0.5193023681640625,1,0.98
2020-05-16 12:20:28.295 -0400,9874.948544250001,-0.863189697265625,-0.15740966796875,-0.4808349609375,1,0.98
2020-05-16 12:20:28.365 -0400,9875.01838725,-0.8315582275390625,-0.1360931396484375,-0.495208740234375,1,0.98
2020-05-16 12:20:28.434 -0400,9875.088228250001,-0.8672943115234375,-0.1249542236328125,-0.4883575439453125,1,0.98
2020-05-16 12:20:28.504 -0400,9875.15807225,-0.869171142578125,-0.122772216796875,-0.53204345703125,1,0.98
2020-05-16 12:20:28.574 -0400,9875.227914375,-0.8610992431640625,-0.1323089599609375,-0.49566650390625,1,0.98
2020-05-16 12:20:28.644 -0400,9875.297760375001,-0.8372650146484375,-0.054443359375,-0.4913482666015625,1,0.98
2020-05-16 12:20:28.714 -0400,9875.367603375,-0.86749267578125,-0.0984344482421875,-0.4949798583984375,1,0.98
2020-05-16 12:20:28.784 -0400,9875.437446375001,-0.875518798828125,-0.1130218505859375,-0.545257568359375,1,0.98
2020-05-16 12:20:28.853 -0400,9875.507288375,-0.8222503662109375,-0.0723114013671875,-0.529937744140625,1,0.98
2020-05-16 12:20:28.923 -0400,9875.577130375001,-0.847442626953125,-0.063232421875,-0.4894256591796875,1,0.98
2020-05-16 12:20:28.993 -0400,9875.646969375,-0.8545989990234375,-0.0728302001953125,-0.5140533447265625,1,0.98
2020-05-16 12:20:29.063 -0400,9875.716806375001,-0.8576507568359375,-0.0644989013671875,-0.5328369140625,1,0.98
2020-05-16 12:20:29.133 -0400,9875.786644375001,-0.8744659423828125,-0.019439697265625,-0.5296783447265625,1,0.98
2020-05-16 12:20:29.203 -0400,9875.856485375001,-0.8235015869140625,-0.0254974365234375,-0.52740478515625,1,0.98
2020-05-16 12:20:29.273 -0400,9875.926328375001,-0.8364410400390625,-0.00714111328125,-0.540557861328125,1,0.98
2020-05-16 12:20:29.342 -0400,9875.996168375001,-0.8500213623046875,-0.027191162109375,-0.5650787353515625,1,0.98
2020-05-16 12:20:29.412 -0400,9876.066008375001,-0.8115081787109375,-0.013671875,-0.5820465087890625,1,0.98
2020-05-16 12:20:29.482 -0400,9876.135847375001,-0.81195068359375,-0.0299072265625,-0.5300750732421875,1,0.98
2020-05-16 12:20:29.552 -0400,9876.205688,-0.8592681884765625,0.0103912353515625,-0.56787109375,1,0.98
2020-05-16 12:20:29.622 -0400,9876.275530000001,-0.822845458984375,-0.0433807373046875,-0.566192626953125,1,0.98
2020-05-16 12:20:29.691 -0400,9876.345368,-0.854888916015625,-0.050048828125,-0.574310302734375,1,0.98
2020-05-16 12:20:29.761 -0400,9876.415209000001,-0.8488922119140625,-0.01715087890625,-0.567901611328125,1,0.98
2020-05-16 12:20:29.831 -0400,9876.485053,-0.7915191650390625,-0.054779052734375,-0.540771484375,1,0.98
2020-05-16 12:20:29.901 -0400,9876.554892,-0.7639007568359375,-0.0627593994140625,-0.595977783203125,1,0.98
2020-05-16 12:20:29.971 -0400,9876.624735000001,-0.771087646484375,-0.1178741455078125,-0.584747314453125,1,0.98
2020-05-16 12:20:30.041 -0400,9876.694576,-0.5256195068359375,-0.1491241455078125,-0.452972412109375,1,0.98
2020-05-16 12:20:30.111 -0400,9876.764418000001,-0.623046875,-0.04925537109375,-0.527740478515625,1,0.98
2020-05-16 12:20:30.180 -0400,9876.834259000001,-0.8702392578125,0.11895751953125,-0.6681365966796875,1,0.98
2020-05-16 12:20:30.253 -0400,9876.904101,-0.7834930419921875,0.2515106201171875,-0.7131500244140625,1,0.98
2020-05-16 12:20:30.320 -0400,9876.973938000001,-0.6501617431640625,0.234283447265625,-0.6654205322265625,1,0.98
2020-05-16 12:20:30.390 -0400,9877.043773000001,-0.630340576171875,0.582183837890625,-0.2512359619140625,1,0.98
2020-05-16 12:20:30.460 -0400,9877.113612000001,-0.7065887451171875,0.90240478515625,-0.2960662841796875,1,0.98
2020-05-16 12:20:30.530 -0400,9877.183450250001,-0.7847747802734375,0.9522247314453125,-0.1809844970703125,1,0.98
2020-05-16 12:20:30.599 -0400,9877.253292250001,-0.765472412109375,0.6900787353515625,0.205108642578125,1,0.98
2020-05-16 12:20:30.669 -0400,9877.323135250001,-0.805633544921875,0.5784149169921875,0.15435791015625,1,0.98
2020-05-16 12:20:30.739 -0400,9877.392977250001,-0.741912841796875,0.652435302734375,0.18939208984375,1,0.98
2020-05-16 12:20:30.809 -0400,9877.46281825,-0.7107391357421875,0.776153564453125,0.176177978515625,1,0.98
2020-05-16 12:20:30.879 -0400,9877.532660250001,-0.59698486328125,0.572113037109375,0.1774749755859375,1,0.98
2020-05-16 12:20:30.949 -0400,9877.60250325,-0.5332489013671875,0.76361083984375,0.28289794921875,1,0.98
2020-05-16 12:20:31.018 -0400,9877.672346250001,-0.4476776123046875,0.841644287109375,0.2547760009765625,1,0.98
2020-05-16 12:20:31.088 -0400,9877.742186250001,-0.4183349609375,0.977325439453125,0.6536712646484375,1,0.98
2020-05-16 12:20:31.158 -0400,9877.81202825,-0.323974609375,0.7718658447265625,0.643585205078125,1,0.98
2020-05-16 12:20:31.228 -0400,9877.881871250001,-0.269683837890625,0.88275146484375,0.4511566162109375,1,0.98
2020-05-16 12:20:31.298 -0400,9877.951715250001,-0.1748809814453125,1.113052368164062,0.344970703125,1,0.98
2020-05-16 12:20:31.368 -0400,9878.021554250001,-0.1068572998046875,1.042434692382812,0.2416839599609375,1,0.98
2020-05-16 12:20:31.438 -0400,9878.091394250001,-0.1263580322265625,0.760894775390625,0.097198486328125,1,0.98
2020-05-16 12:20:31.507 -0400,9878.161238250001,-0.015472412109375,0.7366180419921875,0.001983642578125,1,0.98
2020-05-16 12:20:31.577 -0400,9878.231075875001,0.17401123046875,0.5715789794921875,-0.0223846435546875,1,0.98
2020-05-16 12:20:31.647 -0400,9878.300917875,0.678619384765625,0.6908416748046875,-0.2430419921875,1,0.98
2020-05-16 12:20:31.717 -0400,9878.370758875,0.89849853515625,0.5487213134765625,-0.40814208984375,1,0.98
2020-05-16 12:20:31.787 -0400,9878.440603875,2.04669189453125,0.8905181884765625,-0.0924224853515625,1,0.98
2020-05-16 12:20:31.857 -0400,9878.510449875001,0.943878173828125,0.728851318359375,0.06488037109375,1,0.98
2020-05-16 12:20:31.926 -0400,9878.580292875,0.86328125,0.4681396484375,-0.1475677490234375,1,0.98
2020-05-16 12:20:31.996 -0400,9878.650135875001,0.76800537109375,0.5065155029296875,-0.1031341552734375,1,0.98
2020-05-16 12:20:32.066 -0400,9878.719981875001,0.7178497314453125,0.3624725341796875,-0.019134521484375,1,0.98
2020-05-16 12:20:32.136 -0400,9878.789825875001,1.162933349609375,0.586578369140625,-0.3082733154296875,1,0.98
2020-05-16 12:20:32.206 -0400,9878.859671875001,1.0660400390625,0.645477294921875,-0.4730072021484375,1,0.98
2020-05-16 12:20:32.276 -0400,9878.929515875001,0.8462066650390625,0.297332763671875,-0.648681640625,1,0.98
2020-05-16 12:20:32.346 -0400,9878.999360875001,1.027053833007812,-3.0517578125e-05,-0.546844482421875,1,0.98
2020-05-16 12:20:32.415 -0400,9879.069207875,0.9084625244140625,0.3057861328125,-0.2254486083984375,1,0.98
2020-05-16 12:20:32.485 -0400,9879.139054875001,0.7146453857421875,0.469940185546875,-0.1085205078125,1,0.98
2020-05-16 12:20:32.555 -0400,9879.208898750001,0.720062255859375,0.505340576171875,-0.1466064453125,1,0.98
2020-05-16 12:20:32.625 -0400,9879.278744750001,0.615570068359375,0.4350433349609375,-0.065704345703125,1,0.98
2020-05-16 12:20:32.695 -0400,9879.348588750001,0.5786895751953125,0.4389801025390625,-0.082550048828125,1,0.98
2020-05-16 12:20:32.765 -0400,9879.41843175,0.8680267333984375,0.4546051025390625,-0.191009521484375,1,0.98
2020-05-16 12:20:32.834 -0400,9879.48827575,1.208145141601562,0.439361572265625,-0.31414794921875,1,0.98
2020-05-16 12:20:32.904 -0400,9879.558122750001,1.525985717773438,0.4426727294921875,-0.252044677734375,1,0.98
2020-05-16 12:20:32.974 -0400,9879.62797075,0.990631103515625,0.2215118408203125,-0.654571533203125,1,0.98
2020-05-16 12:20:33.044 -0400,9879.697818750001,0.977325439453125,-0.4893341064453125,-0.524749755859375,1,0.98
2020-05-16 12:20:33.120 -0400,9879.767664750001,0.4202117919921875,0.5963287353515625,-0.280975341796875,1,0.98
2020-05-16 12:20:33.184 -0400,9879.837508750001,0.371337890625,0.3701934814453125,-0.1255340576171875,1,0.98
2020-05-16 12:20:33.254 -0400,9879.907355750001,0.54608154296875,0.4863739013671875,-0.2467498779296875,1,0.98
2020-05-16 12:20:33.324 -0400,9879.977200750001,0.71185302734375,0.4517822265625,-0.3495330810546875,1,0.98
2020-05-16 12:20:33.393 -0400,9880.047044750001,1.210342407226562,0.599517822265625,-0.527557373046875,1,0.98
2020-05-16 12:20:33.463 -0400,9880.116889750001,1.822341918945312,0.565185546875,-0.5521392822265625,1,0.98
2020-05-16 12:20:33.533 -0400,9880.186734375,1.127792358398438,0.3132476806640625,-0.3448486328125,1,0.98
2020-05-16 12:20:33.603 -0400,9880.256583375001,1.145172119140625,0.4198150634765625,-0.1927032470703125,1,0.98
2020-05-16 12:20:33.673 -0400,9880.326432375001,0.723297119140625,0.5123748779296875,-0.187835693359375,1,0.98
2020-05-16 12:20:33.743 -0400,9880.396282375001,0.483917236328125,0.37786865234375,-0.022216796875,1,0.98
2020-05-16 12:20:33.812 -0400,9880.466131375,0.5132904052734375,0.342926025390625,-0.018951416015625,1,0.98
2020-05-16 12:20:33.882 -0400,9880.535982375,0.733367919921875,0.33099365234375,-0.0237274169921875,1,0.98
2020-05-16 12:20:33.952 -0400,9880.605835375001,0.9500579833984375,0.3050689697265625,-0.06353759765625,1,0.98
2020-05-16 12:20:34.022 -0400,9880.675689375001,0.9449310302734375,0.4166717529296875,-0.2907867431640625,1,0.98
2020-05-16 12:20:34.092 -0400,9880.745541375001,1.269271850585938,0.445526123046875,-0.3115234375,1,0.98
2020-05-16 12:20:34.162 -0400,9880.815391375001,1.199462890625,0.4819183349609375,-0.650909423828125,1,0.98
2020-05-16 12:20:34.231 -0400,9880.885242375001,0.9186248779296875,0.46044921875,-0.4519195556640625,1,0.98
2020-05-16 12:20:34.301 -0400,9880.955091375001,0.5180816650390625,0.3451690673828125,-0.27850341796875,1,0.98
2020-05-16 12:20:34.371 -0400,9881.024939375,0.56036376953125,0.5833892822265625,-0.2554931640625,1,0.98
2020-05-16 12:20:34.441 -0400,9881.094782375001,0.8041534423828125,0.6763763427734375,-0.3598785400390625,1,0.98
2020-05-16 12:20:34.511 -0400,9881.164629375,0.8603668212890625,0.5952301025390625,-0.3811492919921875,1,0.98
2020-05-16 12:20:34.581 -0400,9881.234480625,1.515777587890625,0.65643310546875,-0.4380645751953125,1,0.98
2020-05-16 12:20:34.650 -0400,9881.304328625001,1.706085205078125,0.488525390625,-0.49884033203125,1,0.98
2020-05-16 12:20:34.721 -0400,9881.374177625001,1.70703125,0.3979034423828125,-0.1965484619140625,1,0.98
2020-05-16 12:20:34.790 -0400,9881.444025625,1.115707397460938,0.450592041015625,-0.14404296875,1,0.98
2020-05-16 12:20:34.860 -0400,9881.513872625001,0.6450653076171875,0.528228759765625,-0.046295166015625,1,0.98
2020-05-16 12:20:34.930 -0400,9881.583717625001,0.5756378173828125,0.621673583984375,0.0919189453125,1,0.98
2020-05-16 12:20:35.000 -0400,9881.653564625001,0.292510986328125,0.8173828125,0.148193359375,1,0.98
2020-05-16 12:20:35.070 -0400,9881.723412625,0.0518646240234375,1.04180908203125,0.105255126953125,1,0.98
2020-05-16 12:20:35.139 -0400,9881.793262625,-0.6209259033203125,0.9270172119140625,-0.16290283203125,1,0.98
2020-05-16 12:20:35.209 -0400,9881.863112625,-0.6622772216796875,0.756072998046875,-0.321563720703125,1,0.98
2020-05-16 12:20:35.279 -0400,9881.932962625,-0.4899444580078125,0.795318603515625,-0.536224365234375,1,0.98
2020-05-16 12:20:35.349 -0400,9882.002811625001,-0.321258544921875,0.2988128662109375,-0.3821258544921875,1,0.98
2020-05-16 12:20:35.419 -0400,9882.072661625001,-0.503448486328125,-0.0357513427734375,-0.3253326416015625,1,0.98
2020-05-16 12:20:35.489 -0400,9882.142510625001,-0.6573638916015625,0.1067657470703125,-0.41046142578125,1,0.98
2020-05-16 12:20:35.559 -0400,9882.212359375,-0.776214599609375,0.35125732421875,-0.50054931640625,1,0.98
2020-05-16 12:20:35.628 -0400,9882.282211375001,-0.853302001953125,0.519622802734375,-0.5867462158203125,1,0.98
2020-05-16 12:20:35.698 -0400,9882.352063375001,-1.202407836914062,0.5762786865234375,-0.509307861328125,1,0.98
2020-05-16 12:20:35.768 -0400,9882.421915375,-1.18914794921875,0.6676177978515625,-0.10443115234375,1,0.98
2020-05-16 12:20:35.838 -0400,9882.491764375001,-0.899993896484375,0.494384765625,-0.3791961669921875,1,0.98
2020-05-16 12:20:35.908 -0400,9882.561611375,-0.6258544921875,0.299468994140625,-0.090179443359375,1,0.98
2020-05-16 12:20:35.978 -0400,9882.631461375,-0.483673095703125,0.377685546875,-0.3383331298828125,1,0.98
2020-05-16 12:20:36.048 -0400,9882.701310375001,-0.57489013671875,0.2887115478515625,-0.38153076171875,1,0.98
2020-05-16 12:20:36.117 -0400,9882.771156375,-0.712371826171875,0.356597900390625,-0.4412689208984375,1,0.98
2020-05-16 12:20:36.187 -0400,9882.841002375,-0.826690673828125,0.551422119140625,-0.6003875732421875,1,0.98
2020-05-16 12:20:36.257 -0400,9882.910850375001,-1.096237182617188,0.75201416015625,-0.54583740234375,1,0.98
2020-05-16 12:20:36.327 -0400,9882.980700375001,-0.819244384765625,0.7677154541015625,-0.55877685546875,1,0.98
2020-05-16 12:20:36.397 -0400,9883.050547375,-0.692840576171875,0.5282135009765625,-0.409027099609375,1,0.98
2020-05-16 12:20:36.466 -0400,9883.120392375,-0.6558074951171875,0.1617584228515625,-0.3437957763671875,1,0.98
2020-05-16 12:20:36.536 -0400,9883.190238125,-0.53424072265625,0.24102783203125,-0.2449188232421875,1,0.98
2020-05-16 12:20:36.606 -0400,9883.260088125,-0.5858306884765625,0.233734130859375,-0.514251708984375,1,0.98
2020-05-16 12:20:36.676 -0400,9883.329943125,-0.7392425537109375,0.2795562744140625,-0.5003509521484375,1,0.98
2020-05-16 12:20:36.746 -0400,9883.399792125001,-0.664398193359375,0.4454345703125,-0.5819854736328125,1,0.98
2020-05-16 12:20:36.816 -0400,9883.469642125001,-0.4311676025390625,0.8682098388671875,-0.3196868896484375,1,0.98
2020-05-16 12:20:36.886 -0400,9883.539495125,-0.2111053466796875,0.9318389892578125,-0.1862335205078125,1,0.98
2020-05-16 12:20:36.955 -0400,9883.609347125001,0.0822296142578125,1.094390869140625,-0.3336639404296875,1,0.98
2020-05-16 12:20:37.025 -0400,9883.679194125001,-0.04718017578125,0.910064697265625,-0.23309326171875,1,0.98
2020-05-16 12:20:37.095 -0400,9883.749043125001,-0.5688018798828125,1.20281982421875,-0.8574371337890625,1,0.98
2020-05-16 12:20:37.165 -0400,9883.818893125001,-0.3626861572265625,1.121536254882812,-0.7324371337890625,1,0.98
2020-05-16 12:20:37.235 -0400,9883.888739125001,-0.045166015625,0.806732177734375,-0.4954833984375,1,0.98
2020-05-16 12:20:37.305 -0400,9883.958585125001,0.375244140625,0.5139923095703125,-0.50323486328125,1,0.98
2020-05-16 12:20:37.375 -0400,9884.028428125001,0.77880859375,0.2576904296875,-0.348663330078125,1,0.98
2020-05-16 12:20:37.444 -0400,9884.098275125001,1.634536743164062,0.6350250244140625,-0.810516357421875,1,0.98
2020-05-16 12:20:37.514 -0400,9884.168125125001,1.651336669921875,0.24017333984375,0.05645751953125,1,0.98
2020-05-16 12:20:37.584 -0400,9884.237972500001,1.416915893554688,0.3352508544921875,-0.0410003662109375,1,0.98
2020-05-16 12:20:37.654 -0400,9884.3078245,0.959716796875,0.6588592529296875,0.0190887451171875,1,0.98
2020-05-16 12:20:37.724 -0400,9884.3776755,0.72412109375,0.7489013671875,0.1035308837890625,1,0.98
2020-05-16 12:20:37.794 -0400,9884.4475265,0.7270050048828125,0.6714935302734375,0.0724334716796875,1,0.98
2020-05-16 12:20:37.864 -0400,9884.5173775,0.8235626220703125,0.812713623046875,-0.1342010498046875,1,0.98
2020-05-16 12:20:37.933 -0400,9884.5872265,1.446640014648438,0.714874267578125,-0.2325439453125,1,0.98
2020-05-16 12:20:38.003 -0400,9884.657075500001,1.35107421875,0.7193603515625,-0.4366302490234375,1,0.98
2020-05-16 12:20:38.073 -0400,9884.7269235,1.530380249023438,0.471923828125,-0.3193817138671875,1,0.98
2020-05-16 12:20:38.143 -0400,9884.796775500001,1.353530883789062,0.1562652587890625,-0.2886810302734375,1,0.98
2020-05-16 12:20:38.213 -0400,9884.866627500001,0.7050628662109375,0.214599609375,-0.2184295654296875,1,0.98
2020-05-16 12:20:38.283 -0400,9884.9364785,0.387542724609375,0.2930450439453125,-0.1191253662109375,1,0.98
2020-05-16 12:20:38.353 -0400,9885.0063295,0.42266845703125,0.2872467041015625,-0.02618408203125,1,0.98
2020-05-16 12:20:38.422 -0400,9885.076176500001,0.6632232666015625,0.2777557373046875,0.0094146728515625,1,0.98
2020-05-16 12:20:38.492 -0400,9885.146026500001,1.116744995117188,0.376129150390625,-0.0363616943359375,1,0.98
2020-05-16 12:20:38.562 -0400,9885.215878625,1.3349609375,0.4422149658203125,-0.139251708984375,1,0.98
2020-05-16 12:20:38.632 -0400,9885.285722625,1.411026000976562,0.587371826171875,-0.29669189453125,1,0.98
2020-05-16 12:20:38.702 -0400,9885.355570625001,1.024063110351562,0.511627197265625,-0.451263427734375,1,0.98
2020-05-16 12:20:38.772 -0400,9885.425417625002,0.780487060546875,0.2969207763671875,-0.288543701171875,1,0.98
2020-05-16 12:20:38.841 -0400,9885.495266625001,0.6654815673828125,0.2911834716796875,-0.2924041748046875,1,0.98
2020-05-16 12:20:38.912 -0400,9885.565116625001,0.7028045654296875,0.5107879638671875,-0.318084716796875,1,0.98
2020-05-16 12:20:38.981 -0400,9885.634969625,0.8465576171875,0.5630645751953125,-0.3767852783203125,1,0.98
2020-05-16 12:20:39.051 -0400,9885.704819625,0.911041259765625,0.4740447998046875,-0.3812255859375,1,0.98
2020-05-16 12:20:39.121 -0400,9885.774667625001,1.215194702148438,0.386932373046875,-0.4251861572265625,1,0.98
2020-05-16 12:20:39.191 -0400,9885.844521625,1.605316162109375,0.28179931640625,-0.4419097900390625,1,0.98
2020-05-16 12:20:39.261 -0400,9885.914376625,1.204803466796875,-0.2233123779296875,-0.4125518798828125,1,0.98
2020-05-16 12:20:39.330 -0400,9885.984233625,1.1556396484375,0.3597564697265625,-0.1550140380859375,1,0.98
2020-05-16 12:20:39.400 -0400,9886.054087625,0.8718719482421875,0.577484130859375,-0.0333709716796875,1,0.98
2020-05-16 12:20:39.470 -0400,9886.123938625,0.5958251953125,0.315399169921875,-0.0364837646484375,1,0.98
2020-05-16 12:20:39.540 -0400,9886.193788416667,0.504302978515625,0.315032958984375,0.0472564697265625,1,0.98
2020-05-16 12:20:39.610 -0400,9886.263637416667,0.584930419921875,0.3758087158203125,0.0701904296875,1,0.98
2020-05-16 12:20:39.680 -0400,9886.333483416667,0.7470550537109375,0.36480712890625,0.0492706298828125,1,0.98
2020-05-16 12:20:39.750 -0400,9886.403332416667,0.99359130859375,0.477020263671875,-0.132232666015625,1,0.98
2020-05-16 12:20:39.819 -0400,9886.473178416667,1.276611328125,0.4650115966796875,-0.3716278076171875,1,0.98
2020-05-16 12:20:39.889 -0400,9886.543029416667,1.456069946289062,0.3386993408203125,-0.6012115478515625,1,0.98
2020-05-16 12:20:39.959 -0400,9886.612879416667,0.7192230224609375,0.200408935546875,-0.7766876220703125,1,0.98
2020-05-16 12:20:40.029 -0400,9886.682732416668,0.770172119140625,0.552581787109375,-0.4822845458984375,1,0.98
2020-05-16 12:20:40.099 -0400,9886.752586416667,0.6008453369140625,0.7049102783203125,-0.2449188232421875,1,0.98
2020-05-16 12:20:40.169 -0400,9886.822437416668,0.65899658203125,0.3140411376953125,-0.1978759765625,1,0.98
2020-05-16 12:20:40.247 -0400,9886.892284416666,0.8250732421875,0.4606170654296875,-0.2161865234375,1,0.98
2020-05-16 12:20:40.309 -0400,9886.962137416667,0.768341064453125,0.4633636474609375,-0.1631011962890625,1,0.98
2020-05-16 12:20:40.378 -0400,9887.031987416667,0.9764862060546875,0.5112762451171875,-0.25128173828125,1,0.98
2020-05-16 12:20:40.448 -0400,9887.101837416667,1.6182861328125,0.7086944580078125,-0.361053466796875,1,0.98
2020-05-16 12:20:40.518 -0400,9887.171686416666,0.8470611572265625,0.4908294677734375,-0.1971893310546875,1,0.98
2020-05-16 12:20:40.588 -0400,9887.241535750001,0.8803863525390625,0.3008880615234375,-0.0756683349609375,1,0.98
2020-05-16 12:20:40.658 -0400,9887.31138775,1.09967041015625,0.3947906494140625,-0.2077789306640625,1,0.98
2020-05-16 12:20:40.727 -0400,9887.381239750001,0.8502655029296875,0.316558837890625,-0.0992584228515625,1,0.98
2020-05-16 12:20:40.797 -0400,9887.45108775,0.6136474609375,0.324676513671875,-0.0357818603515625,1,0.98
2020-05-16 12:20:40.867 -0400,9887.52093275,0.6520843505859375,0.3300323486328125,-0.03533935546875,1,0.98
2020-05-16 12:20:40.937 -0400,9887.59077875,0.9854736328125,0.3621673583984375,-0.095611572265625,1,0.98
2020-05-16 12:20:41.007 -0400,9887.66062375,1.217422485351562,0.3673248291015625,-0.1299591064453125,1,0.98
2020-05-16 12:20:41.077 -0400,9887.730471750001,1.248580932617188,0.48065185546875,-0.2444305419921875,1,0.98
2020-05-16 12:20:41.147 -0400,9887.80031875,0.7667999267578125,0.4981689453125,-0.4100494384765625,1,0.98
2020-05-16 12:20:41.216 -0400,9887.87016975,0.86029052734375,0.42840576171875,-0.2662200927734375,1,0.98
2020-05-16 12:20:41.286 -0400,9887.940018750001,0.7628173828125,0.33892822265625,-0.2633056640625,1,0.98
2020-05-16 12:20:41.356 -0400,9888.00986575,0.7370758056640625,0.5888519287109375,-0.279571533203125,1,0.98
2020-05-16 12:20:41.426 -0400,9888.079717750001,0.916046142578125,0.5534515380859375,-0.29229736328125,1,0.98
2020-05-16 12:20:41.496 -0400,9888.14957175,0.8167724609375,0.4165191650390625,-0.2547149658203125,1,0.98
2020-05-16 12:20:41.566 -0400,9888.219424250001,1.469589233398438,0.5852813720703125,-0.351104736328125,1,0.98
2020-05-16 12:20:41.635 -0400,9888.289275250001,1.165390014648438,0.383880615234375,-0.306640625,1,0.98
2020-05-16 12:20:41.705 -0400,9888.35912725,0.7960662841796875,0.1977386474609375,-0.1572418212890625,1,0.98
2020-05-16 12:20:41.775 -0400,9888.42897925,1.273468017578125,0.4154815673828125,-0.1754608154296875,1,0.98
2020-05-16 12:20:41.845 -0400,9888.498832250001,1.174560546875,0.34075927734375,-0.0784454345703125,1,0.98
2020-05-16 12:20:41.915 -0400,9888.56868525,0.70989990234375,0.2234344482421875,0.026092529296875,1,0.98
2020-05-16 12:20:41.985 -0400,9888.638538250001,0.5625,0.3824462890625,0.0055694580078125,1,0.98
2020-05-16 12:20:42.055 -0400,9888.70839025,0.577484130859375,0.365203857421875,0.017242431640625,1,0.98
2020-05-16 12:20:42.125 -0400,9888.778244250001,0.6725616455078125,0.367340087890625,-0.0439300537109375,1,0.98
2020-05-16 12:20:42.194 -0400,9888.84809825,0.738555908203125,0.35150146484375,-0.0381011962890625,1,0.98
2020-05-16 12:20:42.264 -0400,9888.91795325,0.9616241455078125,0.3791961669921875,0.0268707275390625,1,0.98
2020-05-16 12:20:42.334 -0400,9888.98780925,2.0245361328125,1.012649536132812,-0.2240753173828125,1,0.98
2020-05-16 12:20:42.404 -0400,9889.057661250001,0.8562469482421875,0.562255859375,-0.5174713134765625,1,0.98
2020-05-16 12:20:42.474 -0400,9889.12751025,1.179168701171875,0.1099395751953125,-0.91534423828125,1,0.98
2020-05-16 12:20:42.544 -0400,9889.197360666667,0.75653076171875,0.207244873046875,-0.671630859375,1,0.98
2020-05-16 12:20:42.613 -0400,9889.267210666667,0.71759033203125,0.38079833984375,-0.34075927734375,1,0.98
2020-05-16 12:20:42.683 -0400,9889.337062666667,0.6746978759765625,0.599273681640625,-0.2196044921875,1,0.98
2020-05-16 12:20:42.753 -0400,9889.406914666668,0.6633453369140625,0.5099029541015625,-0.3267669677734375,1,0.98
2020-05-16 12:20:42.823 -0400,9889.476763666667,0.645782470703125,0.4019012451171875,-0.31927490234375,1,0.98
2020-05-16 12:20:42.893 -0400,9889.546612666667,0.7801361083984375,0.359161376953125,-0.32489013671875,1,0.98
2020-05-16 12:20:42.963 -0400,9889.616460666668,1.525054931640625,0.3429107666015625,-0.726959228515625,1,0.98
2020-05-16 12:20:43.033 -0400,9889.686310666668,1.156082153320312,0.1933135986328125,-0.68243408203125,1,0.98
2020-05-16 12:20:43.103 -0400,9889.756163666667,0.621002197265625,0.2064971923828125,-0.6204071044921875,1,0.98
2020-05-16 12:20:43.172 -0400,9889.826013666667,0.55413818359375,0.3471832275390625,-0.4494171142578125,1,0.98
2020-05-16 12:20:43.243 -0400,9889.895859666667,0.4715118408203125,0.446929931640625,-0.4097442626953125,1,0.98
2020-05-16 12:20:43.312 -0400,9889.965707666668,0.7534637451171875,0.4029083251953125,-0.392120361328125,1,0.98
2020-05-16 12:20:43.382 -0400,9890.035553666667,0.491973876953125,0.3886871337890625,-0.3685455322265625,1,0.98
2020-05-16 12:20:43.452 -0400,9890.105403666666,0.402496337890625,0.4164276123046875,-0.7238311767578125,1,0.98
2020-05-16 12:20:43.521 -0400,9890.175253666668,0.61846923828125,0.3846588134765625,-0.65399169921875,1,0.98
2020-05-16 12:20:43.591 -0400,9890.245101125001,0.7965545654296875,-0.197235107421875,-0.683807373046875,1,0.98
2020-05-16 12:20:43.661 -0400,9890.314951125001,1.264892578125,0.36883544921875,-0.1473846435546875,1,0.98
2020-05-16 12:20:43.731 -0400,9890.384803125,1.475906372070312,0.6535797119140625,-0.0127105712890625,1,0.98
2020-05-16 12:20:43.801 -0400,9890.454649125,1.272781372070312,0.5111236572265625,-0.1137237548828125,1,0.98
2020-05-16 12:20:43.871 -0400,9890.524497125001,0.8340301513671875,0.5750274658203125,0.0141448974609375,1,0.98
2020-05-16 12:20:43.941 -0400,9890.594349125,0.578826904296875,0.4603424072265625,-0.0208892822265625,1,0.98
2020-05-16 12:20:44.011 -0400,9890.664200125,0.45947265625,0.516265869140625,-0.1129913330078125,1,0.98
2020-05-16 12:20:44.080 -0400,9890.734053125001,0.6046600341796875,0.66741943359375,-0.2376861572265625,1,0.98
2020-05-16 12:20:44.150 -0400,9890.803906125,1.30426025390625,0.690399169921875,-0.2694244384765625,1,0.98
2020-05-16 12:20:44.220 -0400,9890.873759125001,1.370651245117188,0.37835693359375,-0.51702880859375,1,0.98
2020-05-16 12:20:44.290 -0400,9890.943609125001,1.687850952148438,0.4571990966796875,-0.3809356689453125,1,0.98
2020-05-16 12:20:44.360 -0400,9891.013460125001,1.824661254882812,0.3016510009765625,-0.2799224853515625,1,0.98
2020-05-16 12:20:44.430 -0400,9891.083312125,0.942535400390625,0.2744598388671875,-0.214874267578125,1,0.98
2020-05-16 12:20:44.500 -0400,9891.153163125,0.4654541015625,0.2330322265625,-0.12945556640625,1,0.98
2020-05-16 12:20:44.569 -0400,9891.223015625001,0.3623046875,0.2723388671875,-0.11279296875,1,0.98
2020-05-16 12:20:44.639 -0400,9891.292866625001,0.7616424560546875,0.2093658447265625,-0.1296844482421875,1,0.98
2020-05-16 12:20:44.709 -0400,9891.362714625,1.020309448242188,0.159454345703125,-0.2048187255859375,1,0.98
2020-05-16 12:20:44.779 -0400,9891.432563625001,1.315200805664062,0.267608642578125,-0.1247406005859375,1,0.98
2020-05-16 12:20:44.849 -0400,9891.502413625001,1.819366455078125,0.7537384033203125,-0.5271453857421875,1,0.98
2020-05-16 12:20:44.919 -0400,9891.572262625001,1.184722900390625,0.6070098876953125,-0.5237579345703125,1,0.98
2020-05-16 12:20:44.988 -0400,9891.642110625,1.022872924804688,0.006805419921875,-0.13800048828125,1,0.98
2020-05-16 12:20:45.058 -0400,9891.711958625001,0.693756103515625,0.222137451171875,-0.292816162109375,1,0.98
2020-05-16 12:20:45.128 -0400,9891.781804625001,0.4377288818359375,0.4497528076171875,-0.217864990234375,1,0.98
2020-05-16 12:20:45.198 -0400,9891.851652625,0.5082550048828125,0.3626251220703125,-0.1114959716796875,1,0.98
2020-05-16 12:20:45.268 -0400,9891.921497625,0.700775146484375,0.3966217041015625,-0.1016845703125,1,0.98
2020-05-16 12:20:45.338 -0400,9891.991347625,0.7718658447265625,0.511749267578125,-0.2603607177734375,1,0.98
2020-05-16 12:20:45.407 -0400,9892.061195625001,1.001480102539062,0.5140228271484375,-0.372589111328125,1,0.98
2020-05-16 12:20:45.477 -0400,9892.131044625001,1.334991455078125,-0.00323486328125,-0.9705352783203125,1,0.98
2020-05-16 12:20:45.547 -0400,9892.200892250001,1.344558715820312,0.625701904296875,-0.38580322265625,1,0.98
2020-05-16 12:20:45.617 -0400,9892.270739250001,1.271820068359375,0.287017822265625,-0.119232177734375,1,0.98
2020-05-16 12:20:45.687 -0400,9892.340588250001,1.067153930664062,0.4563446044921875,-0.1625213623046875,1,0.98
2020-05-16 12:20:45.757 -0400,9892.41044125,0.8836822509765625,0.4409637451171875,-0.0850830078125,1,0.98
2020-05-16 12:20:45.827 -0400,9892.480290250001,0.7245025634765625,0.3837432861328125,-0.032623291015625,1,0.98
2020-05-16 12:20:45.896 -0400,9892.550140250001,0.6440887451171875,0.387420654296875,-0.0408782958984375,1,0.98
2020-05-16 12:20:45.966 -0400,9892.61998825,0.6547088623046875,0.3683319091796875,-0.048431396484375,1,0.98
2020-05-16 12:20:46.036 -0400,9892.689835250001,0.7494964599609375,0.326141357421875,-0.0684051513671875,1,0.98
2020-05-16 12:20:46.106 -0400,9892.759681250001,0.78741455078125,0.3410186767578125,-0.11041259765625,1,0.98
2020-05-16 12:20:46.176 -0400,9892.829530250001,0.7623138427734375,0.357574462890625,-0.1563720703125,1,0.98
2020-05-16 12:20:46.246 -0400,9892.89937925,0.8935394287109375,0.344146728515625,-0.1879425048828125,1,0.98
2020-05-16 12:20:46.315 -0400,9892.96922825,1.815353393554688,0.6239013671875,-0.2891845703125,1,0.98
2020-05-16 12:20:46.385 -0400,9893.039077250001,0.61029052734375,0.4435577392578125,-0.720703125,1,0.98
2020-05-16 12:20:46.455 -0400,9893.10892925,1.045639038085938,0.0153961181640625,-0.0009002685546875,1,0.98
2020-05-16 12:20:46.525 -0400,9893.178781250001,0.5386505126953125,0.28179931640625,-0.313201904296875,1,0.98
2020-05-16 12:20:46.595 -0400,9893.248634875001,0.4621734619140625,0.580902099609375,-0.2993011474609375,1,0.98
2020-05-16 12:20:46.665 -0400,9893.318490875001,0.6078338623046875,0.4590911865234375,-0.370574951171875,1,0.98
2020-05-16 12:20:46.735 -0400,9893.388337875,0.630706787109375,0.3803863525390625,-0.3075714111328125,1,0.98
2020-05-16 12:20:46.804 -0400,9893.458186875001,0.7647857666015625,0.4120941162109375,-0.2996368408203125,1,0.98
2020-05-16 12:20:46.874 -0400,9893.528038875,0.8882598876953125,0.734832763671875,-0.36236572265625,1,0.98
2020-05-16 12:20:46.944 -0400,9893.597894875,0.8220062255859375,0.5089569091796875,-0.3624420166015625,1,0.98
2020-05-16 12:20:47.014 -0400,9893.667749875001,1.981964111328125,1.031356811523438,-0.5766448974609375,1,0.98
2020-05-16 12:20:47.084 -0400,9893.737605875001,1.611160278320312,0.1587982177734375,-0.29052734375,1,0.98
2020-05-16 12:20:47.154 -0400,9893.807459875001,1.109283447265625,0.285980224609375,-0.2216949462890625,1,0.98
2020-05-16 12:20:47.224 -0400,9893.877313875,0.7275848388671875,0.3943634033203125,-0.18048095703125,1,0.98
2020-05-16 12:20:47.294 -0400,9893.947165875001,0.6628570556640625,0.41436767578125,-0.0807037353515625,1,0.98
2020-05-16 12:20:47.363 -0400,9894.017015875001,0.6726837158203125,0.195220947265625,-0.0316619873046875,1,0.98
2020-05-16 12:20:47.433 -0400,9894.086863875,0.4970855712890625,0.10595703125,-0.0457611083984375,1,0.98
2020-05-16 12:20:47.503 -0400,9894.156716875001,0.4740753173828125,0.1836090087890625,-0.1135711669921875,1,0.98
2020-05-16 12:20:47.573 -0400,9894.226570250001,1.808181762695312,0.5822906494140625,-0.176849365234375,1,0.98
2020-05-16 12:20:47.643 -0400,9894.296425250001,2.001205444335938,1.054611206054688,-0.9073944091796875,1,0.98
2020-05-16 12:20:47.713 -0400,9894.366278250001,1.12249755859375,0.6370391845703125,0.009002685546875,1,0.98
2020-05-16 12:20:47.782 -0400,9894.43613025,0.8787841796875,0.084716796875,-0.38275146484375,1,0.98
2020-05-16 12:20:47.852 -0400,9894.50598125,0.4741058349609375,0.5501556396484375,-0.6882781982421875,1,0.98
2020-05-16 12:20:47.922 -0400,9894.575833250001,0.798919677734375,0.712615966796875,-0.65325927734375,1,0.98
2020-05-16 12:20:47.992 -0400,9894.645683250001,1.370880126953125,0.5859527587890625,-0.5054473876953125,1,0.98
2020-05-16 12:20:48.062 -0400,9894.715533250001,2.162948608398438,0.41461181640625,-0.3615570068359375,1,0.98
2020-05-16 12:20:48.132 -0400,9894.785385250001,2.219650268554688,0.4852142333984375,-0.2590484619140625,1,0.98
2020-05-16 12:20:48.201 -0400,9894.85523325,1.4500732421875,0.5435791015625,-0.2289886474609375,1,0.98
2020-05-16 12:20:48.271 -0400,9894.92508225,0.7001495361328125,0.3065338134765625,0.018310546875,1,0.98
2020-05-16 12:20:48.341 -0400,9894.99493225,0.3496551513671875,0.0379791259765625,0.077606201171875,1,0.98
2020-05-16 12:20:48.411 -0400,9895.064787250001,0.2454833984375,0.03289794921875,0.074371337890625,1,0.98
2020-05-16 12:20:48.481 -0400,9895.134642250001,0.4158935546875,0.11529541015625,0.0896453857421875,1,0.98
2020-05-16 12:20:48.551 -0400,9895.20449475,0.48455810546875,0.3759002685546875,-0.0408477783203125,1,0.98
2020-05-16 12:20:48.621 -0400,9895.274347750001,1.164306640625,0.6844024658203125,-0.0133514404296875,1,0.98
2020-05-16 12:20:48.690 -0400,9895.34420175,2.454116821289062,1.058303833007812,-0.7890472412109375,1,0.98
2020-05-16 12:20:48.760 -0400,9895.414050750001,1.005477905273438,0.9001617431640625,-0.5203857421875,1,0.98
2020-05-16 12:20:48.830 -0400,9895.48390175,0.92730712890625,-0.267730712890625,-0.3757781982421875,1,0.98
2020-05-16 12:20:48.900 -0400,9895.55375175,0.8623046875,0.6233978271484375,-0.418182373046875,1,0.98
2020-05-16 12:20:48.970 -0400,9895.623604750001,0.8369293212890625,1.168411254882812,-0.6493072509765625,1,0.98
2020-05-16 12:20:49.040 -0400,9895.693455750001,1.189010620117188,0.9343719482421875,-0.6746368408203125,1,0.98
2020-05-16 12:20:49.110 -0400,9895.763302750001,1.651382446289062,0.2022705078125,-0.463470458984375,1,0.98
2020-05-16 12:20:49.179 -0400,9895.83315375,1.654022216796875,0.303314208984375,-0.2553558349609375,1,0.98
2020-05-16 12:20:49.250 -0400,9895.90300475,1.521591186523438,0.55615234375,-0.2568206787109375,1,0.98
2020-05-16 12:20:49.319 -0400,9895.972856750001,0.7862091064453125,0.314239501953125,-0.132720947265625,1,0.98
2020-05-16 12:20:49.389 -0400,9896.042708750001,0.4462127685546875,0.26763916015625,0.0767364501953125,1,0.98
2020-05-16 12:20:49.459 -0400,9896.11256075,0.4886474609375,0.2796478271484375,0.076507568359375,1,0.98
2020-05-16 12:20:49.529 -0400,9896.182414750001,0.89312744140625,0.31488037109375,0.0293121337890625,1,0.98
2020-05-16 12:20:49.599 -0400,9896.252268625001,0.9736328125,0.2388458251953125,-0.100677490234375,1,0.98
2020-05-16 12:20:49.668 -0400,9896.322125625,1.173019409179688,0.419342041015625,-0.3459930419921875,1,0.98
2020-05-16 12:20:49.738 -0400,9896.391975625,1.376113891601562,0.475341796875,-0.656646728515625,1,0.98
2020-05-16 12:20:49.808 -0400,9896.461827625,1.351959228515625,-0.0086669921875,-0.2352142333984375,1,0.98
2020-05-16 12:20:49.878 -0400,9896.531683625,0.901947021484375,0.33447265625,-0.424713134765625,1,0.98
2020-05-16 12:20:49.948 -0400,9896.601534625001,0.6080474853515625,0.6948394775390625,-0.228240966796875,1,0.98
2020-05-16 12:20:50.018 -0400,9896.671387625001,0.767730712890625,0.8032684326171875,-0.35296630859375,1,0.98
2020-05-16 12:20:50.088 -0400,9896.741242625001,0.8929290771484375,0.7062835693359375,-0.5512237548828125,1,0.98
2020-05-16 12:20:50.157 -0400,9896.811097625001,1.306747436523438,0.4919891357421875,-0.521331787109375,1,0.98
2020-05-16 12:20:50.227 -0400,9896.880951625,1.4736328125,0.463470458984375,-0.5167694091796875,1,0.98
2020-05-16 12:20:50.297 -0400,9896.950805625,1.569198608398438,0.361724853515625,-0.3998565673828125,1,0.98
2020-05-16 12:20:50.367 -0400,9897.020661625,1.657562255859375,0.23516845703125,-0.2628021240234375,1,0.98
2020-05-16 12:20:50.437 -0400,9897.090515625001,0.8542327880859375,0.306549072265625,-0.22369384765625,1,0.98
2020-05-16 12:20:50.507 -0400,9897.160369625,0.406036376953125,0.1791839599609375,-0.0469207763671875,1,0.98
2020-05-16 12:20:50.576 -0400,9897.230220875001,0.2667236328125,0.160400390625,0.0203857421875,1,0.98
2020-05-16 12:20:50.646 -0400,9897.300073875,0.3845367431640625,0.20098876953125,-0.0231781005859375,1,0.98
2020-05-16 12:20:50.716 -0400,9897.369927875001,0.6588287353515625,0.2527313232421875,-0.07855224609375,1,0.98
2020-05-16 12:20:50.786 -0400,9897.439781875,1.1817626953125,0.3510894775390625,-0.191986083984375,1,0.98
2020-05-16 12:20:50.856 -0400,9897.509639875001,1.862396240234375,0.6450653076171875,-0.4783782958984375,1,0.98
2020-05-16 12:20:50.926 -0400,9897.579494875001,1.280975341796875,0.6212921142578125,-0.5969696044921875,1,0.98
2020-05-16 12:20:50.996 -0400,9897.649352875,1.252670288085938,-0.28662109375,-0.259185791015625,1,0.98
2020-05-16 12:20:51.065 -0400,9897.719215875,0.7357025146484375,0.319793701171875,-0.271331787109375,1,0.98
2020-05-16 12:20:51.135 -0400,9897.789070875,0.427581787109375,0.723876953125,-0.244232177734375,1,0.98
2020-05-16 12:20:51.205 -0400,9897.858929875001,0.5253143310546875,0.5049896240234375,-0.27764892578125,1,0.98
2020-05-16 12:20:51.283 -0400,9897.928786875,0.806060791015625,0.4106597900390625,-0.315673828125,1,0.98
2020-05-16 12:20:51.345 -0400,9897.998640875001,1.174087524414062,0.4933929443359375,-0.357269287109375,1,0.98
2020-05-16 12:20:51.415 -0400,9898.068499875,1.115676879882812,0.6324005126953125,-0.5673980712890625,1,0.98
2020-05-16 12:20:51.485 -0400,9898.138355875,1.707855224609375,0.474700927734375,-0.2578582763671875,1,0.98
2020-05-16 12:20:51.554 -0400,9898.20821425,1.344451904296875,0.091339111328125,-0.07061767578125,1,0.98
2020-05-16 12:20:51.624 -0400,9898.278071250001,0.6578826904296875,0.375213623046875,-0.130828857421875,1,0.98
2020-05-16 12:20:51.694 -0400,9898.347928250001,0.4462890625,0.4126739501953125,0.0251617431640625,1,0.98
2020-05-16 12:20:51.764 -0400,9898.41778525,0.546875,0.3286895751953125,0.1287689208984375,1,0.98
2020-05-16 12:20:51.834 -0400,9898.48764225,0.897247314453125,0.3488922119140625,0.1013641357421875,1,0.98
2020-05-16 12:20:51.904 -0400,9898.55749725,1.205307006835938,0.3828277587890625,-0.0797119140625,1,0.98
2020-05-16 12:20:51.974 -0400,9898.627352250001,1.310028076171875,0.3112335205078125,-0.0954437255859375,1,0.98
2020-05-16 12:20:52.043 -0400,9898.69720925,1.322372436523438,0.53179931640625,-0.723968505859375,1,0.98
2020-05-16 12:20:52.113 -0400,9898.767067250001,1.082168579101562,0.1646270751953125,-0.5555267333984375,1,0.98
2020-05-16 12:20:52.183 -0400,9898.836923250001,1.0938720703125,-0.214630126953125,-0.420806884765625,1,0.98
2020-05-16 12:20:52.253 -0400,9898.90678325,0.6148529052734375,-0.1752166748046875,-0.344268798828125,1,0.98
2020-05-16 12:20:52.323 -0400,9898.976639250001,0.2697906494140625,0.761749267578125,-0.2230987548828125,1,0.98
2020-05-16 12:20:52.393 -0400,9899.04649425,0.125213623046875,0.3499908447265625,-0.095703125,1,0.98
2020-05-16 12:20:52.463 -0400,9899.11635025,0.5353240966796875,0.3888397216796875,-0.143463134765625,1,0.98
2020-05-16 12:20:52.532 -0400,9899.186209250001,1.54296875,0.734344482421875,-0.3802947998046875,1,0.98
2020-05-16 12:20:52.602 -0400,9899.256069791667,1.566726684570312,0.343414306640625,-0.324310302734375,1,0.98
2020-05-16 12:20:52.672 -0400,9899.325924791667,1.297164916992188,0.4619903564453125,-0.4165496826171875,1,0.98
2020-05-16 12:20:52.742 -0400,9899.395780791667,1.1524658203125,0.4461212158203125,-0.341064453125,1,0.98
2020-05-16 12:20:52.812 -0400,9899.465636791667,1.2857666015625,0.2518310546875,-0.154937744140625,1,0.98
2020-05-16 12:20:52.882 -0400,9899.535490791668,0.8318023681640625,0.2611846923828125,-0.1105804443359375,1,0.98
2020-05-16 12:20:52.952 -0400,9899.605341791666,0.56524658203125,0.4454193115234375,-0.1051483154296875,1,0.98
2020-05-16 12:20:53.022 -0400,9899.675188791667,0.425323486328125,0.3811798095703125,0.0502777099609375,1,0.98
2020-05-16 12:20:53.092 -0400,9899.745041791668,0.54962158203125,0.9486236572265625,-0.01470947265625,1,0.98
2020-05-16 12:20:53.161 -0400,9899.814892791668,0.722808837890625,0.756256103515625,-0.7512054443359375,1,0.98
2020-05-16 12:20:53.231 -0400,9899.884743791667,0.782958984375,0.5193328857421875,-0.8943328857421875,1,0.98
2020-05-16 12:20:53.301 -0400,9899.954593791666,0.6504058837890625,0.3329010009765625,-1.104644775390625,1,0.98
2020-05-16 12:20:53.371 -0400,9900.024440791667,0.6197662353515625,0.1458892822265625,-0.9042205810546875,1,0.98
2020-05-16 12:20:53.441 -0400,9900.094289791667,0.57147216796875,0.074432373046875,-0.781890869140625,1,0.98
2020-05-16 12:20:53.510 -0400,9900.164141791667,0.3650054931640625,0.00244140625,-0.63739013671875,1,0.98
2020-05-16 12:20:53.580 -0400,9900.233994125001,0.22125244140625,-0.081268310546875,-0.537689208984375,1,0.98
2020-05-16 12:20:53.650 -0400,9900.303851125,0.1510467529296875,-0.124298095703125,-0.5993194580078125,1,0.98
2020-05-16 12:20:53.770 -0400,9900.423599125001,0.2910919189453125,0.115447998046875,-1.212631225585938,1,0.98
2020-05-16 12:20:53.889 -0400,9900.543344125001,0.4195556640625,0.4494781494140625,-1.423934936523438,1,0.98
2020-05-16 12:20:54.010 -0400,9900.663096125001,0.2410430908203125,0.3246307373046875,-0.9445953369140625,1,0.98
2020-05-16 12:20:54.130 -0400,9900.782847125001,0.1710052490234375,0.161773681640625,-0.602081298828125,1,0.98
2020-05-16 12:20:54.249 -0400,9900.902592125001,0.066192626953125,0.105712890625,-0.341705322265625,1,0.98
2020-05-16 12:20:54.369 -0400,9901.022337125001,0.495574951171875,0.3043365478515625,-0.4404449462890625,1,0.98
2020-05-16 12:20:54.488 -0400,9901.142079125,1.35455322265625,0.5795135498046875,-0.40216064453125,1,0.98
2020-05-16 12:20:54.608 -0400,9901.261827875001,1.128952026367188,0.784576416015625,-0.4262847900390625,1,0.98
2020-05-16 12:20:54.733 -0400,9901.381573875,0.7657318115234375,0.3219757080078125,-0.1217041015625,1,0.98
2020-05-16 12:20:54.848 -0400,9901.501313875,0.4770050048828125,0.50250244140625,-0.03778076171875,1,0.98
2020-05-16 12:20:54.968 -0400,9901.621059875,0.563140869140625,0.408355712890625,-0.3375396728515625,1,0.98
2020-05-16 12:20:55.087 -0400,9901.740807875001,1.365081787109375,0.64923095703125,-0.648712158203125,1,0.98
2020-05-16 12:20:55.177 -0400,9901.830623875001,1.37640380859375,0.245086669921875,-0.303375244140625,1,0.98
2020-05-16 12:20:55.252 -0400,9901.900480875001,1.188278198242188,0.033477783203125,-0.2241668701171875,1,0.98
2020-05-16 12:20:55.317 -0400,9901.970338875,1.072463989257812,0.525390625,-0.1924591064453125,1,0.98
2020-05-16 12:20:55.387 -0400,9902.040198875,0.6485748291015625,0.424713134765625,-0.16558837890625,1,0.98
2020-05-16 12:20:55.456 -0400,9902.110055875,0.435150146484375,0.272308349609375,-0.0294952392578125,1,0.98
2020-05-16 12:20:55.526 -0400,9902.179908875001,0.4821319580078125,0.3323516845703125,-0.10003662109375,1,0.98
2020-05-16 12:20:55.596 -0400,9902.249765750001,0.765960693359375,0.2978973388671875,-0.0483551025390625,1,0.98
2020-05-16 12:20:55.666 -0400,9902.31962475,1.354080200195312,0.3130950927734375,-0.140869140625,1,0.98
2020-05-16 12:20:55.736 -0400,9902.38948175,1.516250610351562,0.4062347412109375,-0.1739044189453125,1,0.98
2020-05-16 12:20:55.806 -0400,9902.459339750001,1.440567016601562,0.666778564453125,-0.5951995849609375,1,0.98
2020-05-16 12:20:55.876 -0400,9902.52919275,1.2562255859375,0.32421875,-0.2140655517578125,1,0.98
2020-05-16 12:20:55.945 -0400,9902.599046750001,0.7427978515625,0.20831298828125,-0.429931640625,1,0.98
2020-05-16 12:20:56.015 -0400,9902.668895750001,0.4743804931640625,0.4994964599609375,-0.2267608642578125,1,0.98
2020-05-16 12:20:56.085 -0400,9902.73874275,0.383148193359375,0.5095062255859375,-0.263214111328125,1,0.98
2020-05-16 12:20:56.155 -0400,9902.808590750001,0.672088623046875,0.5644378662109375,-0.392974853515625,1,0.98
2020-05-16 12:20:56.225 -0400,9902.878441750001,1.228668212890625,0.5403289794921875,-0.384735107421875,1,0.98
2020-05-16 12:20:56.295 -0400,9902.948290750001,1.651473999023438,0.4498138427734375,-0.3934478759765625,1,0.98
2020-05-16 12:20:56.365 -0400,9903.018142750001,1.275161743164062,0.44677734375,-0.3866119384765625,1,0.98
2020-05-16 12:20:56.434 -0400,9903.087993750001,1.306686401367188,0.382904052734375,-0.191253662109375,1,0.98
2020-05-16 12:20:56.504 -0400,9903.157847750001,1.236038208007812,0.3490142822265625,-0.1562652587890625,1,0.98
2020-05-16 12:20:56.574 -0400,9903.227697416667,0.72796630859375,0.2745819091796875,-0.024261474609375,1,0.98
2020-05-16 12:20:56.644 -0400,9903.297548416667,0.4395904541015625,0.3560028076171875,0.0154266357421875,1,0.98
2020-05-16 12:20:56.714 -0400,9903.367397416667,0.503814697265625,0.3463897705078125,0.047210693359375,1,0.98
2020-05-16 12:20:56.784 -0400,9903.437243416667,0.8351898193359375,0.3366851806640625,-0.006134033203125,1,0.98
2020-05-16 12:20:56.853 -0400,9903.507094416667,1.165145874023438,0.281982421875,-0.071441650390625,1,0.98
2020-05-16 12:20:56.923 -0400,9903.576942416666,1.586822509765625,0.321258544921875,-0.1161041259765625,1,0.98
2020-05-16 12:20:56.993 -0400,9903.646790416667,1.257431030273438,0.5552520751953125,-0.69097900390625,1,0.98
2020-05-16 12:20:57.063 -0400,9903.716635416667,0.96783447265625,0.145538330078125,-0.338897705078125,1,0.98
2020-05-16 12:20:57.133 -0400,9903.786480416667,0.8462371826171875,0.1407623291015625,-0.301483154296875,1,0.98
2020-05-16 12:20:57.202 -0400,9903.856324416667,0.591796875,0.468841552734375,-0.3983154296875,1,0.98
2020-05-16 12:20:57.273 -0400,9903.926171416668,0.4706268310546875,0.437744140625,-0.2736053466796875,1,0.98
2020-05-16 12:20:57.343 -0400,9903.996020416667,0.6292724609375,0.431121826171875,-0.2559661865234375,1,0.98
2020-05-16 12:20:57.412 -0400,9904.065870416667,0.7922210693359375,0.4944610595703125,-0.3853912353515625,1,0.98
2020-05-16 12:20:57.482 -0400,9904.135723416668,0.87237548828125,0.457244873046875,-0.3896484375,1,0.98
2020-05-16 12:20:57.552 -0400,9904.205577000001,1.236907958984375,0.4759063720703125,-0.3341522216796875,1,0.98
2020-05-16 12:20:57.622 -0400,9904.275428000001,1.524322509765625,0.6591949462890625,0.026458740234375,1,0.98
2020-05-16 12:20:57.692 -0400,9904.345282,1.371719360351562,0.475128173828125,-0.0531463623046875,1,0.98
2020-05-16 12:20:57.761 -0400,9904.415131,1.170394897460938,0.470703125,-0.001190185546875,1,0.98
2020-05-16 12:20:57.831 -0400,9904.484984000001,0.72686767578125,0.3572845458984375,-0.0576324462890625,1,0.98
2020-05-16 12:20:57.901 -0400,9904.554840000001,0.5389404296875,0.2584075927734375,-0.0579833984375,1,0.98
2020-05-16 12:20:57.971 -0400,9904.624693,0.550262451171875,0.2322845458984375,-0.07647705078125,1,0.98
2020-05-16 12:20:58.041 -0400,9904.694544,0.763916015625,0.28094482421875,-0.0788726806640625,1,0.98
2020-05-16 12:20:58.111 -0400,9904.764401,1.030792236328125,0.3854217529296875,-0.1079864501953125,1,0.98
2020-05-16 12:20:58.181 -0400,9904.834258000001,1.23272705078125,0.4351959228515625,-0.0092315673828125,1,0.98
2020-05-16 12:20:58.251 -0400,9904.904112,1.383560180664062,0.670745849609375,-0.3933258056640625,1,0.98
2020-05-16 12:20:58.320 -0400,9904.973968,1.350723266601562,0.2197265625,-0.160797119140625,1,0.98
2020-05-16 12:20:58.390 -0400,9905.043822000001,0.76666259765625,0.4489288330078125,-0.2166748046875,1,0.98
2020-05-16 12:20:58.460 -0400,9905.113681000001,0.492645263671875,0.57818603515625,-0.1562957763671875,1,0.98
2020-05-16 12:20:58.530 -0400,9905.183539000001,0.4426116943359375,0.43878173828125,-0.174530029296875,1,0.98
2020-05-16 12:20:58.600 -0400,9905.253398375,0.764495849609375,0.5774078369140625,-0.240997314453125,1,0.98
2020-05-16 12:20:58.670 -0400,9905.323259375,1.216400146484375,0.6503448486328125,-0.3080596923828125,1,0.98
2020-05-16 12:20:58.739 -0400,9905.393119375001,1.541946411132812,0.4610595703125,-0.356170654296875,1,0.98
2020-05-16 12:20:58.809 -0400,9905.462975375001,1.409210205078125,0.5713348388671875,-0.5565032958984375,1,0.98
2020-05-16 12:20:58.879 -0400,9905.532830375001,1.422348022460938,0.281280517578125,-0.2043304443359375,1,0.98
2020-05-16 12:20:58.949 -0400,9905.602689375,1.210800170898438,0.16827392578125,-0.15008544921875,1,0.98
2020-05-16 12:20:59.019 -0400,9905.672547375001,0.6397247314453125,0.3413543701171875,-0.1098175048828125,1,0.98
2020-05-16 12:20:59.089 -0400,9905.742410375,0.37322998046875,0.3184051513671875,0.01165771484375,1,0.98
2020-05-16 12:20:59.159 -0400,9905.812276375,0.375823974609375,0.2700958251953125,0.049072265625,1,0.98
2020-05-16 12:20:59.234 -0400,9905.882139375,0.7437896728515625,0.2958221435546875,0.014739990234375,1,0.98
2020-05-16 12:20:59.298 -0400,9905.951998375001,1.12109375,0.2899322509765625,-0.0013885498046875,1,0.98
2020-05-16 12:20:59.368 -0400,9906.021858375001,1.482284545898438,0.43621826171875,-0.236083984375,1,0.98
2020-05-16 12:20:59.438 -0400,9906.091716375,1.324554443359375,0.6268310546875,-0.46173095703125,1,0.98
2020-05-16 12:20:59.508 -0400,9906.161575375001,1.2288818359375,0.451568603515625,-0.4302520751953125,1,0.98
2020-05-16 12:20:59.578 -0400,9906.231429250001,0.872314453125,0.1609649658203125,-0.3306732177734375,1,0.98
2020-05-16 12:20:59.648 -0400,9906.301284250001,0.6174163818359375,0.46099853515625,-0.2971038818359375,1,0.98
2020-05-16 12:20:59.717 -0400,9906.37114225,0.606658935546875,0.583282470703125,-0.36224365234375,1,0.98
2020-05-16 12:20:59.787 -0400,9906.441001250001,0.7145538330078125,0.49603271484375,-0.4356536865234375,1,0.98
2020-05-16 12:20:59.857 -0400,9906.51086025,0.981719970703125,0.43267822265625,-0.3784942626953125,1,0.98
2020-05-16 12:20:59.927 -0400,9906.580722250001,1.422164916992188,0.42962646484375,-0.35186767578125,1,0.98
2020-05-16 12:20:59.997 -0400,9906.650583250001,1.386444091796875,0.546142578125,-0.4058990478515625,1,0.98
2020-05-16 12:21:00.067 -0400,9906.72044325,1.380538940429688,0.351806640625,-0.1666259765625,1,0.98
2020-05-16 12:21:00.137 -0400,9906.79029925,1.034072875976562,0.3025054931640625,-0.1249542236328125,1,0.98
2020-05-16 12:21:00.206 -0400,9906.86016025,0.5809326171875,0.362579345703125,-0.104522705078125,1,0.98
2020-05-16 12:21:00.284 -0400,9906.930017250001,0.5106964111328125,0.3211822509765625,-0.0225830078125,1,0.98
2020-05-16 12:21:00.346 -0400,9906.999875250001,0.7124786376953125,0.249542236328125,-0.0406341552734375,1,0.98
2020-05-16 12:21:00.416 -0400,9907.06973225,0.943756103515625,0.2055511474609375,-0.04132080078125,1,0.98
2020-05-16 12:21:00.486 -0400,9907.13958925,1.379928588867188,0.386199951171875,-0.109375,1,0.98
2020-05-16 12:21:00.556 -0400,9907.209448166668,1.20263671875,0.67901611328125,-0.6229705810546875,1,0.98
2020-05-16 12:21:00.626 -0400,9907.279303166668,1.270431518554688,0.3928680419921875,-0.359130859375,1,0.98
2020-05-16 12:21:00.695 -0400,9907.349162166667,0.8298797607421875,0.068145751953125,-0.3251953125,1,0.98
2020-05-16 12:21:00.765 -0400,9907.419024166667,0.5325164794921875,0.4034576416015625,-0.25946044921875,1,0.98
2020-05-16 12:21:00.835 -0400,9907.488885166667,0.5402679443359375,0.640380859375,-0.292144775390625,1,0.98
2020-05-16 12:21:00.905 -0400,9907.558747166668,0.8366851806640625,0.5717926025390625,-0.3638458251953125,1,0.98
2020-05-16 12:21:00.975 -0400,9907.628610166666,1.037933349609375,0.556488037109375,-0.440521240234375,1,0.98
2020-05-16 12:21:01.045 -0400,9907.698471166666,1.822723388671875,0.6187896728515625,-0.494842529296875,1,0.98
2020-05-16 12:21:01.115 -0400,9907.768333166667,1.300735473632812,0.3299560546875,-0.48577880859375,1,0.98
2020-05-16 12:21:01.185 -0400,9907.838197166668,1.356674194335938,0.230224609375,-0.1534881591796875,1,0.98
2020-05-16 12:21:01.254 -0400,9907.908056166667,0.9791259765625,0.2999420166015625,-0.1569366455078125,1,0.98
2020-05-16 12:21:01.328 -0400,9907.977919166668,0.502288818359375,0.3023529052734375,-0.078094482421875,1,0.98
2020-05-16 12:21:01.394 -0400,9908.047778166667,0.4171295166015625,0.292388916015625,-0.0201416015625,1,0.98
2020-05-16 12:21:01.464 -0400,9908.117635166667,0.686767578125,0.2299652099609375,-0.002166748046875,1,0.98
2020-05-16 12:21:01.534 -0400,9908.187493166668,1.100448608398438,0.291229248046875,-0.0274810791015625,1,0.98
2020-05-16 12:21:01.604 -0400,9908.257348666668,1.502548217773438,0.383941650390625,-0.0538787841796875,1,0.98
2020-05-16 12:21:01.673 -0400,9908.327202666667,1.58538818359375,0.7426605224609375,-0.5367279052734375,1,0.98
2020-05-16 12:21:01.743 -0400,9908.397056666667,1.105667114257812,0.3304901123046875,-0.2298736572265625,1,0.98
2020-05-16 12:21:01.813 -0400,9908.466909666668,0.9410858154296875,0.1641693115234375,-0.329376220703125,1,0.98
2020-05-16 12:21:01.883 -0400,9908.536764666667,0.55523681640625,0.4334259033203125,-0.330810546875,1,0.98
2020-05-16 12:21:01.953 -0400,9908.606619666667,0.395782470703125,0.4834136962890625,-0.30621337890625,1,0.98
2020-05-16 12:21:02.023 -0400,9908.676477666668,0.628570556640625,0.433868408203125,-0.4007110595703125,1,0.98
2020-05-16 12:21:02.093 -0400,9908.746329666666,1.02703857421875,0.4111785888671875,-0.43408203125,1,0.98
2020-05-16 12:21:02.162 -0400,9908.816180666667,1.470794677734375,0.2799224853515625,-0.3735504150390625,1,0.98
2020-05-16 12:21:02.232 -0400,9908.886034666668,1.436874389648438,0.459930419921875,-0.4375152587890625,1,0.98
2020-05-16 12:21:02.302 -0400,9908.955887666667,1.330001831054688,0.4582672119140625,-0.323760986328125,1,0.98
2020-05-16 12:21:02.372 -0400,9909.025743666667,1.4599609375,0.1970977783203125,-0.074188232421875,1,0.98
2020-05-16 12:21:02.442 -0400,9909.095603666667,0.70709228515625,0.292144775390625,-0.108306884765625,1,0.98
2020-05-16 12:21:02.512 -0400,9909.165453666667,0.37774658203125,0.3401336669921875,-0.019561767578125,1,0.98
2020-05-16 12:21:02.582 -0400,9909.235306500001,0.487823486328125,0.362457275390625,0.037628173828125,1,0.98
2020-05-16 12:21:02.651 -0400,9909.3051595,0.624359130859375,0.3178558349609375,-0.03631591796875,1,0.98
2020-05-16 12:21:02.721 -0400,9909.375014500001,0.9233551025390625,0.224365234375,-0.0188446044921875,1,0.98
2020-05-16 12:21:02.791 -0400,9909.4448715,1.372833251953125,0.27679443359375,-0.13299560546875,1,0.98
2020-05-16 12:21:02.861 -0400,9909.5147285,1.322906494140625,0.49993896484375,-0.2686614990234375,1,0.98
2020-05-16 12:21:02.931 -0400,9909.584582500001,1.029998779296875,0.67779541015625,-0.6881866455078125,1,0.98
2020-05-16 12:21:03.001 -0400,9909.654441500001,1.261978149414062,0.3738555908203125,-0.304962158203125,1,0.98
2020-05-16 12:21:03.071 -0400,9909.7243015,0.8335418701171875,0.3223724365234375,-0.5362548828125,1,0.98
2020-05-16 12:21:03.140 -0400,9909.794163500001,0.49102783203125,0.69207763671875,-0.3714599609375,1,0.98
2020-05-16 12:21:03.210 -0400,9909.8640175,0.5489349365234375,0.5857696533203125,-0.302154541015625,1,0.98
2020-05-16 12:21:03.285 -0400,9909.9338735,0.8066558837890625,0.6134490966796875,-0.389862060546875,1,0.98
2020-05-16 12:21:03.350 -0400,9910.003730500001,1.156570434570312,0.4587249755859375,-0.2623748779296875,1,0.98
2020-05-16 12:21:03.420 -0400,9910.073586500001,1.170501708984375,0.3563385009765625,-0.234588623046875,1,0.98
2020-05-16 12:21:03.490 -0400,9910.1434405,1.38140869140625,0.613189697265625,-0.2630767822265625,1,0.98
2020-05-16 12:21:03.560 -0400,9910.213295375001,1.257156372070312,0.437347412109375,-0.1596221923828125,1,0.98
2020-05-16 12:21:03.629 -0400,9910.283155375,1.361434936523438,0.401885986328125,-0.1128082275390625,1,0.98
2020-05-16 12:21:03.699 -0400,9910.353012375001,0.856719970703125,0.258331298828125,-0.00421142578125,1,0.98
2020-05-16 12:21:03.769 -0400,9910.422865375001,0.546142578125,0.2884368896484375,0.0030670166015625,1,0.98
2020-05-16 12:21:03.839 -0400,9910.492719375001,0.509429931640625,0.307403564453125,-0.001129150390625,1,0.98
2020-05-16 12:21:03.909 -0400,9910.562575375001,0.6375579833984375,0.292877197265625,-0.0295867919921875,1,0.98
2020-05-16 12:21:03.979 -0400,9910.632424375,0.906829833984375,0.3303680419921875,-0.1770782470703125,1,0.98
2020-05-16 12:21:04.049 -0400,9910.702275375001,1.096160888671875,0.2874298095703125,-0.29644775390625,1,0.98
2020-05-16 12:21:04.118 -0400,9910.772126375001,1.321182250976562,0.3632049560546875,-0.4369659423828125,1,0.98
2020-05-16 12:21:04.188 -0400,9910.841974375,1.161407470703125,0.455078125,-0.71319580078125,1,0.98
2020-05-16 12:21:04.258 -0400,9910.911825375,1.06524658203125,0.16015625,-0.2966461181640625,1,0.98
2020-05-16 12:21:04.328 -0400,9910.981680375,0.8919525146484375,0.4566802978515625,-0.2930908203125,1,0.98
2020-05-16 12:21:04.398 -0400,9911.051534375001,0.566192626953125,0.751007080078125,-0.251068115234375,1,0.98
2020-05-16 12:21:04.468 -0400,9911.121387375,0.5500640869140625,0.6654815673828125,-0.249847412109375,1,0.98
2020-05-16 12:21:04.538 -0400,9911.191243375,0.632476806640625,0.550872802734375,-0.3027801513671875,1,0.98
2020-05-16 12:21:04.607 -0400,9911.26109525,0.880706787109375,0.5103302001953125,-0.3621978759765625,1,0.98
2020-05-16 12:21:04.678 -0400,9911.33094625,1.321533203125,0.472564697265625,-0.390228271484375,1,0.98
2020-05-16 12:21:04.747 -0400,9911.400798250001,1.493026733398438,0.4710845947265625,-0.4950408935546875,1,0.98
2020-05-16 12:21:04.817 -0400,9911.47065325,1.672531127929688,0.3936004638671875,-0.2115478515625,1,0.98
2020-05-16 12:21:04.887 -0400,9911.54050725,1.24896240234375,0.339752197265625,-0.226715087890625,1,0.98
2020-05-16 12:21:04.957 -0400,9911.610357250001,0.664794921875,0.3356170654296875,-0.119293212890625,1,0.98
2020-05-16 12:21:05.027 -0400,9911.68020825,0.5408172607421875,0.3047637939453125,-0.038055419921875,1,0.98
2020-05-16 12:21:05.096 -0400,9911.750055250001,0.5590972900390625,0.21002197265625,-0.012786865234375,1,0.98
2020-05-16 12:21:05.166 -0400,9911.819902250001,0.6041412353515625,0.189483642578125,0.0007171630859375,1,0.98
2020-05-16 12:21:05.236 -0400,9911.88974425,0.738494873046875,0.3031463623046875,-0.010711669921875,1,0.98
2020-05-16 12:21:05.306 -0400,9911.959592250001,1.349365234375,0.5172882080078125,-0.1071319580078125,1,0.98
2020-05-16 12:21:05.376 -0400,9912.02943925,1.47320556640625,0.857940673828125,-0.7165985107421875,1,0.98
2020-05-16 12:21:05.446 -0400,9912.099286250001,1.479232788085938,0.51190185546875,-0.4382171630859375,1,0.98
2020-05-16 12:21:05.515 -0400,9912.169133250001,0.6817169189453125,0.05364990234375,-0.3985443115234375,1,0.98
2020-05-16 12:21:05.585 -0400,9912.238982375,0.467987060546875,0.616424560546875,-0.3837890625,1,0.98
2020-05-16 12:21:05.655 -0400,9912.308828375,0.56964111328125,0.772491455078125,-0.5201263427734375,1,0.98
2020-05-16 12:21:05.725 -0400,9912.378674375001,0.946563720703125,0.4745330810546875,-0.482818603515625,1,0.98
2020-05-16 12:21:05.795 -0400,9912.448521375001,1.1170654296875,0.370513916015625,-0.3891143798828125,1,0.98
2020-05-16 12:21:05.865 -0400,9912.518366375001,1.69610595703125,0.5502777099609375,-0.4362335205078125,1,0.98
2020-05-16 12:21:05.934 -0400,9912.588211375001,1.482711791992188,0.3571014404296875,-0.2618255615234375,1,0.98
2020-05-16 12:21:06.004 -0400,9912.658054375001,1.415573120117188,0.451568603515625,-0.2816925048828125,1,0.98
2020-05-16 12:21:06.074 -0400,9912.727900375001,0.8079376220703125,0.287872314453125,-0.158294677734375,1,0.98
2020-05-16 12:21:06.144 -0400,9912.797743375,0.48046875,0.2214813232421875,-0.0792999267578125,1,0.98
2020-05-16 12:21:06.214 -0400,9912.867591375001,0.3736419677734375,0.1597747802734375,-0.0405426025390625,1,0.98
2020-05-16 12:21:06.284 -0400,9912.937439375,0.51556396484375,0.1802978515625,-0.0287628173828125,1,0.98
2020-05-16 12:21:06.353 -0400,9913.007282375,0.748321533203125,0.23992919921875,-0.0277557373046875,1,0.98
2020-05-16 12:21:06.423 -0400,9913.077124375,1.561553955078125,0.5294342041015625,-0.045196533203125,1,0.98
2020-05-16 12:21:06.493 -0400,9913.146971375001,1.714920043945312,0.943115234375,-0.87469482421875,1,0.98
2020-05-16 12:21:06.563 -0400,9913.216819750001,1.271072387695312,0.29852294921875,-0.3288421630859375,1,0.98
2020-05-16 12:21:06.633 -0400,9913.286669750001,0.6619873046875,0.11798095703125,-0.3087921142578125,1,0.98
2020-05-16 12:21:06.703 -0400,9913.35651675,0.4002838134765625,0.50933837890625,-0.2110443115234375,1,0.98
2020-05-16 12:21:06.773 -0400,9913.426364750001,0.416015625,0.593841552734375,-0.274749755859375,1,0.98
2020-05-16 12:21:06.843 -0400,9913.49621675,0.842498779296875,0.5962677001953125,-0.420166015625,1,0.98
2020-05-16 12:21:06.912 -0400,9913.566065750001,1.348526000976562,0.5748291015625,-0.4859619140625,1,0.98
2020-05-16 12:21:06.982 -0400,9913.63591275,1.617996215820312,0.389007568359375,-0.3401336669921875,1,0.98
2020-05-16 12:21:07.052 -0400,9913.70575775,1.189208984375,0.3259735107421875,-0.2898712158203125,1,0.98
2020-05-16 12:21:07.122 -0400,9913.77560375,1.30694580078125,0.4332427978515625,-0.2366485595703125,1,0.98
2020-05-16 12:21:07.192 -0400,9913.84545475,0.8031463623046875,0.3056182861328125,-0.0897674560546875,1,0.98
2020-05-16 12:21:07.262 -0400,9913.91530475,0.606292724609375,0.3397674560546875,-0.0069580078125,1,0.98
2020-05-16 12:21:07.332 -0400,9913.985157750001,0.6820526123046875,0.3201141357421875,0.0230865478515625,1,0.98
2020-05-16 12:21:07.401 -0400,9914.05501075,0.9214324951171875,0.28857421875,0.04510498046875,1,0.98
2020-05-16 12:21:07.471 -0400,9914.12486575,1.0841064453125,0.3306884765625,0.0814208984375,1,0.98
2020-05-16 12:21:07.541 -0400,9914.194719750001,1.181930541992188,0.4526824951171875,-0.114227294921875,1,0.98
2020-05-16 12:21:07.611 -0400,9914.264574125,0.83795166015625,0.4266204833984375,-0.302886962890625,1,0.98
2020-05-16 12:21:07.681 -0400,9914.334430125,1.247848510742188,0.4749755859375,-0.43170166015625,1,0.98
2020-05-16 12:21:07.751 -0400,9914.404283125001,0.808746337890625,0.2471771240234375,-0.42340087890625,1,0.98
2020-05-16 12:21:07.821 -0400,9914.474131125,0.5787506103515625,0.36602783203125,-0.4016265869140625,1,0.98
2020-05-16 12:21:07.891 -0400,9914.543981125,0.6821746826171875,0.4722900390625,-0.3728485107421875,1,0.98
2020-05-16 12:21:07.960 -0400,9914.613831125,0.8553466796875,0.5430908203125,-0.500213623046875,1,0.98
2020-05-16 12:21:08.030 -0400,9914.683681125001,1.069442749023438,0.545654296875,-0.468841552734375,1,0.98
2020-05-16 12:21:08.100 -0400,9914.753528125,1.939285278320312,0.7404632568359375,-0.589202880859375,1,0.98
2020-05-16 12:21:08.170 -0400,9914.823377125,1.127410888671875,0.375946044921875,-0.27130126953125,1,0.98
2020-05-16 12:21:08.240 -0400,9914.893226125001,1.374801635742188,0.39312744140625,-0.1946563720703125,1,0.98
2020-05-16 12:21:08.309 -0400,9914.963076125001,0.9887847900390625,0.4313201904296875,-0.1727142333984375,1,0.98
2020-05-16 12:21:08.379 -0400,9915.032926125001,0.6145477294921875,0.2740936279296875,-0.070343017578125,1,0.98
2020-05-16 12:21:08.449 -0400,9915.102776125001,0.540283203125,0.2483673095703125,-0.004669189453125,1,0.98
2020-05-16 12:21:08.519 -0400,9915.172625125,0.6206207275390625,0.2086181640625,0.0171661376953125,1,0.98
2020-05-16 12:21:08.589 -0400,9915.24247225,0.7611083984375,0.2689361572265625,0.02947998046875,1,0.98
2020-05-16 12:21:08.659 -0400,9915.312314250001,1.135330200195312,0.4211273193359375,-0.0103302001953125,1,0.98
2020-05-16 12:21:08.729 -0400,9915.382164250001,1.256256103515625,0.642059326171875,-0.5046844482421875,1,0.98
2020-05-16 12:21:08.798 -0400,9915.452010250001,1.604568481445312,0.5619659423828125,-0.298004150390625,1,0.98
2020-05-16 12:21:08.868 -0400,9915.521855250001,0.7645263671875,0.1575164794921875,-0.45574951171875,1,0.98
2020-05-16 12:21:08.938 -0400,9915.591700250001,0.5585174560546875,0.48321533203125,-0.325103759765625,1,0.98
2020-05-16 12:21:09.008 -0400,9915.66154225,0.5511322021484375,0.6441497802734375,-0.421417236328125,1,0.98
2020-05-16 12:21:09.078 -0400,9915.731386250001,0.73907470703125,0.6213226318359375,-0.4901123046875,1,0.98
2020-05-16 12:21:09.147 -0400,9915.801229250001,1.339889526367188,0.6852264404296875,-0.4413604736328125,1,0.98
2020-05-16 12:21:09.224 -0400,9915.87107225,1.5650634765625,0.374664306640625,-0.3823699951171875,1,0.98
2020-05-16 12:21:09.287 -0400,9915.94091725,1.465927124023438,0.4031982421875,-0.23309326171875,1,0.98
2020-05-16 12:21:09.357 -0400,9916.010760250001,1.2451171875,0.5178375244140625,-0.1431121826171875,1,0.98
2020-05-16 12:21:09.427 -0400,9916.080609250001,0.6986236572265625,0.344879150390625,-0.0826873779296875,1,0.98
2020-05-16 12:21:09.497 -0400,9916.150449250001,0.5191650390625,0.2955474853515625,0.05169677734375,1,0.98
2020-05-16 12:21:09.567 -0400,9916.220286041667,0.55877685546875,0.2647552490234375,0.0479888916015625,1,0.98
2020-05-16 12:21:09.636 -0400,9916.290128041668,0.8660430908203125,0.279815673828125,0.0285491943359375,1,0.98
2020-05-16 12:21:09.706 -0400,9916.359971041667,0.862518310546875,0.278350830078125,-0.0286865234375,1,0.98
2020-05-16 12:21:09.776 -0400,9916.429815041667,1.384048461914062,0.388946533203125,-0.032012939453125,1,0.98
2020-05-16 12:21:09.846 -0400,9916.499654041667,1.06341552734375,0.6263427734375,-0.556243896484375,1,0.98
2020-05-16 12:21:09.916 -0400,9916.569499041667,1.463897705078125,0.5469970703125,-0.40869140625,1,0.98
2020-05-16 12:21:09.985 -0400,9916.639345041667,0.7813262939453125,0.14324951171875,-0.4893951416015625,1,0.98
2020-05-16 12:21:10.056 -0400,9916.709194041667,0.635040283203125,0.3906707763671875,-0.352081298828125,1,0.98
2020-05-16 12:21:10.125 -0400,9916.779044041667,0.6521759033203125,0.74334716796875,-0.40789794921875,1,0.98
2020-05-16 12:21:10.195 -0400,9916.848896041667,0.94635009765625,0.70159912109375,-0.5139617919921875,1,0.98
2020-05-16 12:21:10.265 -0400,9916.918747041667,1.770431518554688,0.6934967041015625,-0.5889434814453125,1,0.98
2020-05-16 12:21:10.335 -0400,9916.988594041668,1.59246826171875,0.270782470703125,-0.3584442138671875,1,0.98
2020-05-16 12:21:10.405 -0400,9917.058441041667,1.74066162109375,0.3207855224609375,-0.170379638671875,1,0.98
2020-05-16 12:21:10.475 -0400,9917.128285041666,1.402816772460938,0.4915313720703125,-0.2646331787109375,1,0.98
2020-05-16 12:21:10.544 -0400,9917.198137041667,0.656768798828125,0.2903289794921875,-0.0909881591796875,1,0.98
2020-05-16 12:21:10.614 -0400,9917.267989125001,0.2899169921875,0.21575927734375,0.021026611328125,1,0.98
2020-05-16 12:21:10.684 -0400,9917.337844125001,0.173736572265625,0.130462646484375,0.06158447265625,1,0.98
2020-05-16 12:21:10.754 -0400,9917.407698125,0.342559814453125,0.1639251708984375,0.0375518798828125,1,0.98
2020-05-16 12:21:10.824 -0400,9917.477555125,0.6350250244140625,0.223785400390625,0.0471343994140625,1,0.98
2020-05-16 12:21:10.894 -0400,9917.547408125001,1.398025512695312,0.3224029541015625,0.1392822265625,1,0.98
2020-05-16 12:21:10.964 -0400,9917.617259125002,1.994857788085938,1.146759033203125,-0.8751220703125,1,0.98
2020-05-16 12:21:11.033 -0400,9917.687107125001,1.66107177734375,0.8899078369140625,-0.2003631591796875,1,0.98
2020-05-16 12:21:11.103 -0400,9917.756956125,0.962066650390625,-0.0558929443359375,-0.4161834716796875,1,0.98
2020-05-16 12:21:11.173 -0400,9917.826809125001,0.5076446533203125,0.516754150390625,-0.4143524169921875,1,0.98
2020-05-16 12:21:11.243 -0400,9917.896661125,0.2632598876953125,0.795654296875,-0.515472412109375,1,0.98
2020-05-16 12:21:11.313 -0400,9917.966510125001,0.7178497314453125,0.6244354248046875,-0.5208892822265625,1,0.98
2020-05-16 12:21:11.383 -0400,9918.036359125001,1.479263305664062,0.422332763671875,-0.538055419921875,1,0.98
2020-05-16 12:21:11.452 -0400,9918.106213125,1.7611083984375,0.2205657958984375,-0.4127655029296875,1,0.98
2020-05-16 12:21:11.522 -0400,9918.176066125001,1.448471069335938,0.5009307861328125,-0.30389404296875,1,0.98
2020-05-16 12:21:11.592 -0400,9918.245919041667,1.528564453125,0.477813720703125,-0.07257080078125,1,0.98
2020-05-16 12:21:11.662 -0400,9918.315771041667,0.97119140625,0.4016571044921875,-0.047607421875,1,0.98
2020-05-16 12:21:11.732 -0400,9918.385625041667,0.5069732666015625,0.328948974609375,0.0050201416015625,1,0.98
2020-05-16 12:21:11.802 -0400,9918.455480041668,0.6580657958984375,0.2938079833984375,0.0399627685546875,1,0.98
2020-05-16 12:21:11.872 -0400,9918.525334041668,0.68719482421875,0.19482421875,0.0257415771484375,1,0.98
2020-05-16 12:21:11.941 -0400,9918.595188041667,0.68548583984375,0.137359619140625,0.057281494140625,1,0.98
2020-05-16 12:21:12.012 -0400,9918.665040041667,0.8879547119140625,0.3625335693359375,-0.005279541015625,1,0.98
2020-05-16 12:21:12.081 -0400,9918.734892041668,1.242416381835938,0.9191741943359375,-0.3920135498046875,1,0.98
2020-05-16 12:21:12.151 -0400,9918.804747041668,1.506454467773438,1.092819213867188,-0.8939971923828125,1,0.98
2020-05-16 12:21:12.221 -0400,9918.874600041667,0.6608428955078125,0.55615234375,-0.570281982421875,1,0.98
2020-05-16 12:21:12.291 -0400,9918.944452041667,0.5138092041015625,0.1598663330078125,-0.4351806640625,1,0.98
2020-05-16 12:21:12.361 -0400,9919.014306041667,0.61383056640625,0.705413818359375,-0.419097900390625,1,0.98
2020-05-16 12:21:12.430 -0400,9919.084158041667,1.19927978515625,0.771728515625,-0.585693359375,1,0.98
2020-05-16 12:21:12.500 -0400,9919.154013041667,1.524658203125,0.4414520263671875,-0.440887451171875,1,0.98
2020-05-16 12:21:12.570 -0400,9919.223863125,1.811569213867188,0.671905517578125,-0.2098846435546875,1,0.98
2020-05-16 12:21:12.640 -0400,9919.293715125001,1.692306518554688,0.4317474365234375,-0.116485595703125,1,0.98
2020-05-16 12:21:12.710 -0400,9919.363565125001,0.98260498046875,0.27642822265625,-0.1378936767578125,1,0.98
2020-05-16 12:21:12.780 -0400,9919.433417125001,0.58831787109375,0.3129119873046875,-0.0328521728515625,1,0.98
2020-05-16 12:21:12.850 -0400,9919.503274125,0.558990478515625,0.2692108154296875,0.0231475830078125,1,0.98
2020-05-16 12:21:12.920 -0400,9919.573129125001,0.5378875732421875,0.1598052978515625,0.04498291015625,1,0.98
2020-05-16 12:21:12.989 -0400,9919.642978125001,0.5907135009765625,0.1490631103515625,0.1048583984375,1,0.98
2020-05-16 12:21:13.059 -0400,9919.712829125001,0.8423614501953125,0.340362548828125,-0.0535736083984375,1,0.98
2020-05-16 12:21:13.129 -0400,9919.782677125,1.527297973632812,0.69195556640625,-0.3779144287109375,1,0.98
2020-05-16 12:21:13.199 -0400,9919.852528125,1.790969848632812,0.8314056396484375,-0.7018280029296875,1,0.98
2020-05-16 12:21:13.269 -0400,9919.922377125,0.81121826171875,0.0077056884765625,-0.362213134765625,1,0.98
2020-05-16 12:21:13.339 -0400,9919.992225125001,0.564453125,0.0886993408203125,-0.414642333984375,1,0.98
2020-05-16 12:21:13.408 -0400,9920.062075125001,0.550018310546875,0.635101318359375,-0.4554901123046875,1,0.98
2020-05-16 12:21:13.478 -0400,9920.131927125001,0.793365478515625,0.7614288330078125,-0.5922698974609375,1,0.98
2020-05-16 12:21:13.548 -0400,9920.201777125001,1.241958618164062,0.6389923095703125,-0.569061279296875,1,0.98
2020-05-16 12:21:13.618 -0400,9920.271625125,1.809768676757812,0.4302825927734375,-0.3788909912109375,1,0.98
2020-05-16 12:21:13.688 -0400,9920.341477125001,1.781021118164062,0.2209930419921875,-0.198516845703125,1,0.98
2020-05-16 12:21:13.758 -0400,9920.411327125001,1.325027465820312,0.4759674072265625,-0.1930999755859375,1,0.98
2020-05-16 12:21:13.827 -0400,9920.481180125,0.693023681640625,0.3933868408203125,-0.0372161865234375,1,0.98
2020-05-16 12:21:13.897 -0400,9920.551033125001,0.475555419921875,0.2902374267578125,0.1050262451171875,1,0.98
2020-05-16 12:21:13.967 -0400,9920.620879125001,0.477935791015625,0.2103424072265625,0.092803955078125,1,0.98
2020-05-16 12:21:14.037 -0400,9920.690729125001,0.66021728515625,0.2270355224609375,0.087493896484375,1,0.98
2020-05-16 12:21:14.107 -0400,9920.760580125001,0.78662109375,0.34405517578125,-0.0247955322265625,1,0.98
2020-05-16 12:21:14.177 -0400,9920.830434125,0.791290283203125,0.5378265380859375,-0.36669921875,1,0.98
2020-05-16 12:21:14.247 -0400,9920.900285125001,1.579132080078125,0.6240692138671875,-0.5910797119140625,1,0.98
2020-05-16 12:21:14.316 -0400,9920.970133125,1.227081298828125,0.3608551025390625,-0.6219329833984375,1,0.98
