loggingTime(txt),accelerometerTimestamp_sinceReboot(s),accelerometerAccelerationX(G),accelerometerAccelerationY(G),accelerometerAccelerationZ(G),batteryState,batteryLevel
2020-05-16 12:26:40.670 -0400,10192.30294066667,-0.11700439453125,-0.043243408203125,-0.5330810546875,1,0.97
2020-05-16 12:26:40.740 -0400,10192.37291766667,-0.1389312744140625,-0.0584564208984375,-0.6352081298828125,1,0.97
2020-05-16 12:26:40.809 -0400,10192.44289366667,-0.0369415283203125,0.0283966064453125,-0.9886627197265625,1,0.97
2020-05-16 12:26:40.879 -0400,10192.51286966667,0.0132904052734375,0.000732421875,-1.261489868164062,1,0.97
2020-05-16 12:26:40.950 -0400,10192.582845,0.2297515869140625,0.3044586181640625,-1.479461669921875,1,0.97
2020-05-16 12:26:41.020 -0400,10192.652821,0.1821136474609375,0.3585205078125,-0.991943359375,1,0.97
2020-05-16 12:26:41.089 -0400,10192.722798,0.1536712646484375,0.4942169189453125,-0.560882568359375,1,0.97
2020-05-16 12:26:41.160 -0400,10192.792774,0.213409423828125,0.3762969970703125,-0.52520751953125,1,0.97
2020-05-16 12:26:41.230 -0400,10192.86275,0.2428741455078125,0.0447540283203125,-0.521453857421875,1,0.97
2020-05-16 12:26:41.299 -0400,10192.932726,0.596649169921875,0.3778533935546875,-0.6363983154296875,1,0.97
2020-05-16 12:26:41.375 -0400,10193.002703,1.008468627929688,0.4042510986328125,-0.547149658203125,1,0.97
2020-05-16 12:26:41.440 -0400,10193.072679,1.472549438476562,0.5875091552734375,-0.4010162353515625,1,0.97
2020-05-16 12:26:41.509 -0400,10193.142655,1.950653076171875,0.730499267578125,-0.34197998046875,1,0.97
2020-05-16 12:26:41.580 -0400,10193.212631,1.325881958007812,0.57110595703125,-0.178466796875,1,0.97
2020-05-16 12:26:41.649 -0400,10193.282608,1.058547973632812,0.343475341796875,-0.014678955078125,1,0.97
2020-05-16 12:26:41.720 -0400,10193.352584,0.6132659912109375,0.3408050537109375,-0.2025299072265625,1,0.97
2020-05-16 12:26:41.790 -0400,10193.42256,0.3527374267578125,0.39227294921875,-0.0963592529296875,1,0.97
2020-05-16 12:26:41.859 -0400,10193.492536,0.3372039794921875,0.454803466796875,-0.1927642822265625,1,0.97
2020-05-16 12:26:41.929 -0400,10193.562513625,0.6586456298828125,0.37286376953125,-0.251251220703125,1,0.97
2020-05-16 12:26:42.013 -0400,10193.632489625,1.214431762695312,0.4158782958984375,-0.3327484130859375,1,0.97
2020-05-16 12:26:42.069 -0400,10193.702465625,1.940399169921875,0.729705810546875,-0.551910400390625,1,0.97
2020-05-16 12:26:42.139 -0400,10193.772441625,1.162948608398438,0.4020233154296875,-0.40869140625,1,0.97
2020-05-16 12:26:42.209 -0400,10193.842418625,1.244796752929688,0.03546142578125,-0.0494384765625,1,0.97
2020-05-16 12:26:42.279 -0400,10193.912394625,0.75897216796875,0.2464141845703125,-0.1067047119140625,1,0.97
2020-05-16 12:26:42.349 -0400,10193.982370625,0.4358062744140625,0.459381103515625,-0.04376220703125,1,0.97
2020-05-16 12:26:42.419 -0400,10194.052347625,0.548370361328125,0.3863372802734375,0.0206298828125,1,0.97
2020-05-16 12:26:42.489 -0400,10194.122323625,1.202682495117188,0.31787109375,-0.013702392578125,1,0.97
2020-05-16 12:26:42.559 -0400,10194.192299625,1.453231811523438,0.168701171875,0.1334075927734375,1,0.97
2020-05-16 12:26:42.629 -0400,10194.262276625,1.128311157226562,0.5133819580078125,-0.3368988037109375,1,0.97
2020-05-16 12:26:42.699 -0400,10194.332252625,0.94976806640625,0.4305877685546875,-0.5317535400390625,1,0.97
2020-05-16 12:26:42.769 -0400,10194.402228625,0.8008880615234375,0.01300048828125,-0.3089752197265625,1,0.97
2020-05-16 12:26:42.839 -0400,10194.472204625,0.54302978515625,0.1502227783203125,-0.508819580078125,1,0.97
2020-05-16 12:26:42.909 -0400,10194.542181625,0.3934478759765625,0.40850830078125,-0.3827056884765625,1,0.97
2020-05-16 12:26:42.979 -0400,10194.612157625,0.519378662109375,0.44183349609375,-0.4577789306640625,1,0.97
2020-05-16 12:26:43.049 -0400,10194.682134625,0.942474365234375,0.4264984130859375,-0.3970184326171875,1,0.97
2020-05-16 12:26:43.119 -0400,10194.752110625,1.47601318359375,0.57086181640625,-0.43890380859375,1,0.97
2020-05-16 12:26:43.189 -0400,10194.822086625,1.451812744140625,0.64776611328125,-0.6366424560546875,1,0.97
2020-05-16 12:26:43.259 -0400,10194.892063625,1.408233642578125,0.344268798828125,-0.194488525390625,1,0.97
2020-05-16 12:26:43.329 -0400,10194.962039625,1.078338623046875,0.18878173828125,-0.133575439453125,1,0.97
2020-05-16 12:26:43.399 -0400,10195.032015625,0.5744171142578125,0.368896484375,-0.16156005859375,1,0.97
2020-05-16 12:26:43.469 -0400,10195.101992625,0.4917755126953125,0.360565185546875,-0.039031982421875,1,0.97
2020-05-16 12:26:43.539 -0400,10195.171968625,0.8017578125,0.299530029296875,-0.0466766357421875,1,0.97
2020-05-16 12:26:43.609 -0400,10195.241944625,1.192779541015625,0.2150421142578125,-0.0309295654296875,1,0.97
2020-05-16 12:26:43.679 -0400,10195.311921625,1.268310546875,0.3245086669921875,-0.1724395751953125,1,0.97
2020-05-16 12:26:43.749 -0400,10195.381897625,1.006546020507812,0.5228271484375,-0.56280517578125,1,0.97
2020-05-16 12:26:43.819 -0400,10195.451874625,1.113677978515625,0.2587432861328125,-0.2692108154296875,1,0.97
2020-05-16 12:26:43.889 -0400,10195.521850625,0.9322357177734375,0.283660888671875,-0.3946075439453125,1,0.97
2020-05-16 12:26:43.959 -0400,10195.5918265,0.648101806640625,0.4940185546875,-0.2950439453125,1,0.97
2020-05-16 12:26:44.029 -0400,10195.6618035,0.6390838623046875,0.4279632568359375,-0.293487548828125,1,0.97
2020-05-16 12:26:44.099 -0400,10195.7317795,0.7782135009765625,0.4265594482421875,-0.35650634765625,1,0.97
2020-05-16 12:26:44.169 -0400,10195.8017555,1.087722778320312,0.513885498046875,-0.422637939453125,1,0.97
2020-05-16 12:26:44.239 -0400,10195.8717325,1.462799072265625,0.533050537109375,-0.412109375,1,0.97
2020-05-16 12:26:44.309 -0400,10195.9417085,1.318572998046875,0.662750244140625,-0.53106689453125,1,0.97
2020-05-16 12:26:44.379 -0400,10196.0116855,1.385696411132812,0.2572784423828125,-0.12640380859375,1,0.97
2020-05-16 12:26:44.448 -0400,10196.0816615,0.885986328125,0.2367706298828125,-0.2045440673828125,1,0.97
2020-05-16 12:26:44.518 -0400,10196.1516375,0.623504638671875,0.3979644775390625,-0.1510772705078125,1,0.97
2020-05-16 12:26:44.589 -0400,10196.2216145,0.68756103515625,0.3033905029296875,0.00311279296875,1,0.97
2020-05-16 12:26:44.658 -0400,10196.2915905,1.009841918945312,0.213104248046875,0.0082855224609375,1,0.97
2020-05-16 12:26:44.728 -0400,10196.3615675,1.061386108398438,0.33380126953125,-0.07855224609375,1,0.97
2020-05-16 12:26:44.799 -0400,10196.4315435,1.37860107421875,0.3497467041015625,-0.094818115234375,1,0.97
2020-05-16 12:26:44.868 -0400,10196.5015205,1.230728149414062,0.4456329345703125,-0.3103790283203125,1,0.97
2020-05-16 12:26:44.939 -0400,10196.571497,1.014190673828125,0.445526123046875,-0.3064422607421875,1,0.97
2020-05-16 12:26:45.009 -0400,10196.641473,0.5587921142578125,0.332794189453125,-0.29833984375,1,0.97
2020-05-16 12:26:45.078 -0400,10196.71145,0.5553131103515625,0.347808837890625,-0.21405029296875,1,0.97
2020-05-16 12:26:45.148 -0400,10196.781426,1.049697875976562,0.50653076171875,-0.38446044921875,1,0.97
2020-05-16 12:26:45.218 -0400,10196.851403,0.98358154296875,0.5173797607421875,-0.480804443359375,1,0.97
2020-05-16 12:26:45.288 -0400,10196.921379,1.719131469726562,0.7658538818359375,-0.59771728515625,1,0.97
2020-05-16 12:26:45.358 -0400,10196.991356,1.260284423828125,0.4199371337890625,-0.456146240234375,1,0.97
2020-05-16 12:26:45.428 -0400,10197.061332,1.352493286132812,0.2554931640625,-0.1327667236328125,1,0.97
2020-05-16 12:26:45.498 -0400,10197.131308,0.94610595703125,0.3603515625,-0.1796112060546875,1,0.97
2020-05-16 12:26:45.568 -0400,10197.201285,0.6132354736328125,0.3399200439453125,-0.042266845703125,1,0.97
2020-05-16 12:26:45.638 -0400,10197.271261,0.7347412109375,0.3633880615234375,0.0232696533203125,1,0.97
2020-05-16 12:26:45.708 -0400,10197.341238,1.017364501953125,0.2799224853515625,0.0424652099609375,1,0.97
2020-05-16 12:26:45.778 -0400,10197.411214,1.012100219726562,0.2990570068359375,-0.11883544921875,1,0.97
2020-05-16 12:26:45.848 -0400,10197.481191,1.124404907226562,0.347930908203125,-0.195556640625,1,0.97
2020-05-16 12:26:45.918 -0400,10197.55116666667,1.233718872070312,0.4685821533203125,-0.486907958984375,1,0.97
2020-05-16 12:26:45.988 -0400,10197.62114366667,1.23779296875,0.2830047607421875,-0.2645721435546875,1,0.97
2020-05-16 12:26:46.058 -0400,10197.69111966667,0.7115936279296875,0.24224853515625,-0.339752197265625,1,0.97
2020-05-16 12:26:46.128 -0400,10197.76109666667,0.5888671875,0.45965576171875,-0.2065277099609375,1,0.97
2020-05-16 12:26:46.198 -0400,10197.83107266667,0.6461029052734375,0.557373046875,-0.2879180908203125,1,0.97
2020-05-16 12:26:46.268 -0400,10197.90104966667,1.008987426757812,0.6880035400390625,-0.50201416015625,1,0.97
2020-05-16 12:26:46.338 -0400,10197.97102566667,1.428192138671875,0.6432037353515625,-0.5650177001953125,1,0.97
2020-05-16 12:26:46.408 -0400,10198.04100166667,1.410934448242188,0.4748077392578125,-0.533294677734375,1,0.97
2020-05-16 12:26:46.478 -0400,10198.11097866667,1.302886962890625,0.3975982666015625,-0.2757568359375,1,0.97
2020-05-16 12:26:46.548 -0400,10198.18095466667,1.2320556640625,0.3219146728515625,-0.1666107177734375,1,0.97
2020-05-16 12:26:46.620 -0400,10198.25093166667,0.785247802734375,0.3153228759765625,-0.0846710205078125,1,0.97
2020-05-16 12:26:46.688 -0400,10198.32090766667,0.7736358642578125,0.42205810546875,-0.01214599609375,1,0.97
2020-05-16 12:26:46.758 -0400,10198.39088466667,0.9806976318359375,0.2953643798828125,0.0408935546875,1,0.97
2020-05-16 12:26:46.828 -0400,10198.46086066667,1.021255493164062,0.1804962158203125,0.03216552734375,1,0.97
2020-05-16 12:26:46.898 -0400,10198.53083766667,0.965911865234375,0.288818359375,-0.16290283203125,1,0.97
2020-05-16 12:26:46.968 -0400,10198.60081379167,0.801666259765625,0.375274658203125,-0.2310333251953125,1,0.97
2020-05-16 12:26:47.038 -0400,10198.67079079167,1.377914428710938,0.4564056396484375,-0.4885101318359375,1,0.97
2020-05-16 12:26:47.108 -0400,10198.74076679167,1.083663940429688,0.255828857421875,-0.3177947998046875,1,0.97
2020-05-16 12:26:47.178 -0400,10198.81074379167,0.7873687744140625,0.301849365234375,-0.3476715087890625,1,0.97
2020-05-16 12:26:47.248 -0400,10198.88071979167,0.738800048828125,0.5711212158203125,-0.3087615966796875,1,0.97
2020-05-16 12:26:47.318 -0400,10198.95069679167,0.9481964111328125,0.6334075927734375,-0.4322052001953125,1,0.97
2020-05-16 12:26:47.388 -0400,10199.02067279167,1.353744506835938,0.7767791748046875,-0.609954833984375,1,0.97
2020-05-16 12:26:47.457 -0400,10199.09064979167,1.4168701171875,0.5090179443359375,-0.4573974609375,1,0.97
2020-05-16 12:26:47.527 -0400,10199.16062579167,1.212936401367188,0.3191375732421875,-0.2612457275390625,1,0.97
2020-05-16 12:26:47.597 -0400,10199.23060279167,1.302719116210938,0.429595947265625,-0.208038330078125,1,0.97
2020-05-16 12:26:47.667 -0400,10199.30057879167,0.872222900390625,0.3883056640625,-0.085418701171875,1,0.97
2020-05-16 12:26:47.737 -0400,10199.37055579167,0.6172637939453125,0.3726806640625,-0.0015716552734375,1,0.97
2020-05-16 12:26:47.807 -0400,10199.44053179167,0.826263427734375,0.3440093994140625,0.0330047607421875,1,0.97
2020-05-16 12:26:47.877 -0400,10199.51050879167,1.139297485351562,0.2760162353515625,0.0422210693359375,1,0.97
2020-05-16 12:26:47.947 -0400,10199.58048491667,1.135971069335938,0.2621307373046875,-0.0318450927734375,1,0.97
2020-05-16 12:26:48.017 -0400,10199.65046191667,1.2508544921875,0.3323822021484375,-0.0909881591796875,1,0.97
2020-05-16 12:26:48.087 -0400,10199.72043791667,1.021011352539062,0.4850311279296875,-0.7459564208984375,1,0.97
2020-05-16 12:26:48.157 -0400,10199.79041491667,1.086334228515625,0.01409912109375,-0.2994232177734375,1,0.97
2020-05-16 12:26:48.230 -0400,10199.86039091667,0.81658935546875,0.075286865234375,-0.33929443359375,1,0.97
2020-05-16 12:26:48.297 -0400,10199.93036791667,0.673614501953125,0.70465087890625,-0.21942138671875,1,0.97
2020-05-16 12:26:48.367 -0400,10200.00034391667,0.6868133544921875,0.6826324462890625,-0.2512969970703125,1,0.97
2020-05-16 12:26:48.437 -0400,10200.07032091667,0.8993682861328125,0.5840911865234375,-0.34710693359375,1,0.97
2020-05-16 12:26:48.507 -0400,10200.14029691667,1.233901977539062,0.6839599609375,-0.427642822265625,1,0.97
2020-05-16 12:26:48.577 -0400,10200.21027391667,1.324630737304688,0.85552978515625,-0.53704833984375,1,0.97
2020-05-16 12:26:48.647 -0400,10200.28025091667,1.412551879882812,0.236663818359375,-0.2897186279296875,1,0.97
2020-05-16 12:26:48.717 -0400,10200.35022691667,1.635848999023438,0.313934326171875,-0.2361602783203125,1,0.97
2020-05-16 12:26:48.787 -0400,10200.42020391667,1.056900024414062,0.3648529052734375,-0.1788177490234375,1,0.97
2020-05-16 12:26:48.857 -0400,10200.49017991667,0.7400970458984375,0.39398193359375,0.01959228515625,1,0.97
2020-05-16 12:26:48.927 -0400,10200.560157,0.6990203857421875,0.3360137939453125,0.0460205078125,1,0.97
2020-05-16 12:26:48.997 -0400,10200.630133,0.9227447509765625,0.2454681396484375,0.0415496826171875,1,0.97
2020-05-16 12:26:49.067 -0400,10200.70011,0.714447021484375,0.11029052734375,0.007080078125,1,0.97
2020-05-16 12:26:49.137 -0400,10200.770086,0.785369873046875,0.196136474609375,-0.0416259765625,1,0.97
2020-05-16 12:26:49.223 -0400,10200.840063,1.198593139648438,0.5646514892578125,-0.6059722900390625,1,0.97
2020-05-16 12:26:49.277 -0400,10200.910039,1.996475219726562,0.534759521484375,-0.409393310546875,1,0.97
2020-05-16 12:26:49.347 -0400,10200.980016,1.066741943359375,0.3414306640625,-0.48443603515625,1,0.97
2020-05-16 12:26:49.417 -0400,10201.049992,0.871246337890625,0.518035888671875,-0.2695159912109375,1,0.97
2020-05-16 12:26:49.487 -0400,10201.119969,0.74139404296875,0.5620574951171875,-0.477691650390625,1,0.97
2020-05-16 12:26:49.557 -0400,10201.189945,0.7070159912109375,0.5307159423828125,-0.618377685546875,1,0.97
2020-05-16 12:26:49.640 -0400,10201.259922,1.339492797851562,0.5588226318359375,-0.566680908203125,1,0.97
2020-05-16 12:26:49.697 -0400,10201.329899,1.444747924804688,0.3687286376953125,-0.4778289794921875,1,0.97
2020-05-16 12:26:49.767 -0400,10201.399875,1.450759887695312,0.3313446044921875,-0.27532958984375,1,0.97
2020-05-16 12:26:49.837 -0400,10201.469852,1.391510009765625,0.4793243408203125,-0.151336669921875,1,0.97
2020-05-16 12:26:49.907 -0400,10201.539828,0.887420654296875,0.3850860595703125,-0.041900634765625,1,0.97
2020-05-16 12:26:49.977 -0400,10201.60980404167,0.881988525390625,0.4045867919921875,0.02484130859375,1,0.97
2020-05-16 12:26:50.047 -0400,10201.67978004167,0.7948760986328125,0.28759765625,0.0269927978515625,1,0.97
2020-05-16 12:26:50.117 -0400,10201.74975704167,0.7953948974609375,0.252197265625,-0.0003509521484375,1,0.97
2020-05-16 12:26:50.187 -0400,10201.81973304167,0.7017669677734375,0.182403564453125,-0.0708160400390625,1,0.97
2020-05-16 12:26:50.257 -0400,10201.88971004167,0.8316497802734375,0.24420166015625,-0.18634033203125,1,0.97
2020-05-16 12:26:50.330 -0400,10201.95968704167,1.17242431640625,0.4231719970703125,-0.3047637939453125,1,0.97
2020-05-16 12:26:50.397 -0400,10202.02966304167,1.917526245117188,0.678985595703125,-0.65179443359375,1,0.97
2020-05-16 12:26:50.467 -0400,10202.09964004167,0.9739227294921875,0.515594482421875,-0.5260467529296875,1,0.97
2020-05-16 12:26:50.536 -0400,10202.16961604167,0.775848388671875,0.326812744140625,-0.26849365234375,1,0.97
2020-05-16 12:26:50.607 -0400,10202.23959304167,0.764068603515625,0.682098388671875,-0.3375396728515625,1,0.97
2020-05-16 12:26:50.677 -0400,10202.30956904167,0.694183349609375,0.834869384765625,-0.4788970947265625,1,0.97
2020-05-16 12:26:50.746 -0400,10202.37954604167,1.037811279296875,0.6671600341796875,-0.4692535400390625,1,0.97
2020-05-16 12:26:50.816 -0400,10202.44952204167,1.587936401367188,0.513519287109375,-0.4423370361328125,1,0.97
2020-05-16 12:26:50.886 -0400,10202.51949904167,1.468963623046875,0.4134368896484375,-0.362548828125,1,0.97
2020-05-16 12:26:50.956 -0400,10202.589476625,1.778533935546875,0.38214111328125,-0.2067413330078125,1,0.97
2020-05-16 12:26:51.026 -0400,10202.659452625,1.094131469726562,0.3037261962890625,-0.1816253662109375,1,0.97
2020-05-16 12:26:51.096 -0400,10202.729429625,0.8203277587890625,0.321685791015625,-0.076446533203125,1,0.97
2020-05-16 12:26:51.166 -0400,10202.799405625,0.675445556640625,0.2220611572265625,-0.006805419921875,1,0.97
2020-05-16 12:26:51.236 -0400,10202.869382625,0.5269927978515625,0.0990447998046875,0.0228118896484375,1,0.97
2020-05-16 12:26:51.307 -0400,10202.939358625,0.5345916748046875,0.1368408203125,0.03118896484375,1,0.97
2020-05-16 12:26:51.376 -0400,10203.009335625,0.8659515380859375,0.428955078125,0.0340728759765625,1,0.97
2020-05-16 12:26:51.446 -0400,10203.079312625,1.270736694335938,0.7271728515625,-0.295440673828125,1,0.97
2020-05-16 12:26:51.516 -0400,10203.149288625,1.91949462890625,0.5525970458984375,-0.5002593994140625,1,0.97
2020-05-16 12:26:51.586 -0400,10203.219265625,1.137069702148438,0.56170654296875,-0.553802490234375,1,0.97
2020-05-16 12:26:51.656 -0400,10203.289241625,0.839599609375,0.3947906494140625,-0.3565673828125,1,0.97
2020-05-16 12:26:51.727 -0400,10203.359218625,0.7104644775390625,0.4777069091796875,-0.571044921875,1,0.97
2020-05-16 12:26:51.796 -0400,10203.429194625,0.6854705810546875,0.666900634765625,-0.6614532470703125,1,0.97
2020-05-16 12:26:51.866 -0400,10203.499171625,0.7589111328125,0.4975433349609375,-0.5516204833984375,1,0.97
2020-05-16 12:26:51.936 -0400,10203.569149375,2.654052734375,0.3408050537109375,-0.4916229248046875,1,0.97
2020-05-16 12:26:52.006 -0400,10203.639125375,1.6400146484375,0.374725341796875,-0.4732818603515625,1,0.97
2020-05-16 12:26:52.076 -0400,10203.709102375,1.207077026367188,0.4152679443359375,-0.4059600830078125,1,0.97
2020-05-16 12:26:52.146 -0400,10203.779078375,0.6461639404296875,0.2788848876953125,-0.0839080810546875,1,0.97
2020-05-16 12:26:52.216 -0400,10203.849055375,0.422698974609375,-0.023834228515625,-0.0214996337890625,1,0.97
2020-05-16 12:26:52.286 -0400,10203.919032375,0.5937347412109375,0.0128631591796875,0.1076507568359375,1,0.97
2020-05-16 12:26:52.356 -0400,10203.989008375,1.362930297851562,0.350799560546875,0.426605224609375,1,0.97
2020-05-16 12:26:52.426 -0400,10204.058985375,1.959259033203125,0.8716888427734375,-0.8022613525390625,1,0.97
2020-05-16 12:26:52.496 -0400,10204.128961375,1.560714721679688,0.5946197509765625,-0.010284423828125,1,0.97
2020-05-16 12:26:52.566 -0400,10204.198938375,1.303726196289062,0.3134613037109375,-0.300140380859375,1,0.97
2020-05-16 12:26:52.640 -0400,10204.268915375,1.148056030273438,0.3839874267578125,-0.3648529052734375,1,0.97
2020-05-16 12:26:52.706 -0400,10204.338891375,0.87158203125,0.704071044921875,-0.404510498046875,1,0.97
2020-05-16 12:26:52.776 -0400,10204.408868375,0.5437469482421875,0.7772216796875,-0.4273834228515625,1,0.97
2020-05-16 12:26:52.846 -0400,10204.478844375,0.85247802734375,0.529510498046875,-0.4599761962890625,1,0.97
2020-05-16 12:26:52.916 -0400,10204.548821375,1.453628540039062,0.1661834716796875,-0.10284423828125,1,0.97
2020-05-16 12:26:52.986 -0400,10204.61879754167,1.706161499023438,0.2615814208984375,0.29669189453125,1,0.97
2020-05-16 12:26:53.056 -0400,10204.68877354167,1.208038330078125,0.4860382080078125,0.10797119140625,1,0.97
2020-05-16 12:26:53.126 -0400,10204.75875054167,0.3686065673828125,0.2325439453125,0.1263275146484375,1,0.97
2020-05-16 12:26:53.196 -0400,10204.82872654167,0.22412109375,0.32037353515625,0.0952301025390625,1,0.97
2020-05-16 12:26:53.266 -0400,10204.89870354167,0.1639556884765625,0.64599609375,-0.0126800537109375,1,0.97
2020-05-16 12:26:53.336 -0400,10204.96868054167,0.45977783203125,3.037109375,-0.8438262939453125,1,0.97
2020-05-16 12:26:53.406 -0400,10205.03865654167,0.8419647216796875,2.036727905273438,-0.6801910400390625,1,0.97
2020-05-16 12:26:53.475 -0400,10205.10863354167,0.6884002685546875,-0.1689605712890625,0.5133209228515625,1,0.97
2020-05-16 12:26:53.545 -0400,10205.17860954167,0.8289031982421875,-0.2068328857421875,0.7335052490234375,1,0.97
2020-05-16 12:26:53.616 -0400,10205.24858654167,1.296646118164062,-0.084259033203125,1.359756469726562,1,0.97
2020-05-16 12:26:53.685 -0400,10205.31856354167,1.057586669921875,-0.2044219970703125,0.661224365234375,1,0.97
2020-05-16 12:26:53.755 -0400,10205.38853954167,1.791595458984375,1.892135620117188,-1.242507934570312,1,0.97
2020-05-16 12:26:53.826 -0400,10205.45851654167,0.785247802734375,0.0085601806640625,-0.9703826904296875,1,0.97
2020-05-16 12:26:53.896 -0400,10205.52849254167,1.626220703125,0.44488525390625,-0.483184814453125,1,0.97
2020-05-16 12:26:53.965 -0400,10205.5984695,1.380447387695312,0.27593994140625,-0.1861114501953125,1,0.97
2020-05-16 12:26:54.036 -0400,10205.6684465,0.1680755615234375,0.576324462890625,-0.3918304443359375,1,0.97
2020-05-16 12:26:54.105 -0400,10205.7384225,0.70770263671875,0.4989013671875,0.0902557373046875,1,0.97
2020-05-16 12:26:54.175 -0400,10205.8083995,0.9884796142578125,0.329803466796875,0.2953948974609375,1,0.97
2020-05-16 12:26:54.246 -0400,10205.8783765,1.6485595703125,0.40850830078125,0.4889678955078125,1,0.97
2020-05-16 12:26:54.315 -0400,10205.9483525,1.873397827148438,0.4358673095703125,0.381561279296875,1,0.97
2020-05-16 12:26:54.385 -0400,10206.0183295,0.95172119140625,0.3725128173828125,0.1048126220703125,1,0.97
2020-05-16 12:26:54.455 -0400,10206.0883055,0.6747894287109375,0.4464569091796875,-0.0901031494140625,1,0.97
2020-05-16 12:26:54.525 -0400,10206.1582825,0.450531005859375,0.2253265380859375,-0.1532135009765625,1,0.97
2020-05-16 12:26:54.595 -0400,10206.2282595,0.4569091796875,0.2730865478515625,-0.2771759033203125,1,0.97
2020-05-16 12:26:54.665 -0400,10206.2982355,0.59991455078125,0.3560028076171875,-0.1533966064453125,1,0.97
2020-05-16 12:26:54.735 -0400,10206.3682125,1.049102783203125,0.3904266357421875,-0.0055694580078125,1,0.97
2020-05-16 12:26:54.805 -0400,10206.4381895,1.439407348632812,0.5556182861328125,0.144683837890625,1,0.97
2020-05-16 12:26:54.875 -0400,10206.5081655,1.306686401367188,0.5221405029296875,0.033477783203125,1,0.97
2020-05-16 12:26:54.945 -0400,10206.57814275,1.514633178710938,0.4883270263671875,0.4727630615234375,1,0.97
2020-05-16 12:26:55.015 -0400,10206.64811875,0.6234130859375,0.3994140625,0.333648681640625,1,0.97
2020-05-16 12:26:55.085 -0400,10206.71809575,0.831146240234375,0.4160919189453125,0.412628173828125,1,0.97
2020-05-16 12:26:55.155 -0400,10206.78807275,0.7249603271484375,0.409515380859375,0.221832275390625,1,0.97
2020-05-16 12:26:55.225 -0400,10206.85804875,0.5619659423828125,0.4136962890625,0.1684722900390625,1,0.97
2020-05-16 12:26:55.295 -0400,10206.92802575,0.7894744873046875,0.763916015625,-0.081146240234375,1,0.97
2020-05-16 12:26:55.365 -0400,10206.99800175,0.96307373046875,1.051803588867188,-0.422271728515625,1,0.97
2020-05-16 12:26:55.435 -0400,10207.06797875,0.838348388671875,0.9420166015625,-0.5035552978515625,1,0.97
2020-05-16 12:26:55.505 -0400,10207.13795575,1.206268310546875,1.023300170898438,-0.5363311767578125,1,0.97
2020-05-16 12:26:55.575 -0400,10207.20793175,1.207351684570312,0.6287841796875,-0.3148040771484375,1,0.97
2020-05-16 12:26:55.648 -0400,10207.27790875,1.675857543945312,0.48406982421875,-0.12017822265625,1,0.97
2020-05-16 12:26:55.715 -0400,10207.34788575,1.395309448242188,0.3455810546875,0.1070709228515625,1,0.97
2020-05-16 12:26:55.785 -0400,10207.41786175,1.000564575195312,0.40655517578125,0.149749755859375,1,0.97
2020-05-16 12:26:55.855 -0400,10207.48783875,0.81903076171875,0.3698577880859375,0.318634033203125,1,0.97
2020-05-16 12:26:55.925 -0400,10207.557815625,0.817169189453125,0.2870025634765625,0.31951904296875,1,0.97
2020-05-16 12:26:55.995 -0400,10207.627791625,0.8984222412109375,0.304046630859375,0.24468994140625,1,0.97
2020-05-16 12:26:56.065 -0400,10207.697768625,1.19000244140625,0.3686370849609375,-0.027313232421875,1,0.97
2020-05-16 12:26:56.135 -0400,10207.767744625,1.345993041992188,0.229522705078125,-0.3909759521484375,1,0.97
2020-05-16 12:26:56.205 -0400,10207.837721625,0.826934814453125,-0.1531524658203125,-0.670501708984375,1,0.97
2020-05-16 12:26:56.275 -0400,10207.907698625,1.32672119140625,0.0207672119140625,-0.686370849609375,1,0.97
2020-05-16 12:26:56.345 -0400,10207.977674625,1.060226440429688,0.1941070556640625,-0.41265869140625,1,0.97
2020-05-16 12:26:56.414 -0400,10208.047651625,0.7747802734375,0.5231170654296875,-0.4994354248046875,1,0.97
2020-05-16 12:26:56.484 -0400,10208.117628625,0.6159820556640625,0.5885162353515625,-0.36785888671875,1,0.97
2020-05-16 12:26:56.554 -0400,10208.187604625,0.8153228759765625,0.5960845947265625,-0.5160675048828125,1,0.97
2020-05-16 12:26:56.625 -0400,10208.257581625,0.9810638427734375,0.550140380859375,-0.5589599609375,1,0.97
2020-05-16 12:26:56.694 -0400,10208.327558625,1.519454956054688,0.588287353515625,-0.5515899658203125,1,0.97
2020-05-16 12:26:56.764 -0400,10208.397534625,1.58343505859375,0.3720245361328125,-0.3658294677734375,1,0.97
2020-05-16 12:26:56.834 -0400,10208.467511625,1.848541259765625,0.26708984375,-0.17535400390625,1,0.97
2020-05-16 12:26:56.904 -0400,10208.537488625,1.205352783203125,0.387603759765625,-0.1164398193359375,1,0.97
2020-05-16 12:26:56.974 -0400,10208.60746466667,0.624847412109375,0.2896728515625,-0.0211944580078125,1,0.97
2020-05-16 12:26:57.044 -0400,10208.67744166667,0.444122314453125,0.28509521484375,0.035003662109375,1,0.97
2020-05-16 12:26:57.114 -0400,10208.74741766667,0.6110382080078125,0.204010009765625,-0.00653076171875,1,0.97
2020-05-16 12:26:57.184 -0400,10208.81739466667,1.158599853515625,0.2142791748046875,-0.0886383056640625,1,0.97
2020-05-16 12:26:57.260 -0400,10208.88737166667,1.166397094726562,0.145660400390625,-0.1470184326171875,1,0.97
2020-05-16 12:26:57.324 -0400,10208.95734766667,1.387359619140625,0.304718017578125,-0.19140625,1,0.97
2020-05-16 12:26:57.394 -0400,10209.02732466667,1.83929443359375,0.6178436279296875,-0.2568359375,1,0.97
2020-05-16 12:26:57.464 -0400,10209.09730166667,1.339767456054688,0.2972259521484375,-0.212249755859375,1,0.97
2020-05-16 12:26:57.534 -0400,10209.16727766667,0.9542694091796875,0.58807373046875,-0.225799560546875,1,0.97
2020-05-16 12:26:57.623 -0400,10209.23725466667,0.5474700927734375,0.5416717529296875,-0.0365753173828125,1,0.97
2020-05-16 12:26:57.674 -0400,10209.30723166667,0.4002227783203125,0.426025390625,-0.0110626220703125,1,0.97
2020-05-16 12:26:57.744 -0400,10209.37720766667,0.6565704345703125,0.5272674560546875,-0.0671234130859375,1,0.97
2020-05-16 12:26:57.814 -0400,10209.44718466667,1.107772827148438,0.6693267822265625,-0.2257080078125,1,0.97
2020-05-16 12:26:57.884 -0400,10209.51716166667,1.433486938476562,0.6722564697265625,-0.4432525634765625,1,0.97
2020-05-16 12:26:57.954 -0400,10209.58713841667,1.431228637695312,0.6035308837890625,-0.7511749267578125,1,0.97
2020-05-16 12:26:58.024 -0400,10209.65711541667,1.569564819335938,0.2105255126953125,-0.411529541015625,1,0.97
2020-05-16 12:26:58.094 -0400,10209.72709241667,1.773300170898438,-0.084320068359375,-0.2310638427734375,1,0.97
2020-05-16 12:26:58.164 -0400,10209.79706841667,1.012481689453125,0.2938232421875,-0.2331085205078125,1,0.97
2020-05-16 12:26:58.235 -0400,10209.86704541667,0.37445068359375,0.3132781982421875,-0.2576446533203125,1,0.97
2020-05-16 12:26:58.304 -0400,10209.93702241667,0.3759765625,0.2988433837890625,-0.1366424560546875,1,0.97
2020-05-16 12:26:58.374 -0400,10210.00699841667,0.420806884765625,0.1492462158203125,-0.0300750732421875,1,0.97
2020-05-16 12:26:58.444 -0400,10210.07697541667,0.779144287109375,0.178680419921875,-0.1378936767578125,1,0.97
2020-05-16 12:26:58.514 -0400,10210.14695241667,1.482620239257812,0.362213134765625,-0.1990814208984375,1,0.97
2020-05-16 12:26:58.584 -0400,10210.21692841667,1.23291015625,0.3199310302734375,-0.2463226318359375,1,0.97
2020-05-16 12:26:58.656 -0400,10210.28690541667,1.776504516601562,0.377838134765625,-0.0745697021484375,1,0.97
2020-05-16 12:26:58.724 -0400,10210.35688241667,1.229827880859375,0.3441162109375,-0.2520751953125,1,0.97
2020-05-16 12:26:58.794 -0400,10210.42685841667,0.8780670166015625,0.5845794677734375,-0.270660400390625,1,0.97
2020-05-16 12:26:58.864 -0400,10210.49683541667,0.5501708984375,0.4112396240234375,-0.18408203125,1,0.97
2020-05-16 12:26:58.934 -0400,10210.566811,0.5930023193359375,0.4984283447265625,-0.2143096923828125,1,0.97
2020-05-16 12:26:59.003 -0400,10210.636788,0.8753509521484375,0.704071044921875,-0.407073974609375,1,0.97
2020-05-16 12:26:59.074 -0400,10210.706765,0.8717498779296875,0.6616363525390625,-0.697723388671875,1,0.97
2020-05-16 12:26:59.144 -0400,10210.776741,1.125579833984375,0.336669921875,-0.5803375244140625,1,0.97
2020-05-16 12:26:59.213 -0400,10210.846718,1.536911010742188,0.326751708984375,-0.4249725341796875,1,0.97
2020-05-16 12:26:59.284 -0400,10210.916695,1.715713500976562,0.3914337158203125,-0.399261474609375,1,0.97
2020-05-16 12:26:59.360 -0400,10210.986671,1.481674194335938,0.259674072265625,-0.148193359375,1,0.97
2020-05-16 12:26:59.423 -0400,10211.056648,1.24200439453125,0.32568359375,0.0844573974609375,1,0.97
2020-05-16 12:26:59.493 -0400,10211.126625,0.98052978515625,0.3162384033203125,0.1273193359375,1,0.97
2020-05-16 12:26:59.564 -0400,10211.196601,0.6039276123046875,0.307525634765625,0.1295928955078125,1,0.97
2020-05-16 12:26:59.634 -0400,10211.266578,0.4239044189453125,0.34881591796875,0.083465576171875,1,0.97
2020-05-16 12:26:59.703 -0400,10211.336555,0.28839111328125,0.359527587890625,-0.0036773681640625,1,0.97
2020-05-16 12:26:59.773 -0400,10211.406531,0.2404937744140625,0.343536376953125,-0.118316650390625,1,0.97
2020-05-16 12:26:59.843 -0400,10211.476508,0.640655517578125,0.25360107421875,-0.0305023193359375,1,0.97
2020-05-16 12:26:59.914 -0400,10211.546485,1.561859130859375,0.2788238525390625,-0.2620697021484375,1,0.97
2020-05-16 12:26:59.983 -0400,10211.616460625,1.751953125,0.4658203125,-0.443878173828125,1,0.97
2020-05-16 12:27:00.053 -0400,10211.686437625,1.195068359375,0.817138671875,-0.7847442626953125,1,0.97
2020-05-16 12:27:00.123 -0400,10211.756414625,1.177642822265625,-0.02703857421875,-0.0117034912109375,1,0.97
2020-05-16 12:27:00.193 -0400,10211.826390625,0.6760406494140625,0.31689453125,-0.20489501953125,1,0.97
2020-05-16 12:27:00.263 -0400,10211.896367625,0.3516387939453125,0.541290283203125,-0.1168975830078125,1,0.97
2020-05-16 12:27:00.333 -0400,10211.966344625,0.293487548828125,0.414337158203125,-0.0994873046875,1,0.97
2020-05-16 12:27:00.403 -0400,10212.036320625,0.5223846435546875,0.33782958984375,-0.1735992431640625,1,0.97
2020-05-16 12:27:00.473 -0400,10212.106297625,1.012466430664062,0.4044342041015625,-0.21197509765625,1,0.97
2020-05-16 12:27:00.543 -0400,10212.176274625,1.324691772460938,0.438385009765625,-0.3712310791015625,1,0.97
2020-05-16 12:27:00.613 -0400,10212.246250625,1.362625122070312,0.5879364013671875,-0.4907684326171875,1,0.97
2020-05-16 12:27:00.683 -0400,10212.316227625,1.2569580078125,0.4426116943359375,-0.23114013671875,1,0.97
2020-05-16 12:27:00.753 -0400,10212.386204625,1.252349853515625,0.084686279296875,-0.0899200439453125,1,0.97
2020-05-16 12:27:00.823 -0400,10212.456180625,0.7140655517578125,0.3683013916015625,-0.1790618896484375,1,0.97
2020-05-16 12:27:00.893 -0400,10212.526157625,0.4007110595703125,0.423004150390625,-0.1885528564453125,1,0.97
2020-05-16 12:27:00.963 -0400,10212.5961355,0.3577880859375,0.3128204345703125,-0.0762939453125,1,0.97
2020-05-16 12:27:01.033 -0400,10212.6661115,0.5805511474609375,0.1831512451171875,-0.0703582763671875,1,0.97
2020-05-16 12:27:01.104 -0400,10212.7360885,1.125244140625,0.2989044189453125,-0.156890869140625,1,0.97
2020-05-16 12:27:01.173 -0400,10212.8060655,1.461502075195312,0.373779296875,-0.08197021484375,1,0.97
2020-05-16 12:27:01.243 -0400,10212.8760415,1.67474365234375,0.5983428955078125,-0.4383087158203125,1,0.97
2020-05-16 12:27:01.313 -0400,10212.9460185,1.220382690429688,0.2840728759765625,-0.3154144287109375,1,0.97
2020-05-16 12:27:01.383 -0400,10213.0159955,1.1300048828125,0.0750274658203125,-0.0872344970703125,1,0.97
2020-05-16 12:27:01.453 -0400,10213.0859715,0.667938232421875,0.225189208984375,-0.169219970703125,1,0.97
2020-05-16 12:27:01.522 -0400,10213.1559485,0.26287841796875,0.37579345703125,-0.1412811279296875,1,0.97
2020-05-16 12:27:01.593 -0400,10213.2259255,0.1934814453125,0.3539581298828125,-0.17474365234375,1,0.97
2020-05-16 12:27:01.663 -0400,10213.2959025,0.3816986083984375,0.3223419189453125,-0.2350311279296875,1,0.97
2020-05-16 12:27:01.733 -0400,10213.3658785,1.277908325195312,0.286956787109375,-0.2461395263671875,1,0.97
2020-05-16 12:27:01.803 -0400,10213.4358555,1.473419189453125,0.3760986328125,-0.259674072265625,1,0.97
2020-05-16 12:27:01.872 -0400,10213.5058325,1.60052490234375,0.9547271728515625,-0.71197509765625,1,0.97
2020-05-16 12:27:01.942 -0400,10213.57580725,1.239486694335938,0.3588104248046875,0.034393310546875,1,0.97
2020-05-16 12:27:02.012 -0400,10213.64578425,0.8704071044921875,0.0442352294921875,0.113555908203125,1,0.97
2020-05-16 12:27:02.082 -0400,10213.71576125,0.50390625,0.3550567626953125,-0.073516845703125,1,0.97
2020-05-16 12:27:02.152 -0400,10213.78573725,0.37457275390625,0.510345458984375,-0.2386627197265625,1,0.97
2020-05-16 12:27:02.222 -0400,10213.85571425,0.6070556640625,0.309844970703125,-0.0379180908203125,1,0.97
2020-05-16 12:27:02.294 -0400,10213.92569125,0.8878631591796875,0.1803131103515625,0.0523681640625,1,0.97
2020-05-16 12:27:02.362 -0400,10213.99566725,1.111251831054688,0.3209228515625,-0.07421875,1,0.97
2020-05-16 12:27:02.432 -0400,10214.06564425,1.55694580078125,0.401885986328125,-0.003570556640625,1,0.97
2020-05-16 12:27:02.502 -0400,10214.13562125,1.228042602539062,0.3153533935546875,-0.0758514404296875,1,0.97
2020-05-16 12:27:02.572 -0400,10214.20559725,1.182266235351562,0.1710357666015625,-0.1493682861328125,1,0.97
2020-05-16 12:27:02.642 -0400,10214.27557425,0.996856689453125,-0.1768035888671875,-0.088775634765625,1,0.97
2020-05-16 12:27:02.712 -0400,10214.34555125,0.7575531005859375,0.1193695068359375,-0.1244049072265625,1,0.97
2020-05-16 12:27:02.782 -0400,10214.41552725,0.4608612060546875,0.153411865234375,-0.092010498046875,1,0.97
2020-05-16 12:27:02.852 -0400,10214.48550425,0.439697265625,0.2638092041015625,-0.10791015625,1,0.97
2020-05-16 12:27:02.922 -0400,10214.55548125,0.5259857177734375,0.345703125,-0.2627410888671875,1,0.97
2020-05-16 12:27:02.992 -0400,10214.62545825,1.037994384765625,0.339630126953125,-0.2691497802734375,1,0.97
2020-05-16 12:27:03.062 -0400,10214.69543525,1.698348999023438,0.381805419921875,-0.030792236328125,1,0.97
2020-05-16 12:27:03.132 -0400,10214.76541225,1.597732543945312,0.404266357421875,-0.190399169921875,1,0.97
2020-05-16 12:27:03.202 -0400,10214.83538825,1.0703125,0.342987060546875,-0.1317291259765625,1,0.97
2020-05-16 12:27:03.272 -0400,10214.90536525,1.176986694335938,0.0263671875,0.02081298828125,1,0.97
2020-05-16 12:27:03.342 -0400,10214.97534225,0.841278076171875,0.1681671142578125,-0.1441192626953125,1,0.97
2020-05-16 12:27:03.412 -0400,10215.04531925,0.6632232666015625,0.186737060546875,-0.2298583984375,1,0.97
2020-05-16 12:27:03.482 -0400,10215.11529525,0.622711181640625,0.186614990234375,-0.0048370361328125,1,0.97
2020-05-16 12:27:03.552 -0400,10215.18527225,0.7277679443359375,0.218292236328125,0.034515380859375,1,0.97
2020-05-16 12:27:03.622 -0400,10215.25524925,0.7697906494140625,0.3231048583984375,0.0948944091796875,1,0.97
2020-05-16 12:27:03.692 -0400,10215.32522525,1.286102294921875,0.54132080078125,0.0498046875,1,0.97
2020-05-16 12:27:03.762 -0400,10215.39520225,1.484146118164062,0.7362060546875,-0.138641357421875,1,0.97
2020-05-16 12:27:03.832 -0400,10215.46517925,1.183868408203125,0.41387939453125,-0.28009033203125,1,0.97
2020-05-16 12:27:03.902 -0400,10215.53515525,1.019378662109375,-0.5627899169921875,-0.1620941162109375,1,0.97
2020-05-16 12:27:03.972 -0400,10215.605131,0.872283935546875,0.07415771484375,-0.4954681396484375,1,0.97
2020-05-16 12:27:04.042 -0400,10215.675108,0.5738677978515625,0.112701416015625,-0.24517822265625,1,0.97
2020-05-16 12:27:04.112 -0400,10215.745084,0.414581298828125,0.1050262451171875,-0.1827545166015625,1,0.97
2020-05-16 12:27:04.182 -0400,10215.815061,0.4807586669921875,0.3227691650390625,-0.1133880615234375,1,0.97
2020-05-16 12:27:04.252 -0400,10215.885038,0.749053955078125,0.4480133056640625,-0.133544921875,1,0.97
2020-05-16 12:27:04.322 -0400,10215.955014,1.202651977539062,0.6124267578125,-0.198272705078125,1,0.97
2020-05-16 12:27:04.392 -0400,10216.024991,1.425750732421875,0.703765869140625,-0.45135498046875,1,0.97
2020-05-16 12:27:04.462 -0400,10216.094968,1.460922241210938,0.5218048095703125,-0.3163604736328125,1,0.97
2020-05-16 12:27:04.532 -0400,10216.164945,1.265701293945312,0.24224853515625,-0.1912078857421875,1,0.97
2020-05-16 12:27:04.602 -0400,10216.234921,0.9304046630859375,0.402099609375,-0.2123260498046875,1,0.97
2020-05-16 12:27:04.672 -0400,10216.304898,0.5794830322265625,0.3647918701171875,-0.0853424072265625,1,0.97
2020-05-16 12:27:04.742 -0400,10216.374875,0.504486083984375,0.3775634765625,0.0092926025390625,1,0.97
2020-05-16 12:27:04.812 -0400,10216.444851,0.7110137939453125,0.3198699951171875,-0.0607147216796875,1,0.97
2020-05-16 12:27:04.882 -0400,10216.514828,0.9212799072265625,0.170806884765625,-0.0245361328125,1,0.97
2020-05-16 12:27:04.952 -0400,10216.58480629167,1.1611328125,0.28778076171875,-0.1178741455078125,1,0.97
2020-05-16 12:27:05.022 -0400,10216.65478329167,1.350326538085938,0.43798828125,-0.1165313720703125,1,0.97
2020-05-16 12:27:05.092 -0400,10216.72475929167,1.32037353515625,0.7211761474609375,-0.4622650146484375,1,0.97
2020-05-16 12:27:05.162 -0400,10216.79473629167,1.049606323242188,0.406829833984375,-0.3349609375,1,0.97
2020-05-16 12:27:05.236 -0400,10216.86969829167,0.74652099609375,-0.1601409912109375,-0.1882476806640625,1,0.97
2020-05-16 12:27:05.356 -0400,10216.98944229167,0.371856689453125,0.30975341796875,-0.1221771240234375,1,0.97
2020-05-16 12:27:05.476 -0400,10217.10918529167,0.6824493408203125,0.3841094970703125,-0.3019256591796875,1,0.97
2020-05-16 12:27:05.596 -0400,10217.22892529167,1.64996337890625,0.2980499267578125,-0.082275390625,1,0.97
2020-05-16 12:27:05.715 -0400,10217.34866729167,1.156524658203125,0.317718505859375,-0.2134246826171875,1,0.97
2020-05-16 12:27:05.835 -0400,10217.46840629167,0.898101806640625,0.053680419921875,0.0703887939453125,1,0.97
2020-05-16 12:27:05.955 -0400,10217.58814754167,0.6659698486328125,0.2325286865234375,-0.010894775390625,1,0.97
2020-05-16 12:27:06.075 -0400,10217.70788654167,0.725921630859375,0.1840972900390625,0.06878662109375,1,0.97
2020-05-16 12:27:06.194 -0400,10217.82763254167,1.162826538085938,0.383544921875,-0.0283203125,1,0.97
2020-05-16 12:27:06.319 -0400,10217.94737654167,1.443038940429688,0.555389404296875,-0.3463134765625,1,0.97
2020-05-16 12:27:06.434 -0400,10218.06711354167,0.939544677734375,-0.0904388427734375,-0.0798492431640625,1,0.97
2020-05-16 12:27:06.553 -0400,10218.18685654167,0.540618896484375,0.197265625,-0.180511474609375,1,0.97
2020-05-16 12:27:06.673 -0400,10218.30659654167,0.5474853515625,0.1988525390625,-0.148223876953125,1,0.97
2020-05-16 12:27:06.793 -0400,10218.42633354167,1.0267333984375,0.373565673828125,-0.152679443359375,1,0.97
2020-05-16 12:27:06.913 -0400,10218.54607554167,1.42034912109375,0.5578155517578125,-0.253662109375,1,0.97
2020-05-16 12:27:07.032 -0400,10218.665815875,1.212249755859375,0.4405975341796875,0.0113372802734375,1,0.97
2020-05-16 12:27:07.152 -0400,10218.785557875,0.451446533203125,0.3481903076171875,0.076568603515625,1,0.97
2020-05-16 12:27:07.272 -0400,10218.905300875,0.4700927734375,0.301361083984375,0.0138092041015625,1,0.97
2020-05-16 12:27:07.392 -0400,10219.025044875,1.659576416015625,0.415618896484375,-0.0312652587890625,1,0.97
2020-05-16 12:27:07.511 -0400,10219.144788875,1.425949096679688,0.69012451171875,-0.443206787109375,1,0.97
2020-05-16 12:27:07.631 -0400,10219.264524875,1.084152221679688,0.080169677734375,-0.112457275390625,1,0.97
2020-05-16 12:27:07.751 -0400,10219.384264875,0.5251007080078125,0.4477081298828125,-0.1940765380859375,1,0.97
2020-05-16 12:27:07.871 -0400,10219.504001875,0.38250732421875,0.4187164306640625,-0.1353912353515625,1,0.97
2020-05-16 12:27:07.990 -0400,10219.62373975,0.8178253173828125,0.5733184814453125,-0.2767333984375,1,0.97
2020-05-16 12:27:08.110 -0400,10219.74347075,1.467987060546875,1.4051513671875,0.1173248291015625,1,0.97
2020-05-16 12:27:08.230 -0400,10219.86320175,1.038299560546875,0.7224578857421875,0.154815673828125,1,0.97
2020-05-16 12:27:08.310 -0400,10219.94301675,0.9759368896484375,0.4649505615234375,0.0232696533203125,1,0.97
2020-05-16 12:27:08.379 -0400,10220.01285475,0.74249267578125,0.3929443359375,-0.127777099609375,1,0.97
2020-05-16 12:27:08.449 -0400,10220.08269575,0.634613037109375,0.27740478515625,-0.1242218017578125,1,0.97
2020-05-16 12:27:08.519 -0400,10220.15253975,0.7448883056640625,0.2667388916015625,-0.194061279296875,1,0.97
2020-05-16 12:27:08.589 -0400,10220.22238275,1.11846923828125,0.430999755859375,-0.31768798828125,1,0.97
2020-05-16 12:27:08.659 -0400,10220.29222375,1.556076049804688,0.3929290771484375,-0.2228546142578125,1,0.97
2020-05-16 12:27:08.729 -0400,10220.36206275,1.258636474609375,0.55413818359375,-0.1436004638671875,1,0.97
2020-05-16 12:27:08.798 -0400,10220.43190275,1.109085083007812,0.440826416015625,-0.0670318603515625,1,0.97
2020-05-16 12:27:08.868 -0400,10220.50174875,0.9686126708984375,0.4092864990234375,-0.057098388671875,1,0.97
2020-05-16 12:27:08.938 -0400,10220.571594875,0.5535430908203125,0.42132568359375,-0.0847320556640625,1,0.97
2020-05-16 12:27:09.008 -0400,10220.641440875,0.362762451171875,0.361236572265625,-0.1033782958984375,1,0.97
2020-05-16 12:27:09.078 -0400,10220.711280875,0.3726654052734375,0.3261871337890625,0.037384033203125,1,0.97
2020-05-16 12:27:09.148 -0400,10220.781119875,0.45050048828125,0.658935546875,-0.0187835693359375,1,0.97
2020-05-16 12:27:09.218 -0400,10220.850960875,0.9699249267578125,1.003311157226562,-0.1744384765625,1,0.97
2020-05-16 12:27:09.287 -0400,10220.920805875,1.809432983398438,0.998382568359375,-0.312255859375,1,0.97
2020-05-16 12:27:09.357 -0400,10220.990653875,1.36029052734375,0.6194000244140625,-0.204315185546875,1,0.97
2020-05-16 12:27:09.427 -0400,10221.060498875,1.256729125976562,0.620147705078125,-0.2341156005859375,1,0.97
2020-05-16 12:27:09.497 -0400,10221.130344875,0.9680938720703125,0.41534423828125,-0.0663909912109375,1,0.97
2020-05-16 12:27:09.567 -0400,10221.200188875,0.6142578125,0.255645751953125,-0.0024261474609375,1,0.97
2020-05-16 12:27:09.637 -0400,10221.270031875,0.4439239501953125,0.2418212890625,0.0160369873046875,1,0.97
2020-05-16 12:27:09.706 -0400,10221.339874875,0.5322418212890625,0.2476654052734375,-0.009735107421875,1,0.97
2020-05-16 12:27:09.776 -0400,10221.409714875,0.965667724609375,0.34375,-0.0185699462890625,1,0.97
2020-05-16 12:27:09.846 -0400,10221.479557875,1.295211791992188,0.316314697265625,0.113983154296875,1,0.97
2020-05-16 12:27:09.916 -0400,10221.549400875,1.87103271484375,0.906524658203125,-0.50433349609375,1,0.97
2020-05-16 12:27:09.986 -0400,10221.61924229167,1.396408081054688,0.52362060546875,-0.1403350830078125,1,0.97
2020-05-16 12:27:10.056 -0400,10221.68908229167,0.824676513671875,0.2172393798828125,-0.3866119384765625,1,0.97
2020-05-16 12:27:10.126 -0400,10221.75892329167,0.545074462890625,0.3286285400390625,-0.21319580078125,1,0.97
2020-05-16 12:27:10.195 -0400,10221.82876429167,0.3914947509765625,0.4706878662109375,-0.180633544921875,1,0.97
2020-05-16 12:27:10.265 -0400,10221.89861229167,0.780120849609375,0.5091705322265625,-0.3838348388671875,1,0.97
2020-05-16 12:27:10.336 -0400,10221.96846029167,1.16925048828125,0.4598846435546875,-0.4168548583984375,1,0.97
2020-05-16 12:27:10.405 -0400,10222.03830929167,1.69183349609375,0.410308837890625,-0.486602783203125,1,0.97
2020-05-16 12:27:10.475 -0400,10222.10816029167,1.129074096679688,0.3568878173828125,-0.272186279296875,1,0.97
2020-05-16 12:27:10.545 -0400,10222.17800529167,1.245559692382812,0.242828369140625,-0.0920562744140625,1,0.97
2020-05-16 12:27:10.614 -0400,10222.24785429167,0.9015350341796875,0.3225860595703125,0.00848388671875,1,0.97
2020-05-16 12:27:10.684 -0400,10222.31769829167,0.6085968017578125,0.3511505126953125,0.037200927734375,1,0.97
2020-05-16 12:27:10.754 -0400,10222.38754829167,0.6574859619140625,0.3673553466796875,0.0816650390625,1,0.97
2020-05-16 12:27:10.824 -0400,10222.45739129167,0.9791717529296875,0.33697509765625,0.0740814208984375,1,0.97
2020-05-16 12:27:10.894 -0400,10222.52723729167,1.226776123046875,0.342987060546875,-0.1383514404296875,1,0.97
2020-05-16 12:27:10.964 -0400,10222.5970855,0.99749755859375,0.1076812744140625,-0.2080078125,1,0.97
2020-05-16 12:27:11.033 -0400,10222.6669275,1.451416015625,0.0683746337890625,-0.3985443115234375,1,0.97
2020-05-16 12:27:11.103 -0400,10222.7367685,1.267227172851562,0.1310272216796875,-0.33203125,1,0.97
2020-05-16 12:27:11.173 -0400,10222.8066085,0.66595458984375,0.2864837646484375,-0.3733673095703125,1,0.97
2020-05-16 12:27:11.243 -0400,10222.8764525,0.44921875,0.348846435546875,-0.1998748779296875,1,0.97
2020-05-16 12:27:11.313 -0400,10222.9462935,0.5884552001953125,0.3902740478515625,-0.099945068359375,1,0.97
2020-05-16 12:27:11.383 -0400,10223.0161355,1.124496459960938,0.6207275390625,-0.3615264892578125,1,0.97
2020-05-16 12:27:11.453 -0400,10223.0859785,1.04559326171875,0.5655975341796875,-0.4995880126953125,1,0.97
2020-05-16 12:27:11.522 -0400,10223.1558215,1.570587158203125,0.52777099609375,-0.5050201416015625,1,0.97
2020-05-16 12:27:11.592 -0400,10223.2256665,1.403335571289062,0.3510894775390625,-0.473876953125,1,0.97
2020-05-16 12:27:11.662 -0400,10223.2955075,1.112899780273438,0.16192626953125,-0.26690673828125,1,0.97
2020-05-16 12:27:11.732 -0400,10223.3653545,1.001434326171875,0.2852935791015625,-0.1853179931640625,1,0.97
2020-05-16 12:27:11.802 -0400,10223.4351995,0.822723388671875,0.2480316162109375,-0.0559234619140625,1,0.97
2020-05-16 12:27:11.872 -0400,10223.5050425,0.8470458984375,0.31842041015625,-0.0002899169921875,1,0.97
2020-05-16 12:27:11.941 -0400,10223.57489125,0.9205322265625,0.3094329833984375,0.0053558349609375,1,0.97
2020-05-16 12:27:12.011 -0400,10223.64473825,0.896270751953125,0.3306732177734375,-0.0396728515625,1,0.97
2020-05-16 12:27:12.081 -0400,10223.71458425,1.30096435546875,0.4052276611328125,-0.1024169921875,1,0.97
2020-05-16 12:27:12.151 -0400,10223.78442925,1.640457153320312,0.372894287109375,-0.1439971923828125,1,0.97
2020-05-16 12:27:12.229 -0400,10223.85427425,1.310394287109375,0.3909149169921875,-0.4436798095703125,1,0.97
2020-05-16 12:27:12.291 -0400,10223.92411925,0.97705078125,0.1652984619140625,-0.210906982421875,1,0.97
2020-05-16 12:27:12.361 -0400,10223.99396725,0.75726318359375,0.33172607421875,-0.34478759765625,1,0.97
2020-05-16 12:27:12.430 -0400,10224.06381525,0.571990966796875,0.432769775390625,-0.3244781494140625,1,0.97
2020-05-16 12:27:12.500 -0400,10224.13366825,0.4517059326171875,0.420989990234375,-0.339752197265625,1,0.97
2020-05-16 12:27:12.570 -0400,10224.20351425,0.6506500244140625,0.441925048828125,-0.4897613525390625,1,0.97
2020-05-16 12:27:12.640 -0400,10224.27336225,0.7883453369140625,0.3498687744140625,-0.486328125,1,0.97
2020-05-16 12:27:12.710 -0400,10224.34320825,1.154312133789062,0.4132537841796875,-0.5087890625,1,0.97
2020-05-16 12:27:12.780 -0400,10224.41305425,1.3463134765625,0.5473175048828125,-0.4797210693359375,1,0.97
2020-05-16 12:27:12.849 -0400,10224.48290525,1.499282836914062,0.50799560546875,-0.34246826171875,1,0.97
2020-05-16 12:27:12.920 -0400,10224.55275525,1.660919189453125,0.1645965576171875,-0.137725830078125,1,0.97
2020-05-16 12:27:12.989 -0400,10224.62260516667,1.34088134765625,0.291290283203125,0.0042724609375,1,0.97
2020-05-16 12:27:13.059 -0400,10224.69245516667,0.896026611328125,0.432464599609375,-0.0265045166015625,1,0.97
2020-05-16 12:27:13.129 -0400,10224.76230516667,0.67730712890625,0.3439788818359375,0.077484130859375,1,0.97
2020-05-16 12:27:13.199 -0400,10224.83215216667,0.630035400390625,0.229278564453125,0.0774383544921875,1,0.97
2020-05-16 12:27:13.269 -0400,10224.90199916667,0.9227142333984375,0.2743072509765625,-0.0616455078125,1,0.97
2020-05-16 12:27:13.338 -0400,10224.97184116667,1.137893676757812,0.185211181640625,-0.0665740966796875,1,0.97
2020-05-16 12:27:13.409 -0400,10225.04168416667,1.604721069335938,0.3928070068359375,-0.3091278076171875,1,0.97
2020-05-16 12:27:13.478 -0400,10225.11152616667,1.605667114257812,0.519989013671875,-0.64471435546875,1,0.97
2020-05-16 12:27:13.548 -0400,10225.18136516667,1.356582641601562,0.1600341796875,-0.4189605712890625,1,0.97
2020-05-16 12:27:13.618 -0400,10225.25120316667,0.8490447998046875,0.0456085205078125,-0.37811279296875,1,0.97
2020-05-16 12:27:13.688 -0400,10225.32104116667,0.443817138671875,0.3935394287109375,-0.1540679931640625,1,0.97
2020-05-16 12:27:13.757 -0400,10225.39088316667,0.2660980224609375,0.599639892578125,-0.335479736328125,1,0.97
2020-05-16 12:27:13.827 -0400,10225.46072116667,0.7008514404296875,0.5299530029296875,-0.511932373046875,1,0.97
2020-05-16 12:27:13.897 -0400,10225.53056116667,1.325286865234375,0.3126220703125,-0.59503173828125,1,0.97
2020-05-16 12:27:13.967 -0400,10225.600406,1.887176513671875,-0.0851287841796875,-0.3672332763671875,1,0.97
2020-05-16 12:27:14.037 -0400,10225.67025,1.188018798828125,0.1743011474609375,-0.3932952880859375,1,0.97
2020-05-16 12:27:14.107 -0400,10225.740089,0.8326416015625,0.5022430419921875,-0.3896026611328125,1,0.97
2020-05-16 12:27:14.176 -0400,10225.809927,0.8280487060546875,0.3108978271484375,-0.1338348388671875,1,0.97
2020-05-16 12:27:14.246 -0400,10225.879769,0.442108154296875,0.1187744140625,-0.0803070068359375,1,0.97
2020-05-16 12:27:14.316 -0400,10225.949614,0.3795318603515625,0.2682342529296875,-0.073638916015625,1,0.97
2020-05-16 12:27:14.386 -0400,10226.019459,0.867462158203125,0.4326171875,-0.2109222412109375,1,0.97
2020-05-16 12:27:14.456 -0400,10226.089304,1.499496459960938,0.3532257080078125,-0.308837890625,1,0.97
2020-05-16 12:27:14.526 -0400,10226.159152,1.474777221679688,0.012298583984375,-0.2994384765625,1,0.97
2020-05-16 12:27:14.596 -0400,10226.228997,1.36590576171875,0.197967529296875,-0.342864990234375,1,0.97
2020-05-16 12:27:14.665 -0400,10226.29884,0.990509033203125,0.3910064697265625,-0.537841796875,1,0.97
2020-05-16 12:27:14.735 -0400,10226.368684,0.61212158203125,0.058807373046875,-0.1242828369140625,1,0.97
2020-05-16 12:27:14.805 -0400,10226.43853,0.5953216552734375,0.1328125,-0.02032470703125,1,0.97
2020-05-16 12:27:14.875 -0400,10226.508377,0.572540283203125,0.4801483154296875,-0.1959991455078125,1,0.97
2020-05-16 12:27:14.945 -0400,10226.578227,0.440521240234375,0.395233154296875,-0.2680511474609375,1,0.97
2020-05-16 12:27:15.015 -0400,10226.648074,0.534881591796875,0.3792572021484375,-0.5039520263671875,1,0.97
2020-05-16 12:27:15.084 -0400,10226.717918,0.73126220703125,0.3829498291015625,-0.68011474609375,1,0.97
2020-05-16 12:27:15.154 -0400,10226.78776,1.079269409179688,0.4397125244140625,-0.7140960693359375,1,0.97
2020-05-16 12:27:15.224 -0400,10226.857607,1.6683349609375,0.44073486328125,-0.8362579345703125,1,0.97
2020-05-16 12:27:15.294 -0400,10226.927451,1.027618408203125,0.29241943359375,-0.51593017578125,1,0.97
2020-05-16 12:27:15.364 -0400,10226.997295,1.239166259765625,0.321044921875,-0.13836669921875,1,0.97
2020-05-16 12:27:15.434 -0400,10227.06714,0.943115234375,0.4025726318359375,-0.05352783203125,1,0.97
2020-05-16 12:27:15.504 -0400,10227.136981,0.86572265625,0.401458740234375,-0.0562744140625,1,0.97
2020-05-16 12:27:15.575 -0400,10227.206822,0.78948974609375,0.4337615966796875,0.0807952880859375,1,0.97
2020-05-16 12:27:15.643 -0400,10227.276665,1.066070556640625,0.405059814453125,0.020538330078125,1,0.97
2020-05-16 12:27:15.713 -0400,10227.346514,1.325958251953125,0.3532257080078125,-0.1081695556640625,1,0.97
2020-05-16 12:27:15.783 -0400,10227.416361,1.308761596679688,0.1530303955078125,-0.1499786376953125,1,0.97
2020-05-16 12:27:15.853 -0400,10227.4862,1.069610595703125,0.0945587158203125,-0.451416015625,1,0.97
2020-05-16 12:27:15.923 -0400,10227.556038,1.032989501953125,0.0357513427734375,-0.521392822265625,1,0.97
2020-05-16 12:27:15.992 -0400,10227.625878375,1.05535888671875,0.1165008544921875,-0.301361083984375,1,0.97
2020-05-16 12:27:16.062 -0400,10227.695715375,0.812042236328125,0.3529052734375,-0.45654296875,1,0.97
2020-05-16 12:27:16.132 -0400,10227.765557375,0.522369384765625,0.4162445068359375,-0.2982025146484375,1,0.97
2020-05-16 12:27:16.202 -0400,10227.835398375,0.51776123046875,0.4384613037109375,-0.331695556640625,1,0.97
2020-05-16 12:27:16.272 -0400,10227.905240375,0.754974365234375,0.4015960693359375,-0.43878173828125,1,0.97
2020-05-16 12:27:16.342 -0400,10227.975081375,1.354934692382812,0.3168792724609375,-0.3835296630859375,1,0.97
2020-05-16 12:27:16.412 -0400,10228.044923375,1.623184204101562,0.41943359375,-0.4669952392578125,1,0.97
2020-05-16 12:27:16.488 -0400,10228.114765375,1.041091918945312,0.52349853515625,-0.444732666015625,1,0.97
2020-05-16 12:27:16.551 -0400,10228.184608375,1.310379028320312,0.43707275390625,-0.3057708740234375,1,0.97
2020-05-16 12:27:16.621 -0400,10228.254453375,1.009490966796875,0.2711181640625,-0.1338653564453125,1,0.97
2020-05-16 12:27:16.691 -0400,10228.324297375,0.66302490234375,0.2412567138671875,-0.047943115234375,1,0.97
2020-05-16 12:27:16.761 -0400,10228.394142375,0.4788665771484375,0.2832489013671875,0.0216522216796875,1,0.97
2020-05-16 12:27:16.831 -0400,10228.463984375,0.6283721923828125,0.3408355712890625,0.0155487060546875,1,0.97
2020-05-16 12:27:16.900 -0400,10228.533826375,0.951873779296875,0.37646484375,-0.06671142578125,1,0.97
2020-05-16 12:27:16.970 -0400,10228.603668625,1.415252685546875,0.36480712890625,-0.179534912109375,1,0.97
2020-05-16 12:27:17.040 -0400,10228.673511625,1.465087890625,0.2075958251953125,-0.160980224609375,1,0.97
2020-05-16 12:27:17.110 -0400,10228.743357625,1.224700927734375,0.4131622314453125,-0.5473785400390625,1,0.97
2020-05-16 12:27:17.180 -0400,10228.813197625,1.019607543945312,0.24200439453125,-0.3357086181640625,1,0.97
2020-05-16 12:27:17.250 -0400,10228.883038625,0.857635498046875,0.19140625,-0.3563079833984375,1,0.97
2020-05-16 12:27:17.320 -0400,10228.952880625,0.483184814453125,0.7205352783203125,-0.3548583984375,1,0.97
2020-05-16 12:27:17.389 -0400,10229.022719625,0.4415130615234375,0.408782958984375,-0.21038818359375,1,0.97
2020-05-16 12:27:17.459 -0400,10229.092560625,0.6408843994140625,0.3637542724609375,-0.265350341796875,1,0.97
2020-05-16 12:27:17.529 -0400,10229.162404625,1.074798583984375,0.4524993896484375,-0.3631439208984375,1,0.97
2020-05-16 12:27:17.599 -0400,10229.232247625,1.387466430664062,0.3199920654296875,-0.311798095703125,1,0.97
2020-05-16 12:27:17.669 -0400,10229.302088625,1.456451416015625,0.4391021728515625,-0.3691864013671875,1,0.97
2020-05-16 12:27:17.739 -0400,10229.371929625,1.054428100585938,0.5330963134765625,-0.2867584228515625,1,0.97
2020-05-16 12:27:17.809 -0400,10229.441772625,1.229873657226562,0.33172607421875,-0.0963287353515625,1,0.97
2020-05-16 12:27:17.878 -0400,10229.511613625,0.96136474609375,0.276763916015625,-0.0293121337890625,1,0.97
2020-05-16 12:27:17.948 -0400,10229.5814585,0.6745758056640625,0.328277587890625,0.009857177734375,1,0.97
2020-05-16 12:27:18.018 -0400,10229.6513045,0.6875,0.36614990234375,0.02105712890625,1,0.97
2020-05-16 12:27:18.088 -0400,10229.7211455,0.9304351806640625,0.297271728515625,0.0342864990234375,1,0.97
2020-05-16 12:27:18.158 -0400,10229.7909875,1.256576538085938,0.3417205810546875,-0.0928497314453125,1,0.97
2020-05-16 12:27:18.230 -0400,10229.8608275,1.288619995117188,0.2890472412109375,-0.1000518798828125,1,0.97
2020-05-16 12:27:18.297 -0400,10229.9306695,1.224716186523438,0.3452606201171875,-0.2904815673828125,1,0.97
2020-05-16 12:27:18.367 -0400,10230.0005135,0.9383087158203125,0.3271331787109375,-0.3582611083984375,1,0.97
2020-05-16 12:27:18.437 -0400,10230.0703585,0.9248046875,0.1824188232421875,-0.3263702392578125,1,0.97
2020-05-16 12:27:18.507 -0400,10230.1401995,0.744232177734375,0.110321044921875,-0.3462982177734375,1,0.97
2020-05-16 12:27:18.577 -0400,10230.2100415,0.5435791015625,0.2528076171875,-0.313140869140625,1,0.97
2020-05-16 12:27:18.646 -0400,10230.2798855,0.403778076171875,0.34564208984375,-0.2906951904296875,1,0.97
2020-05-16 12:27:18.716 -0400,10230.3497245,0.6636962890625,0.346282958984375,-0.3057861328125,1,0.97
2020-05-16 12:27:18.786 -0400,10230.4195615,1.0101318359375,0.305450439453125,-0.3478240966796875,1,0.97
2020-05-16 12:27:18.856 -0400,10230.4894015,1.210556030273438,0.2445526123046875,-0.299560546875,1,0.97
2020-05-16 12:27:18.926 -0400,10230.5592385,1.495391845703125,0.447265625,-0.342987060546875,1,0.97
2020-05-16 12:27:18.996 -0400,10230.62907604167,1.021926879882812,0.4090728759765625,-0.258270263671875,1,0.97
2020-05-16 12:27:19.065 -0400,10230.69891704167,0.939910888671875,0.3187713623046875,-0.117218017578125,1,0.97
2020-05-16 12:27:19.135 -0400,10230.76875804167,0.9121551513671875,0.3328094482421875,-0.02655029296875,1,0.97
2020-05-16 12:27:19.205 -0400,10230.83860004167,0.7486724853515625,0.3892364501953125,-0.012115478515625,1,0.97
2020-05-16 12:27:19.275 -0400,10230.90844804167,0.709625244140625,0.3917694091796875,0.000885009765625,1,0.97
2020-05-16 12:27:19.345 -0400,10230.97829304167,0.8247528076171875,0.3553314208984375,0.01837158203125,1,0.97
2020-05-16 12:27:19.415 -0400,10231.04814104167,0.8490753173828125,0.30804443359375,-0.0403594970703125,1,0.97
2020-05-16 12:27:19.484 -0400,10231.11798404167,1.04345703125,0.3433990478515625,-0.156829833984375,1,0.97
2020-05-16 12:27:19.554 -0400,10231.18783004167,1.290985107421875,0.30322265625,-0.24859619140625,1,0.97
2020-05-16 12:27:19.624 -0400,10231.25767504167,1.490676879882812,0.249755859375,-0.2089385986328125,1,0.97
2020-05-16 12:27:19.694 -0400,10231.32752404167,1.24615478515625,0.365020751953125,-0.434661865234375,1,0.97
2020-05-16 12:27:19.764 -0400,10231.39737804167,0.9190826416015625,0.0362701416015625,-0.260162353515625,1,0.97
2020-05-16 12:27:19.834 -0400,10231.46723204167,0.6295166015625,0.144287109375,-0.264007568359375,1,0.97
2020-05-16 12:27:19.904 -0400,10231.53708304167,0.5119171142578125,0.27044677734375,-0.182891845703125,1,0.97
2020-05-16 12:27:19.974 -0400,10231.60693391667,0.696624755859375,0.3205413818359375,-0.154541015625,1,0.97
2020-05-16 12:27:20.043 -0400,10231.67678591667,0.817230224609375,0.362030029296875,-0.1757049560546875,1,0.97
2020-05-16 12:27:20.113 -0400,10231.74663291667,0.953887939453125,0.4241485595703125,-0.298065185546875,1,0.97
2020-05-16 12:27:20.183 -0400,10231.81647891667,1.320449829101562,0.396484375,-0.259429931640625,1,0.97
2020-05-16 12:27:20.253 -0400,10231.88632491667,1.35797119140625,0.4847564697265625,-0.3863067626953125,1,0.97
2020-05-16 12:27:20.323 -0400,10231.95617191667,1.320709228515625,0.2245330810546875,-0.1650543212890625,1,0.97
2020-05-16 12:27:20.393 -0400,10232.02601291667,1.239486694335938,0.2284393310546875,-0.1637420654296875,1,0.97
2020-05-16 12:27:20.462 -0400,10232.09585691667,0.7711334228515625,0.2897796630859375,-0.129638671875,1,0.97
2020-05-16 12:27:20.532 -0400,10232.16570191667,0.525299072265625,0.2666168212890625,-0.069915771484375,1,0.97
2020-05-16 12:27:20.602 -0400,10232.23554691667,0.5583648681640625,0.197113037109375,-0.0341949462890625,1,0.97
2020-05-16 12:27:20.672 -0400,10232.30539191667,0.81494140625,0.247039794921875,-0.024871826171875,1,0.97
2020-05-16 12:27:20.742 -0400,10232.37523691667,1.272491455078125,0.384368896484375,-0.088409423828125,1,0.97
2020-05-16 12:27:20.812 -0400,10232.44507991667,1.745758056640625,0.4169158935546875,-0.0552520751953125,1,0.97
2020-05-16 12:27:20.881 -0400,10232.51492491667,1.363449096679688,0.532135009765625,-0.284423828125,1,0.97
2020-05-16 12:27:20.951 -0400,10232.58477229167,1.065994262695312,0.26654052734375,-0.2110443115234375,1,0.97
2020-05-16 12:27:21.021 -0400,10232.65461629167,0.7403411865234375,0.2642669677734375,-0.1664276123046875,1,0.97
2020-05-16 12:27:21.091 -0400,10232.72446429167,0.4910888671875,0.345733642578125,-0.1919403076171875,1,0.97
2020-05-16 12:27:21.161 -0400,10232.79431029167,0.37158203125,0.3589019775390625,-0.1494293212890625,1,0.97
2020-05-16 12:27:21.231 -0400,10232.86415829167,0.4697723388671875,0.407745361328125,-0.223052978515625,1,0.97
2020-05-16 12:27:21.301 -0400,10232.93400629167,0.9339447021484375,0.4300994873046875,-0.2560882568359375,1,0.97
2020-05-16 12:27:21.371 -0400,10233.00385329167,1.196701049804688,0.4050750732421875,-0.34991455078125,1,0.97
2020-05-16 12:27:21.440 -0400,10233.07370129167,1.866744995117188,0.6158294677734375,-0.3935546875,1,0.97
2020-05-16 12:27:21.510 -0400,10233.14355229167,1.228103637695312,0.316864013671875,-0.2173919677734375,1,0.97
2020-05-16 12:27:21.580 -0400,10233.21340329167,1.139251708984375,0.3324127197265625,-0.1318511962890625,1,0.97
2020-05-16 12:27:21.650 -0400,10233.28325329167,0.9809417724609375,0.389892578125,-0.088897705078125,1,0.97
2020-05-16 12:27:21.720 -0400,10233.35310529167,0.665496826171875,0.252685546875,-0.0179595947265625,1,0.97
2020-05-16 12:27:21.790 -0400,10233.42295529167,0.5593719482421875,0.28253173828125,-0.03814697265625,1,0.97
2020-05-16 12:27:21.860 -0400,10233.49280429167,0.6775665283203125,0.2024688720703125,0.009307861328125,1,0.97
2020-05-16 12:27:21.929 -0400,10233.56264929167,1.33154296875,0.3599700927734375,-0.1158905029296875,1,0.97
2020-05-16 12:27:21.999 -0400,10233.632497375,1.614761352539062,0.3031158447265625,0.0261993408203125,1,0.97
2020-05-16 12:27:22.069 -0400,10233.702341375,2.048675537109375,0.6626129150390625,-0.1143951416015625,1,0.97
2020-05-16 12:27:22.147 -0400,10233.772186375,1.48980712890625,0.728912353515625,-0.184600830078125,1,0.97
2020-05-16 12:27:22.209 -0400,10233.842026375,1.224349975585938,0.201690673828125,-0.131378173828125,1,0.97
2020-05-16 12:27:22.279 -0400,10233.911868375,0.8460845947265625,0.189483642578125,-0.0943145751953125,1,0.97
2020-05-16 12:27:22.348 -0400,10233.981713375,0.0958251953125,0.533111572265625,0.232025146484375,1,0.97
2020-05-16 12:27:22.418 -0400,10234.051556375,0.004974365234375,0.52935791015625,0.14764404296875,1,0.97
2020-05-16 12:27:22.488 -0400,10234.121398375,0.61468505859375,0.6686248779296875,-0.4269866943359375,1,0.97
2020-05-16 12:27:22.558 -0400,10234.191243375,1.632965087890625,0.313507080078125,-0.463958740234375,1,0.97
2020-05-16 12:27:22.628 -0400,10234.261088375,1.68695068359375,0.235748291015625,-0.516845703125,1,0.97
2020-05-16 12:27:22.698 -0400,10234.330932375,1.352615356445312,0.4686126708984375,-0.511932373046875,1,0.97
2020-05-16 12:27:22.767 -0400,10234.400782375,1.323959350585938,0.343719482421875,-0.1090240478515625,1,0.97
2020-05-16 12:27:22.837 -0400,10234.470626375,1.139678955078125,0.2576141357421875,-0.032623291015625,1,0.97
2020-05-16 12:27:22.907 -0400,10234.540474375,0.729705810546875,0.3244781494140625,-0.0076751708984375,1,0.97
2020-05-16 12:27:22.977 -0400,10234.610317625,0.588165283203125,0.35235595703125,0.1041259765625,1,0.97
2020-05-16 12:27:23.047 -0400,10234.680160625,0.6982879638671875,0.3349151611328125,0.0560150146484375,1,0.97
2020-05-16 12:27:23.117 -0400,10234.750002625,1.148193359375,0.3680419921875,-0.0476226806640625,1,0.97
2020-05-16 12:27:23.186 -0400,10234.819847625,1.419723510742188,0.2058563232421875,-0.0561065673828125,1,0.97
2020-05-16 12:27:23.256 -0400,10234.889695625,1.468994140625,0.170867919921875,-0.07293701171875,1,0.97
2020-05-16 12:27:23.326 -0400,10234.959543625,1.262527465820312,0.1980743408203125,-0.1514892578125,1,0.97
2020-05-16 12:27:23.396 -0400,10235.029391625,1.112945556640625,0.219482421875,-0.148284912109375,1,0.97
2020-05-16 12:27:23.466 -0400,10235.099237625,0.8459014892578125,0.332275390625,-0.3019866943359375,1,0.97
2020-05-16 12:27:23.536 -0400,10235.169082625,0.5952301025390625,0.4039154052734375,-0.28570556640625,1,0.97
2020-05-16 12:27:23.605 -0400,10235.238926625,0.4517059326171875,-0.0762481689453125,-0.1915130615234375,1,0.97
2020-05-16 12:27:23.675 -0400,10235.308770625,0.77630615234375,0.272979736328125,-0.263427734375,1,0.97
2020-05-16 12:27:23.745 -0400,10235.378613625,1.209457397460938,0.6383514404296875,-0.1790924072265625,1,0.97
2020-05-16 12:27:23.815 -0400,10235.448451625,1.322509765625,1.098159790039062,-0.3816986083984375,1,0.97
2020-05-16 12:27:23.885 -0400,10235.518290625,1.710159301757812,0.61871337890625,-0.3382720947265625,1,0.97
2020-05-16 12:27:23.955 -0400,10235.58813175,1.602783203125,0.2183685302734375,-0.07098388671875,1,0.97
2020-05-16 12:27:24.025 -0400,10235.65797275,1.343154907226562,0.2467498779296875,-0.08636474609375,1,0.97
2020-05-16 12:27:24.095 -0400,10235.72781875,1.04327392578125,0.4160308837890625,0.0493927001953125,1,0.97
2020-05-16 12:27:24.164 -0400,10235.79766175,0.7781982421875,0.31365966796875,0.16131591796875,1,0.97
2020-05-16 12:27:24.234 -0400,10235.86750375,0.8783111572265625,0.341064453125,0.1082611083984375,1,0.97
2020-05-16 12:27:24.304 -0400,10235.93734575,1.5205078125,0.4611663818359375,0.01239013671875,1,0.97
2020-05-16 12:27:24.374 -0400,10236.00718875,1.5755615234375,0.28369140625,-0.0685882568359375,1,0.97
2020-05-16 12:27:24.444 -0400,10236.07703475,1.27886962890625,0.113433837890625,-0.0889892578125,1,0.97
2020-05-16 12:27:24.513 -0400,10236.14687875,1.10302734375,0.3188323974609375,-0.237396240234375,1,0.97
2020-05-16 12:27:24.583 -0400,10236.21672075,1.113723754882812,0.2755584716796875,-0.240753173828125,1,0.97
2020-05-16 12:27:24.653 -0400,10236.28656275,0.9137115478515625,0.2654571533203125,-0.2321014404296875,1,0.97
2020-05-16 12:27:24.723 -0400,10236.35640975,0.8470916748046875,0.4092864990234375,-0.2797088623046875,1,0.97
2020-05-16 12:27:24.793 -0400,10236.42625575,0.7652587890625,0.5338897705078125,-0.2881317138671875,1,0.97
2020-05-16 12:27:24.863 -0400,10236.49610375,0.4555206298828125,0.504669189453125,-0.27056884765625,1,0.97
2020-05-16 12:27:24.933 -0400,10236.56595175,0.796600341796875,0.519805908203125,-0.30743408203125,1,0.97
2020-05-16 12:27:25.002 -0400,10236.63579925,1.2181396484375,0.5207977294921875,-0.3070831298828125,1,0.97
2020-05-16 12:27:25.072 -0400,10236.70564725,1.425613403320312,0.584075927734375,-0.4017791748046875,1,0.97
2020-05-16 12:27:25.142 -0400,10236.77549325,1.751052856445312,0.6144256591796875,-0.6328887939453125,1,0.97
2020-05-16 12:27:25.219 -0400,10236.84533625,1.694183349609375,0.2510223388671875,-0.332061767578125,1,0.97
2020-05-16 12:27:25.282 -0400,10236.91518525,1.372879028320312,0.1456756591796875,-0.2085418701171875,1,0.97
2020-05-16 12:27:25.352 -0400,10236.98502925,0.671173095703125,0.2409820556640625,-0.1264190673828125,1,0.97
2020-05-16 12:27:25.421 -0400,10237.05487825,0.5957183837890625,0.301483154296875,-0.002227783203125,1,0.97
2020-05-16 12:27:25.491 -0400,10237.12472825,0.5850372314453125,0.2390899658203125,0.03564453125,1,0.97
2020-05-16 12:27:25.561 -0400,10237.19457225,0.6612091064453125,0.2155609130859375,0.0269317626953125,1,0.97
2020-05-16 12:27:25.631 -0400,10237.26441725,1.029632568359375,0.2779998779296875,0.0159912109375,1,0.97
2020-05-16 12:27:25.701 -0400,10237.33426425,1.38446044921875,0.4021453857421875,-0.0707550048828125,1,0.97
2020-05-16 12:27:25.771 -0400,10237.40410825,1.924072265625,0.56292724609375,-0.2446746826171875,1,0.97
2020-05-16 12:27:25.840 -0400,10237.47395325,1.505752563476562,0.6820526123046875,-0.5883026123046875,1,0.97
2020-05-16 12:27:25.910 -0400,10237.54379825,1.14935302734375,0.2035064697265625,-0.357391357421875,1,0.97
2020-05-16 12:27:25.980 -0400,10237.613640125,0.8643951416015625,0.203216552734375,-0.253326416015625,1,0.97
2020-05-16 12:27:26.050 -0400,10237.683483125,0.55950927734375,0.6056976318359375,-0.1616973876953125,1,0.97
2020-05-16 12:27:26.120 -0400,10237.753322125,0.4772796630859375,0.615142822265625,-0.145782470703125,1,0.97
2020-05-16 12:27:26.190 -0400,10237.823166125,0.684814453125,0.5317840576171875,-0.236297607421875,1,0.97
2020-05-16 12:27:26.260 -0400,10237.893011125,1.003646850585938,0.5774688720703125,-0.4021453857421875,1,0.97
2020-05-16 12:27:26.329 -0400,10237.962858125,1.5621337890625,0.460357666015625,-0.527130126953125,1,0.97
2020-05-16 12:27:26.399 -0400,10238.032704125,1.541961669921875,0.150390625,-0.4196319580078125,1,0.97
2020-05-16 12:27:26.469 -0400,10238.102550125,1.488235473632812,-0.0452728271484375,-0.355865478515625,1,0.97
2020-05-16 12:27:26.539 -0400,10238.172397125,1.19940185546875,0.2603759765625,-0.2346343994140625,1,0.97
2020-05-16 12:27:26.609 -0400,10238.242246125,0.758056640625,0.287322998046875,-0.0921630859375,1,0.97
2020-05-16 12:27:26.679 -0400,10238.312091125,0.4854888916015625,0.2953033447265625,0.0162200927734375,1,0.97
2020-05-16 12:27:26.748 -0400,10238.381934125,0.4038543701171875,0.274505615234375,0.0514678955078125,1,0.97
2020-05-16 12:27:26.819 -0400,10238.451777125,0.4875946044921875,0.2818145751953125,0.0567779541015625,1,0.97
2020-05-16 12:27:26.888 -0400,10238.521622125,0.941375732421875,0.3430023193359375,-0.05169677734375,1,0.97
2020-05-16 12:27:26.958 -0400,10238.591465375,1.7498779296875,0.5080108642578125,-0.370574951171875,1,0.97
2020-05-16 12:27:27.028 -0400,10238.661310375,1.687744140625,0.092864990234375,-0.3213348388671875,1,0.97
2020-05-16 12:27:27.098 -0400,10238.731156375,1.11505126953125,0.3409423828125,-0.815887451171875,1,0.97
2020-05-16 12:27:27.168 -0400,10238.801005375,0.8661346435546875,-0.0487518310546875,-0.428070068359375,1,0.97
2020-05-16 12:27:27.238 -0400,10238.870853375,0.577972412109375,-0.120147705078125,-0.276702880859375,1,0.97
2020-05-16 12:27:27.307 -0400,10238.940704375,0.34796142578125,0.52703857421875,-0.2125701904296875,1,0.97
2020-05-16 12:27:27.377 -0400,10239.010556375,0.3948974609375,0.4498291015625,-0.211822509765625,1,0.97
2020-05-16 12:27:27.447 -0400,10239.080406375,0.7180328369140625,0.4549102783203125,-0.2981719970703125,1,0.97
2020-05-16 12:27:27.517 -0400,10239.150256375,0.86175537109375,0.3940887451171875,-0.306060791015625,1,0.97
2020-05-16 12:27:27.587 -0400,10239.220102375,1.361770629882812,0.5596771240234375,-0.30462646484375,1,0.97
2020-05-16 12:27:27.656 -0400,10239.289954375,1.682647705078125,1.030929565429688,-0.4928741455078125,1,0.97
2020-05-16 12:27:27.726 -0400,10239.359801375,1.147628784179688,0.3514862060546875,-0.11163330078125,1,0.97
2020-05-16 12:27:27.796 -0400,10239.429646375,1.062911987304688,0.2988433837890625,-0.0384979248046875,1,0.97
2020-05-16 12:27:27.866 -0400,10239.499490375,0.901580810546875,0.3173828125,-0.1076202392578125,1,0.97
2020-05-16 12:27:27.936 -0400,10239.569334375,0.988555908203125,0.390838623046875,0.0449676513671875,1,0.97
2020-05-16 12:27:28.006 -0400,10239.63918091667,1.145675659179688,0.362701416015625,0.18994140625,1,0.97
2020-05-16 12:27:28.076 -0400,10239.70902691667,1.117599487304688,0.414886474609375,0.0622711181640625,1,0.97
2020-05-16 12:27:28.145 -0400,10239.77887491667,1.1763916015625,0.4604034423828125,-0.099639892578125,1,0.97
2020-05-16 12:27:28.226 -0400,10239.84872191667,1.275436401367188,0.33660888671875,-0.0998382568359375,1,0.97
2020-05-16 12:27:28.285 -0400,10239.91856991667,1.234771728515625,0.147552490234375,-0.161834716796875,1,0.97
2020-05-16 12:27:28.355 -0400,10239.98841591667,1.254959106445312,0.1161041259765625,-0.4336700439453125,1,0.97
2020-05-16 12:27:28.425 -0400,10240.05826091667,1.071090698242188,0.118377685546875,-0.26446533203125,1,0.97
2020-05-16 12:27:28.495 -0400,10240.12810391667,0.7841796875,0.3361053466796875,-0.2324981689453125,1,0.97
2020-05-16 12:27:28.564 -0400,10240.19794891667,0.602325439453125,0.6051177978515625,-0.38116455078125,1,0.97
2020-05-16 12:27:28.634 -0400,10240.26779091667,0.60797119140625,0.6176300048828125,-0.3653411865234375,1,0.97
2020-05-16 12:27:28.704 -0400,10240.33763691667,1.039093017578125,0.51898193359375,-0.3166351318359375,1,0.97
2020-05-16 12:27:28.774 -0400,10240.40748491667,1.059677124023438,0.40533447265625,-0.30181884765625,1,0.97
2020-05-16 12:27:28.844 -0400,10240.47733191667,1.677276611328125,0.8115234375,-0.66326904296875,1,0.97
2020-05-16 12:27:28.914 -0400,10240.54717991667,1.688140869140625,0.365142822265625,-0.1260528564453125,1,0.97
2020-05-16 12:27:28.984 -0400,10240.617028125,1.645706176757812,0.2340850830078125,-0.1651458740234375,1,0.97
2020-05-16 12:27:29.053 -0400,10240.686877125,1.1431884765625,0.421875,0.0060577392578125,1,0.97
2020-05-16 12:27:29.123 -0400,10240.756731125,0.7199859619140625,0.30694580078125,0.080413818359375,1,0.97
2020-05-16 12:27:29.193 -0400,10240.826581125,0.7060546875,0.2958221435546875,0.117034912109375,1,0.97
2020-05-16 12:27:29.263 -0400,10240.896432125,0.8780059814453125,0.250640869140625,0.0484161376953125,1,0.97
2020-05-16 12:27:29.333 -0400,10240.966279125,1.09918212890625,0.2866058349609375,-0.0631866455078125,1,0.97
2020-05-16 12:27:29.403 -0400,10241.036128125,1.362869262695312,0.227203369140625,-0.047607421875,1,0.97
2020-05-16 12:27:29.473 -0400,10241.105976125,1.637115478515625,0.37518310546875,-0.30902099609375,1,0.97
2020-05-16 12:27:29.542 -0400,10241.175819125,1.385177612304688,0.17547607421875,-0.504608154296875,1,0.97
2020-05-16 12:27:29.612 -0400,10241.245661125,1.02239990234375,0.153533935546875,-0.2955474853515625,1,0.97
2020-05-16 12:27:29.682 -0400,10241.315500125,0.814910888671875,0.55291748046875,-0.1839447021484375,1,0.97
2020-05-16 12:27:29.752 -0400,10241.385347125,0.6410369873046875,0.713226318359375,0.009979248046875,1,0.97
2020-05-16 12:27:29.822 -0400,10241.455194125,0.5601043701171875,0.745452880859375,-0.1183319091796875,1,0.97
2020-05-16 12:27:29.892 -0400,10241.525039125,0.5035858154296875,0.8822784423828125,-0.6945343017578125,1,0.97
2020-05-16 12:27:29.961 -0400,10241.59488754167,1.593582153320312,0.88409423828125,-0.79058837890625,1,0.97
2020-05-16 12:27:30.031 -0400,10241.66473854167,1.335418701171875,0.305023193359375,-0.7216796875,1,0.97
2020-05-16 12:27:30.101 -0400,10241.73458954167,1.811233520507812,0.6914520263671875,-0.6143035888671875,1,0.97
2020-05-16 12:27:30.171 -0400,10241.80444054167,1.537109375,0.2877349853515625,-0.1713104248046875,1,0.97
2020-05-16 12:27:30.241 -0400,10241.87429354167,1.4525146484375,0.4826202392578125,-0.03082275390625,1,0.97
2020-05-16 12:27:30.311 -0400,10241.94414954167,1.227691650390625,0.4040374755859375,0.204376220703125,1,0.97
2020-05-16 12:27:30.381 -0400,10242.01399354167,1.078140258789062,0.4161376953125,0.2095794677734375,1,0.97
2020-05-16 12:27:30.450 -0400,10242.08383654167,1.008712768554688,0.3841094970703125,0.1954193115234375,1,0.97
2020-05-16 12:27:30.520 -0400,10242.15368054167,0.931884765625,0.3589019775390625,0.058135986328125,1,0.97
2020-05-16 12:27:30.590 -0400,10242.22352254167,1.028640747070312,0.4189453125,-0.347930908203125,1,0.97
2020-05-16 12:27:30.660 -0400,10242.29336854167,1.062606811523438,-0.3021240234375,-0.128326416015625,1,0.97
2020-05-16 12:27:30.730 -0400,10242.36321054167,1.475494384765625,0.0193328857421875,-0.4848480224609375,1,0.97
2020-05-16 12:27:30.800 -0400,10242.43305354167,1.273330688476562,0.211456298828125,-0.574249267578125,1,0.97
2020-05-16 12:27:30.870 -0400,10242.50289754167,1.057464599609375,0.08441162109375,-0.3528594970703125,1,0.97
2020-05-16 12:27:30.939 -0400,10242.57274154167,1.00555419921875,0.2171173095703125,-0.1951751708984375,1,0.97
2020-05-16 12:27:31.009 -0400,10242.64258666667,0.8579559326171875,0.78131103515625,-0.5241851806640625,1,0.97
2020-05-16 12:27:31.079 -0400,10242.71243366667,0.5274200439453125,0.6654815673828125,-0.4951019287109375,1,0.97
2020-05-16 12:27:31.149 -0400,10242.78228366667,0.6878662109375,0.4216156005859375,-0.4137115478515625,1,0.97
2020-05-16 12:27:31.219 -0400,10242.85213066667,1.051422119140625,0.351806640625,-0.4899444580078125,1,0.97
2020-05-16 12:27:31.288 -0400,10242.92197966667,1.103652954101562,0.26544189453125,-0.326690673828125,1,0.97
2020-05-16 12:27:31.358 -0400,10242.99182466667,2.027786254882812,0.6105194091796875,-0.4867095947265625,1,0.97
2020-05-16 12:27:31.428 -0400,10243.06166666667,1.638137817382812,0.501678466796875,-0.422149658203125,1,0.97
2020-05-16 12:27:31.498 -0400,10243.13151266667,1.398406982421875,0.2918548583984375,-0.196441650390625,1,0.97
2020-05-16 12:27:31.568 -0400,10243.20135966667,0.731719970703125,0.2447967529296875,-0.089263916015625,1,0.97
2020-05-16 12:27:31.638 -0400,10243.27120466667,0.372528076171875,0.2266082763671875,-0.02191162109375,1,0.97
2020-05-16 12:27:31.708 -0400,10243.34104966667,0.29022216796875,0.223297119140625,0.0543212890625,1,0.97
2020-05-16 12:27:31.777 -0400,10243.41089466667,0.7077789306640625,0.298980712890625,0.008148193359375,1,0.97
2020-05-16 12:27:31.847 -0400,10243.48073566667,1.337677001953125,0.3370819091796875,-0.09796142578125,1,0.97
2020-05-16 12:27:31.917 -0400,10243.55057666667,1.6492919921875,0.2455596923828125,-0.1966552734375,1,0.97
2020-05-16 12:27:31.987 -0400,10243.620417625,1.727066040039062,0.451141357421875,-0.2780609130859375,1,0.97
2020-05-16 12:27:32.057 -0400,10243.690260625,1.377899169921875,0.4742889404296875,-0.4124908447265625,1,0.97
2020-05-16 12:27:32.127 -0400,10243.760103625,1.045013427734375,0.1165008544921875,-0.2725677490234375,1,0.97
2020-05-16 12:27:32.197 -0400,10243.829944625,0.517608642578125,0.2360076904296875,-0.28271484375,1,0.97
2020-05-16 12:27:32.267 -0400,10243.899787625,0.304962158203125,0.3554534912109375,-0.1636505126953125,1,0.97
2020-05-16 12:27:32.336 -0400,10243.969628625,0.2383880615234375,0.3556060791015625,-0.05816650390625,1,0.97
2020-05-16 12:27:32.406 -0400,10244.039471625,0.547271728515625,0.573455810546875,-0.3186492919921875,1,0.97
2020-05-16 12:27:32.476 -0400,10244.109315625,1.322357177734375,0.7510528564453125,-0.5742034912109375,1,0.97
2020-05-16 12:27:32.546 -0400,10244.179157625,1.910629272460938,0.111297607421875,-0.3333892822265625,1,0.97
2020-05-16 12:27:32.616 -0400,10244.249001625,1.595123291015625,0.21600341796875,-0.487884521484375,1,0.97
2020-05-16 12:27:32.685 -0400,10244.318843625,1.267440795898438,0.394256591796875,-0.3944549560546875,1,0.97
2020-05-16 12:27:32.755 -0400,10244.388689625,1.538787841796875,0.0934295654296875,-0.1822357177734375,1,0.97
2020-05-16 12:27:32.825 -0400,10244.458536625,0.947723388671875,0.3088531494140625,0.024078369140625,1,0.97
2020-05-16 12:27:32.895 -0400,10244.528381625,0.4228363037109375,0.2980804443359375,-0.037628173828125,1,0.97
2020-05-16 12:27:32.965 -0400,10244.598228,0.265228271484375,0.2282257080078125,0.074310302734375,1,0.97
2020-05-16 12:27:33.035 -0400,10244.668076,0.29547119140625,0.2114410400390625,0.07110595703125,1,0.97
2020-05-16 12:27:33.104 -0400,10244.737925,0.8782501220703125,0.36285400390625,0.002532958984375,1,0.97
2020-05-16 12:27:33.174 -0400,10244.807775,1.456863403320312,0.4242401123046875,-0.169647216796875,1,0.97
2020-05-16 12:27:33.244 -0400,10244.877628,1.657852172851562,0.4132843017578125,-0.5322265625,1,0.97
2020-05-16 12:27:33.314 -0400,10244.94748,1.19873046875,0.3519439697265625,-0.47003173828125,1,0.97
2020-05-16 12:27:33.384 -0400,10245.017333,1.19342041015625,0.0808563232421875,-0.2681732177734375,1,0.97
2020-05-16 12:27:33.454 -0400,10245.087188,0.7564849853515625,0.4385986328125,-0.4399566650390625,1,0.97
2020-05-16 12:27:33.524 -0400,10245.157041,0.333282470703125,0.66943359375,-0.2557525634765625,1,0.97
2020-05-16 12:27:33.593 -0400,10245.226893,0.235260009765625,0.368682861328125,-0.227386474609375,1,0.97
2020-05-16 12:27:33.663 -0400,10245.296742,0.5229644775390625,0.3549346923828125,-0.2500152587890625,1,0.97
2020-05-16 12:27:33.733 -0400,10245.366587,1.23211669921875,0.4609222412109375,-0.342041015625,1,0.97
2020-05-16 12:27:33.803 -0400,10245.436438,1.654327392578125,0.426177978515625,-0.21038818359375,1,0.97
2020-05-16 12:27:33.873 -0400,10245.506288,1.232376098632812,0.5753173828125,-0.3116455078125,1,0.97
2020-05-16 12:27:33.943 -0400,10245.57614,1.160598754882812,0.56842041015625,-0.145416259765625,1,0.97
2020-05-16 12:27:34.013 -0400,10245.64598791667,1.191085815429688,0.3717193603515625,-0.0513763427734375,1,0.97
2020-05-16 12:27:34.082 -0400,10245.71583691667,0.816253662109375,0.2958984375,-0.0086212158203125,1,0.97
2020-05-16 12:27:34.152 -0400,10245.78568491667,0.61676025390625,0.4077606201171875,0.02203369140625,1,0.97
2020-05-16 12:27:34.222 -0400,10245.85553191667,0.6487884521484375,0.3939056396484375,0.07098388671875,1,0.97
2020-05-16 12:27:34.292 -0400,10245.92537791667,0.9206390380859375,0.377532958984375,-0.0337982177734375,1,0.97
2020-05-16 12:27:34.362 -0400,10245.99522791667,1.501373291015625,0.2897796630859375,-0.1055755615234375,1,0.97
2020-05-16 12:27:34.432 -0400,10246.06507891667,1.499862670898438,0.1981658935546875,-0.1007080078125,1,0.97
2020-05-16 12:27:34.502 -0400,10246.13492991667,1.141265869140625,0.3774871826171875,-0.460693359375,1,0.97
2020-05-16 12:27:34.571 -0400,10246.20477791667,0.908355712890625,-0.0833740234375,-0.2725830078125,1,0.97
2020-05-16 12:27:34.641 -0400,10246.27462791667,0.863128662109375,0.1412506103515625,-0.3431854248046875,1,0.97
2020-05-16 12:27:34.711 -0400,10246.34447891667,0.6312255859375,0.30181884765625,-0.3906097412109375,1,0.97
2020-05-16 12:27:34.781 -0400,10246.41432691667,0.4268341064453125,0.15625,-0.151641845703125,1,0.97
2020-05-16 12:27:34.851 -0400,10246.48417791667,0.4530181884765625,0.31561279296875,-0.239410400390625,1,0.97
2020-05-16 12:27:34.921 -0400,10246.55402591667,0.815673828125,0.3222503662109375,-0.195098876953125,1,0.97
2020-05-16 12:27:34.990 -0400,10246.62387379167,1.19000244140625,0.4238739013671875,-0.260833740234375,1,0.97
2020-05-16 12:27:35.060 -0400,10246.69372379167,1.543655395507812,0.5494384765625,-0.380401611328125,1,0.97
2020-05-16 12:27:35.130 -0400,10246.76357179167,1.469619750976562,0.4229888916015625,-0.1594085693359375,1,0.97
2020-05-16 12:27:35.200 -0400,10246.83342379167,1.417373657226562,0.1234588623046875,-0.12420654296875,1,0.97
2020-05-16 12:27:35.270 -0400,10246.90327579167,1.061447143554688,0.3184356689453125,-0.1329803466796875,1,0.97
2020-05-16 12:27:35.340 -0400,10246.97312979167,0.597198486328125,0.33935546875,-0.2036590576171875,1,0.97
2020-05-16 12:27:35.410 -0400,10247.04298179167,0.4056396484375,0.254241943359375,-0.16802978515625,1,0.97
2020-05-16 12:27:35.479 -0400,10247.11283679167,0.3050537109375,0.134857177734375,-0.1952972412109375,1,0.97
2020-05-16 12:27:35.549 -0400,10247.18269179167,0.437652587890625,0.224151611328125,-0.240966796875,1,0.97
2020-05-16 12:27:35.619 -0400,10247.25254079167,1.363922119140625,0.53924560546875,-0.4093017578125,1,0.97
2020-05-16 12:27:35.689 -0400,10247.32238879167,1.8717041015625,0.290252685546875,-0.058380126953125,1,0.97
2020-05-16 12:27:35.759 -0400,10247.39223679167,1.711151123046875,0.4866180419921875,-0.325531005859375,1,0.97
2020-05-16 12:27:35.829 -0400,10247.46208179167,1.236587524414062,0.458465576171875,-0.0636444091796875,1,0.97
2020-05-16 12:27:35.899 -0400,10247.53192579167,0.9281005859375,0.292999267578125,-0.1292572021484375,1,0.97
2020-05-16 12:27:35.968 -0400,10247.60177366667,0.529876708984375,0.2797698974609375,-0.136993408203125,1,0.97
2020-05-16 12:27:36.038 -0400,10247.67162166667,0.30364990234375,0.2300262451171875,-0.125946044921875,1,0.97
2020-05-16 12:27:36.108 -0400,10247.74146966667,0.2249298095703125,0.2457122802734375,-0.038330078125,1,0.97
2020-05-16 12:27:36.178 -0400,10247.81131666667,0.630340576171875,0.674957275390625,-0.1685638427734375,1,0.97
2020-05-16 12:27:36.248 -0400,10247.88116266667,1.130783081054688,0.8866119384765625,-0.326019287109375,1,0.97
2020-05-16 12:27:36.319 -0400,10247.95101166667,1.201416015625,0.7723541259765625,-0.5589447021484375,1,0.97
2020-05-16 12:27:36.388 -0400,10248.02086066667,1.42413330078125,0.722320556640625,-0.3239898681640625,1,0.97
2020-05-16 12:27:36.457 -0400,10248.09071166667,1.65789794921875,0.1825103759765625,0.0850372314453125,1,0.97
2020-05-16 12:27:36.527 -0400,10248.16056066667,1.166412353515625,0.356689453125,-0.1012420654296875,1,0.97
2020-05-16 12:27:36.597 -0400,10248.23040466667,0.6219635009765625,0.41259765625,0.1795806884765625,1,0.97
2020-05-16 12:27:36.667 -0400,10248.30025366667,0.464935302734375,0.3243560791015625,0.2955169677734375,1,0.97
2020-05-16 12:27:36.737 -0400,10248.37009966667,0.674285888671875,0.815704345703125,-0.1389617919921875,1,0.97
2020-05-16 12:27:36.807 -0400,10248.43994566667,1.298126220703125,1.319305419921875,-0.626312255859375,1,0.97
2020-05-16 12:27:36.876 -0400,10248.50979266667,1.19854736328125,1.207260131835938,-1.061737060546875,1,0.97
2020-05-16 12:27:36.946 -0400,10248.57963466667,0.402679443359375,0.0759429931640625,-0.5703277587890625,1,0.97
2020-05-16 12:27:37.016 -0400,10248.64947725,0.55926513671875,-0.1742401123046875,-0.038482666015625,1,0.97
2020-05-16 12:27:37.086 -0400,10248.71932325,1.044143676757812,0.309600830078125,0.1816558837890625,1,0.97
2020-05-16 12:27:37.156 -0400,10248.78917025,1.2403564453125,0.1613922119140625,0.191009521484375,1,0.97
2020-05-16 12:27:37.226 -0400,10248.85901925,1.250885009765625,0.1796722412109375,-0.0854339599609375,1,0.97
2020-05-16 12:27:37.295 -0400,10248.92886925,1.241806030273438,0.2906951904296875,-0.398681640625,1,0.97
2020-05-16 12:27:37.369 -0400,10248.99872325,1.096389770507812,0.27960205078125,-0.4048309326171875,1,0.97
2020-05-16 12:27:37.435 -0400,10249.06857425,1.09149169921875,0.281982421875,-0.4911651611328125,1,0.97
2020-05-16 12:27:37.505 -0400,10249.13842025,1.145339965820312,0.338531494140625,-0.607696533203125,1,0.97
2020-05-16 12:27:37.575 -0400,10249.20826825,0.973114013671875,0.37884521484375,-0.68017578125,1,0.97
2020-05-16 12:27:37.645 -0400,10249.27811625,0.9907989501953125,0.3173370361328125,-0.6902313232421875,1,0.97
2020-05-16 12:27:37.715 -0400,10249.34796325,1.00689697265625,0.23870849609375,-0.55133056640625,1,0.97
2020-05-16 12:27:37.784 -0400,10249.41781325,1.408905029296875,0.162628173828125,-0.358612060546875,1,0.97
2020-05-16 12:27:37.854 -0400,10249.48766425,1.335113525390625,0.23565673828125,-0.0225677490234375,1,0.97
2020-05-16 12:27:37.924 -0400,10249.55750925,1.213653564453125,0.4296722412109375,0.149261474609375,1,0.97
2020-05-16 12:27:37.996 -0400,10249.627356125,1.071182250976562,0.2618255615234375,0.3193511962890625,1,0.97
2020-05-16 12:27:38.064 -0400,10249.697208125,0.849456787109375,0.25872802734375,0.27911376953125,1,0.97
2020-05-16 12:27:38.134 -0400,10249.767055125,0.581268310546875,0.27227783203125,0.2119903564453125,1,0.97
2020-05-16 12:27:38.203 -0400,10249.836899125,0.605194091796875,0.29437255859375,0.1517333984375,1,0.97
2020-05-16 12:27:38.273 -0400,10249.906747125,0.76031494140625,0.3174591064453125,0.0799407958984375,1,0.97
2020-05-16 12:27:38.343 -0400,10249.976592125,0.96478271484375,0.369110107421875,-0.04608154296875,1,0.97
2020-05-16 12:27:38.413 -0400,10250.046436125,1.071548461914062,0.3886871337890625,-0.1954803466796875,1,0.97
2020-05-16 12:27:38.483 -0400,10250.116284125,1.309738159179688,0.327117919921875,-0.35174560546875,1,0.97
2020-05-16 12:27:38.553 -0400,10250.186133125,1.395751953125,0.1150665283203125,-0.2092132568359375,1,0.97
2020-05-16 12:27:38.623 -0400,10250.255982125,1.22625732421875,0.322906494140625,-0.3578338623046875,1,0.97
2020-05-16 12:27:38.693 -0400,10250.325828125,0.79840087890625,0.2695159912109375,-0.2911834716796875,1,0.97
2020-05-16 12:27:38.762 -0400,10250.395677125,0.6606597900390625,0.25555419921875,-0.08245849609375,1,0.97
2020-05-16 12:27:38.832 -0400,10250.465526125,0.6285400390625,0.33868408203125,0.0242156982421875,1,0.97
2020-05-16 12:27:38.902 -0400,10250.535371125,0.6400299072265625,0.41796875,0.05889892578125,1,0.97
2020-05-16 12:27:38.972 -0400,10250.605215125,0.6288299560546875,0.4851837158203125,-0.0271148681640625,1,0.97
2020-05-16 12:27:39.042 -0400,10250.675062125,0.668426513671875,0.505401611328125,-0.143463134765625,1,0.97
2020-05-16 12:27:39.111 -0400,10250.744910125,0.8102874755859375,0.4967498779296875,-0.22021484375,1,0.97
2020-05-16 12:27:39.181 -0400,10250.814753125,1.06689453125,0.415740966796875,-0.33636474609375,1,0.97
2020-05-16 12:27:39.251 -0400,10250.884599125,1.809722900390625,0.2052459716796875,-0.3561553955078125,1,0.97
2020-05-16 12:27:39.321 -0400,10250.954446125,1.10369873046875,0.223541259765625,-0.443267822265625,1,0.97
2020-05-16 12:27:39.391 -0400,10251.024295125,1.171279907226562,0.2798919677734375,-0.186309814453125,1,0.97
2020-05-16 12:27:39.461 -0400,10251.094141125,0.9940185546875,0.042694091796875,0.0351715087890625,1,0.97
2020-05-16 12:27:39.531 -0400,10251.163986125,0.7430267333984375,-0.0124359130859375,0.0764007568359375,1,0.97
2020-05-16 12:27:39.600 -0400,10251.233830125,0.7039642333984375,0.1512603759765625,0.0353851318359375,1,0.97
2020-05-16 12:27:39.670 -0400,10251.303677125,0.647796630859375,0.22772216796875,-0.047271728515625,1,0.97
2020-05-16 12:27:39.740 -0400,10251.373523125,0.8745574951171875,0.4200592041015625,-0.0278778076171875,1,0.97
2020-05-16 12:27:39.810 -0400,10251.443369125,1.418731689453125,0.6445770263671875,-0.1101837158203125,1,0.97
2020-05-16 12:27:39.880 -0400,10251.513217125,1.032302856445312,0.409332275390625,-0.149993896484375,1,0.97
2020-05-16 12:27:39.950 -0400,10251.583064125,0.969635009765625,0.3538818359375,-0.082794189453125,1,0.97
2020-05-16 12:27:40.019 -0400,10251.65291004167,1.441543579101562,0.5869903564453125,-0.265411376953125,1,0.97
2020-05-16 12:27:40.089 -0400,10251.72275604167,1.289443969726562,0.1964111328125,-0.250640869140625,1,0.97
2020-05-16 12:27:40.159 -0400,10251.79260304167,0.6545562744140625,0.208648681640625,-0.2627410888671875,1,0.97
2020-05-16 12:27:40.229 -0400,10251.86245004167,0.570343017578125,0.208404541015625,-0.26275634765625,1,0.97
2020-05-16 12:27:40.309 -0400,10251.93229904167,0.720855712890625,0.172088623046875,-0.1994476318359375,1,0.97
2020-05-16 12:27:40.369 -0400,10252.00215104167,0.90814208984375,0.273406982421875,-0.213470458984375,1,0.97
2020-05-16 12:27:40.439 -0400,10252.07200004167,0.97540283203125,0.3491973876953125,-0.2681884765625,1,0.97
2020-05-16 12:27:40.508 -0400,10252.14184704167,0.9360198974609375,0.3300933837890625,-0.16424560546875,1,0.97
2020-05-16 12:27:40.578 -0400,10252.21169104167,0.86962890625,0.3964080810546875,-0.1531219482421875,1,0.97
2020-05-16 12:27:40.648 -0400,10252.28153304167,1.064743041992188,0.5224151611328125,-0.127227783203125,1,0.97
2020-05-16 12:27:40.718 -0400,10252.35137604167,1.417098999023438,0.8425140380859375,-0.2467193603515625,1,0.97
2020-05-16 12:27:40.788 -0400,10252.42122204167,0.9712066650390625,0.4842681884765625,-0.2588348388671875,1,0.97
2020-05-16 12:27:40.858 -0400,10252.49106704167,1.076614379882812,0.462921142578125,-0.20245361328125,1,0.97
2020-05-16 12:27:40.927 -0400,10252.56091404167,0.9514617919921875,0.3876953125,-0.2295379638671875,1,0.97
2020-05-16 12:27:40.997 -0400,10252.63076379167,0.906402587890625,0.38873291015625,-0.1624755859375,1,0.97
2020-05-16 12:27:41.067 -0400,10252.70061079167,1.081649780273438,0.3205718994140625,-0.093902587890625,1,0.97
2020-05-16 12:27:41.137 -0400,10252.77045379167,1.030838012695312,0.242767333984375,-0.053863525390625,1,0.97
2020-05-16 12:27:41.207 -0400,10252.84029379167,0.7974700927734375,0.3020782470703125,-0.06378173828125,1,0.97
2020-05-16 12:27:41.277 -0400,10252.91013579167,0.708465576171875,0.3185577392578125,-0.10882568359375,1,0.97
2020-05-16 12:27:41.347 -0400,10252.97998279167,0.9204559326171875,0.266571044921875,-0.1113739013671875,1,0.97
2020-05-16 12:27:41.417 -0400,10253.04982879167,1.193435668945312,0.477447509765625,-0.1753997802734375,1,0.97
2020-05-16 12:27:41.486 -0400,10253.11967379167,1.135589599609375,0.4831085205078125,-0.5347747802734375,1,0.97
2020-05-16 12:27:41.556 -0400,10253.18951979167,1.251235961914062,0.4088287353515625,-0.12628173828125,1,0.97
2020-05-16 12:27:41.626 -0400,10253.25936479167,0.6473388671875,0.5195770263671875,-0.380584716796875,1,0.97
2020-05-16 12:27:41.696 -0400,10253.32921479167,0.552032470703125,0.6092071533203125,-0.31060791015625,1,0.97
2020-05-16 12:27:41.766 -0400,10253.39906279167,0.6665496826171875,0.5731353759765625,-0.3809661865234375,1,0.97
2020-05-16 12:27:41.835 -0400,10253.46891279167,0.7540435791015625,0.64764404296875,-0.421539306640625,1,0.97
2020-05-16 12:27:41.905 -0400,10253.53875879167,1.104736328125,0.66290283203125,-0.35821533203125,1,0.97
2020-05-16 12:27:41.975 -0400,10253.60860641667,1.876541137695312,0.530517578125,-0.4074859619140625,1,0.97
2020-05-16 12:27:42.045 -0400,10253.67844541667,1.850677490234375,0.10064697265625,-0.203399658203125,1,0.97
2020-05-16 12:27:42.115 -0400,10253.74829041667,1.170883178710938,0.512847900390625,-0.239166259765625,1,0.97
2020-05-16 12:27:42.185 -0400,10253.81813441667,0.708770751953125,0.364593505859375,-0.158782958984375,1,0.97
2020-05-16 12:27:42.255 -0400,10253.88797741667,0.6261138916015625,0.1938018798828125,-0.0078582763671875,1,0.97
2020-05-16 12:27:42.325 -0400,10253.95782441667,0.66229248046875,0.0850830078125,0.0133514404296875,1,0.97
2020-05-16 12:27:42.394 -0400,10254.02766841667,0.9816131591796875,0.24420166015625,0.0584716796875,1,0.97
2020-05-16 12:27:42.464 -0400,10254.09751541667,0.9490966796875,0.4745635986328125,0.0025177001953125,1,0.97
2020-05-16 12:27:42.534 -0400,10254.16736041667,1.622268676757812,0.7642364501953125,-0.6717987060546875,1,0.97
2020-05-16 12:27:42.604 -0400,10254.23720341667,0.97784423828125,0.569793701171875,-0.2012481689453125,1,0.97
2020-05-16 12:27:42.674 -0400,10254.30704541667,0.765106201171875,0.101165771484375,-0.238861083984375,1,0.97
2020-05-16 12:27:42.744 -0400,10254.37688741667,0.83233642578125,0.5188446044921875,-0.41107177734375,1,0.97
2020-05-16 12:27:42.813 -0400,10254.44673141667,0.7849273681640625,1.01141357421875,-0.613739013671875,1,0.97
2020-05-16 12:27:42.883 -0400,10254.51656741667,0.837127685546875,0.8647003173828125,-0.590057373046875,1,0.97
2020-05-16 12:27:42.953 -0400,10254.58640541667,1.73907470703125,0.991363525390625,-0.7186737060546875,1,0.97
2020-05-16 12:27:43.023 -0400,10254.65624025,1.654281616210938,0.3500213623046875,-0.33258056640625,1,0.97
2020-05-16 12:27:43.093 -0400,10254.72607525,1.930007934570312,-0.235107421875,-0.1470794677734375,1,0.97
2020-05-16 12:27:43.162 -0400,10254.79591225,1.059738159179688,0.178985595703125,-0.093780517578125,1,0.97
2020-05-16 12:27:43.232 -0400,10254.86575525,0.7075653076171875,0.5214385986328125,-0.0538177490234375,1,0.97
2020-05-16 12:27:43.302 -0400,10254.93559525,0.665863037109375,0.2451629638671875,0.084228515625,1,0.97
2020-05-16 12:27:43.372 -0400,10255.00543425,0.5362701416015625,0.065277099609375,0.1209716796875,1,0.97
2020-05-16 12:27:43.442 -0400,10255.07527425,0.493896484375,0.187591552734375,0.0283355712890625,1,0.97
2020-05-16 12:27:43.512 -0400,10255.14511825,0.9228515625,0.3384246826171875,-0.0050811767578125,1,0.97
2020-05-16 12:27:43.582 -0400,10255.21496325,1.503768920898438,0.6888275146484375,-0.5810699462890625,1,0.97
2020-05-16 12:27:43.651 -0400,10255.28480725,1.879119873046875,0.821563720703125,-0.34869384765625,1,0.97
2020-05-16 12:27:43.721 -0400,10255.35465025,1.034423828125,-0.17254638671875,-0.456024169921875,1,0.97
2020-05-16 12:27:43.791 -0400,10255.42449425,0.8570404052734375,0.3772735595703125,-0.3809051513671875,1,0.97
2020-05-16 12:27:43.861 -0400,10255.49434025,0.7557373046875,0.9261932373046875,-0.4707489013671875,1,0.97
2020-05-16 12:27:43.931 -0400,10255.56418125,0.7285308837890625,0.6502532958984375,-0.58355712890625,1,0.97
2020-05-16 12:27:44.001 -0400,10255.634021,0.8572540283203125,0.495330810546875,-0.5345611572265625,1,0.97
2020-05-16 12:27:44.070 -0400,10255.703858,1.6807861328125,0.6511993408203125,-0.5492706298828125,1,0.97
2020-05-16 12:27:44.140 -0400,10255.773696,1.741897583007812,0.425750732421875,-0.428466796875,1,0.97
2020-05-16 12:27:44.210 -0400,10255.843537,1.740997314453125,0.3823699951171875,-0.1142120361328125,1,0.97
2020-05-16 12:27:44.280 -0400,10255.913378,1.040206909179688,0.33917236328125,-0.163970947265625,1,0.97
2020-05-16 12:27:44.350 -0400,10255.983218,0.6319122314453125,0.362945556640625,0.0075225830078125,1,0.97
2020-05-16 12:27:44.420 -0400,10256.053064,0.6364288330078125,0.2929840087890625,0.078094482421875,1,0.97
2020-05-16 12:27:44.489 -0400,10256.122908,0.6756134033203125,0.17779541015625,0.0950164794921875,1,0.97
2020-05-16 12:27:44.559 -0400,10256.192752,0.8251800537109375,0.1802215576171875,0.1097869873046875,1,0.97
2020-05-16 12:27:44.629 -0400,10256.262595,1.030410766601562,0.4716033935546875,-0.183380126953125,1,0.97
2020-05-16 12:27:44.699 -0400,10256.332436,1.693557739257812,0.671295166015625,-0.65887451171875,1,0.97
2020-05-16 12:27:44.769 -0400,10256.40228,1.163925170898438,-0.0057830810546875,-0.3813934326171875,1,0.97
2020-05-16 12:27:44.839 -0400,10256.472125,0.7857513427734375,-0.17919921875,-0.3028106689453125,1,0.97
2020-05-16 12:27:44.908 -0400,10256.541967,0.591461181640625,1.035552978515625,-0.3079833984375,1,0.97
2020-05-16 12:27:44.978 -0400,10256.61180575,0.602142333984375,0.7527618408203125,-0.3956451416015625,1,0.97
2020-05-16 12:27:45.048 -0400,10256.68164075,1.154861450195312,0.74755859375,-0.523101806640625,1,0.97
2020-05-16 12:27:45.118 -0400,10256.75147675,1.457275390625,0.58502197265625,-0.2567596435546875,1,0.97
2020-05-16 12:27:45.188 -0400,10256.82131375,1.397506713867188,0.538177490234375,-0.46734619140625,1,0.97
2020-05-16 12:27:45.260 -0400,10256.89114675,1.61907958984375,0.5348358154296875,-0.1776885986328125,1,0.97
2020-05-16 12:27:45.328 -0400,10256.96098175,1.221099853515625,0.2173919677734375,-0.08502197265625,1,0.97
2020-05-16 12:27:45.397 -0400,10257.03081275,0.8301849365234375,0.32427978515625,-0.0318756103515625,1,0.97
2020-05-16 12:27:45.467 -0400,10257.10065075,1.049774169921875,0.3870086669921875,0.0705413818359375,1,0.97
2020-05-16 12:27:45.537 -0400,10257.17048675,1.255584716796875,0.2847442626953125,0.15899658203125,1,0.97
2020-05-16 12:27:45.607 -0400,10257.24032075,1.087234497070312,0.219329833984375,0.0611572265625,1,0.97
2020-05-16 12:27:45.677 -0400,10257.31015375,0.9885711669921875,0.4448699951171875,-0.14923095703125,1,0.97
2020-05-16 12:27:45.746 -0400,10257.37998875,0.8999176025390625,0.3499908447265625,-0.4836273193359375,1,0.97
2020-05-16 12:27:45.816 -0400,10257.44982875,0.9989776611328125,0.224395751953125,-0.3389434814453125,1,0.97
2020-05-16 12:27:45.886 -0400,10257.51966975,0.852691650390625,0.4029998779296875,-0.4146270751953125,1,0.97
2020-05-16 12:27:45.956 -0400,10257.58951075,0.6568603515625,0.4373321533203125,-0.4735107421875,1,0.97
2020-05-16 12:27:46.026 -0400,10257.6593505,0.71148681640625,0.4759521484375,-0.5540313720703125,1,0.97
2020-05-16 12:27:46.096 -0400,10257.7291895,0.90008544921875,0.474853515625,-0.4618682861328125,1,0.97
2020-05-16 12:27:46.166 -0400,10257.7990325,1.251983642578125,0.5376129150390625,-0.43695068359375,1,0.97
2020-05-16 12:27:46.236 -0400,10257.8688685,1.457351684570312,0.7501373291015625,-0.556365966796875,1,0.97
2020-05-16 12:27:46.305 -0400,10257.9387095,1.307357788085938,0.42755126953125,-0.266876220703125,1,0.97
2020-05-16 12:27:46.375 -0400,10258.0085475,1.492599487304688,0.35858154296875,-0.1177978515625,1,0.97
2020-05-16 12:27:46.445 -0400,10258.0783835,1.032180786132812,0.2926788330078125,0.0073394775390625,1,0.97
2020-05-16 12:27:46.515 -0400,10258.1482195,0.7281646728515625,0.37799072265625,0.0255889892578125,1,0.97
2020-05-16 12:27:46.585 -0400,10258.2180575,0.822174072265625,0.3792266845703125,0.1190643310546875,1,0.97
2020-05-16 12:27:46.654 -0400,10258.2878905,1.077117919921875,0.3274688720703125,0.047698974609375,1,0.97
2020-05-16 12:27:46.724 -0400,10258.3577285,1.202392578125,0.31500244140625,-0.06414794921875,1,0.97
2020-05-16 12:27:46.794 -0400,10258.4275645,1.126556396484375,0.2148895263671875,-0.151153564453125,1,0.97
2020-05-16 12:27:46.864 -0400,10258.4974025,0.912109375,0.231658935546875,-0.325042724609375,1,0.97
2020-05-16 12:27:46.934 -0400,10258.5672415,1.148651123046875,0.3382720947265625,-0.474090576171875,1,0.97
2020-05-16 12:27:47.004 -0400,10258.63708104167,1.238006591796875,0.3684539794921875,-0.46429443359375,1,0.97
2020-05-16 12:27:47.074 -0400,10258.70692204167,0.8041839599609375,0.494659423828125,-0.471466064453125,1,0.97
2020-05-16 12:27:47.144 -0400,10258.77676004167,0.518096923828125,0.437774658203125,-0.3312835693359375,1,0.97
2020-05-16 12:27:47.213 -0400,10258.84659804167,0.5605010986328125,0.3655242919921875,-0.329681396484375,1,0.97
2020-05-16 12:27:47.283 -0400,10258.91643704167,1.156295776367188,0.38916015625,-0.522216796875,1,0.97
2020-05-16 12:27:47.353 -0400,10258.98627704167,1.783050537109375,0.1779022216796875,-0.3056182861328125,1,0.97
2020-05-16 12:27:47.423 -0400,10259.05611804167,1.574188232421875,0.5344390869140625,-0.4026336669921875,1,0.97
2020-05-16 12:27:47.493 -0400,10259.12595604167,1.4793701171875,0.4700775146484375,-0.235443115234375,1,0.97
2020-05-16 12:27:47.562 -0400,10259.19579504167,1.451065063476562,0.206939697265625,0.0207366943359375,1,0.97
2020-05-16 12:27:47.632 -0400,10259.26563204167,0.8448486328125,0.2908935546875,-0.000701904296875,1,0.97
2020-05-16 12:27:47.702 -0400,10259.33547204167,0.4178619384765625,0.31292724609375,0.05865478515625,1,0.97
2020-05-16 12:27:47.772 -0400,10259.40531204167,0.245880126953125,0.260955810546875,0.1184539794921875,1,0.97
2020-05-16 12:27:47.842 -0400,10259.47515404167,0.2753143310546875,0.2169952392578125,0.112762451171875,1,0.97
2020-05-16 12:27:47.912 -0400,10259.54499704167,1.014892578125,0.39593505859375,-0.0423431396484375,1,0.97
2020-05-16 12:27:47.982 -0400,10259.61483425,1.647705078125,0.3662261962890625,-0.177276611328125,1,0.97
2020-05-16 12:27:48.051 -0400,10259.68467125,1.83892822265625,0.226806640625,-0.3841094970703125,1,0.97
2020-05-16 12:27:48.121 -0400,10259.75451125,1.356201171875,0.2563018798828125,-0.449615478515625,1,0.97
2020-05-16 12:27:48.191 -0400,10259.82435025,1.0748291015625,0.167388916015625,-0.27191162109375,1,0.97
2020-05-16 12:27:48.261 -0400,10259.89419025,0.706085205078125,0.3617401123046875,-0.30657958984375,1,0.97
2020-05-16 12:27:48.330 -0400,10259.96403125,0.4433441162109375,0.427734375,-0.199462890625,1,0.97
2020-05-16 12:27:48.401 -0400,10260.03387025,0.323822021484375,0.3881988525390625,-0.1275634765625,1,0.97
2020-05-16 12:27:48.470 -0400,10260.10371025,0.426849365234375,0.42242431640625,-0.1620025634765625,1,0.97
2020-05-16 12:27:48.540 -0400,10260.17354925,1.128524780273438,0.52838134765625,-0.3948516845703125,1,0.97
2020-05-16 12:27:48.610 -0400,10260.24338825,1.870071411132812,0.34503173828125,-0.298065185546875,1,0.97
2020-05-16 12:27:48.680 -0400,10260.31322625,1.355804443359375,0.37530517578125,-0.48114013671875,1,0.97
2020-05-16 12:27:48.750 -0400,10260.38306425,1.174468994140625,0.4405517578125,-0.3363189697265625,1,0.97
2020-05-16 12:27:48.820 -0400,10260.45290225,1.210006713867188,0.285736083984375,-0.16339111328125,1,0.97
2020-05-16 12:27:48.889 -0400,10260.52274325,0.8020477294921875,0.2723388671875,-0.0947418212890625,1,0.97
2020-05-16 12:27:48.959 -0400,10260.59258525,0.4894256591796875,0.311737060546875,-0.067657470703125,1,0.97
2020-05-16 12:27:49.029 -0400,10260.66242266667,0.4741668701171875,0.337615966796875,-0.022918701171875,1,0.97
2020-05-16 12:27:49.099 -0400,10260.73226266667,0.8134613037109375,0.338958740234375,-0.017059326171875,1,0.97
2020-05-16 12:27:49.169 -0400,10260.80210666667,1.432830810546875,0.4067230224609375,-0.0306396484375,1,0.97
2020-05-16 12:27:49.239 -0400,10260.87195066667,1.547210693359375,0.258575439453125,-0.0946502685546875,1,0.97
2020-05-16 12:27:49.308 -0400,10260.94178966667,1.319915771484375,0.558013916015625,-0.415374755859375,1,0.97
2020-05-16 12:27:49.378 -0400,10261.01163166667,1.052154541015625,0.277801513671875,-0.24652099609375,1,0.97
2020-05-16 12:27:49.448 -0400,10261.08147966667,1.02587890625,0.261749267578125,-0.2717437744140625,1,0.97
2020-05-16 12:27:49.518 -0400,10261.15132366667,0.7666473388671875,0.3901824951171875,-0.319061279296875,1,0.97
2020-05-16 12:27:49.588 -0400,10261.22116466667,0.5341796875,0.3892059326171875,-0.20172119140625,1,0.97
2020-05-16 12:27:49.658 -0400,10261.29100366667,0.4373779296875,0.39013671875,-0.180206298828125,1,0.97
2020-05-16 12:27:49.727 -0400,10261.36083966667,0.485565185546875,0.3752288818359375,-0.1604766845703125,1,0.97
2020-05-16 12:27:49.797 -0400,10261.43068066667,0.7274627685546875,0.4223480224609375,-0.163848876953125,1,0.97
2020-05-16 12:27:49.867 -0400,10261.50052366667,0.8769073486328125,0.4986572265625,-0.343353271484375,1,0.97
2020-05-16 12:27:49.937 -0400,10261.57036466667,1.558914184570312,0.7423248291015625,-0.5707550048828125,1,0.97
2020-05-16 12:27:50.007 -0400,10261.640206125,1.223037719726562,0.4328155517578125,-0.2455902099609375,1,0.97
2020-05-16 12:27:50.077 -0400,10261.710045125,1.494155883789062,0.1756744384765625,-0.0001068115234375,1,0.97
2020-05-16 12:27:50.146 -0400,10261.779887125,0.8789825439453125,0.353057861328125,-0.11883544921875,1,0.97
2020-05-16 12:27:50.216 -0400,10261.849729125,0.4696197509765625,0.3341064453125,-0.087982177734375,1,0.97
2020-05-16 12:27:50.286 -0400,10261.919569125,0.34747314453125,0.263092041015625,-0.0113983154296875,1,0.97
2020-05-16 12:27:50.356 -0400,10261.989407125,0.5090179443359375,0.26861572265625,-0.0688018798828125,1,0.97
2020-05-16 12:27:50.426 -0400,10262.059249125,1.123138427734375,0.3489532470703125,-0.12420654296875,1,0.97
2020-05-16 12:27:50.496 -0400,10262.129090125,1.441360473632812,0.3238677978515625,-0.146697998046875,1,0.97
2020-05-16 12:27:50.565 -0400,10262.198935125,1.829681396484375,0.3829193115234375,-0.232818603515625,1,0.97
2020-05-16 12:27:50.635 -0400,10262.268778125,1.285903930664062,0.5820770263671875,-0.3641357421875,1,0.97
2020-05-16 12:27:50.705 -0400,10262.338618125,0.914886474609375,0.210662841796875,-0.0822906494140625,1,0.97
2020-05-16 12:27:50.775 -0400,10262.408460125,0.7073516845703125,0.4081268310546875,-0.1403350830078125,1,0.97
2020-05-16 12:27:50.845 -0400,10262.478301125,0.3485107421875,0.404937744140625,-0.1031646728515625,1,0.97
2020-05-16 12:27:50.915 -0400,10262.548138125,0.308624267578125,0.418212890625,-0.0886993408203125,1,0.97
2020-05-16 12:27:50.984 -0400,10262.617977625,0.606201171875,0.4954833984375,-0.2377166748046875,1,0.97
2020-05-16 12:27:51.054 -0400,10262.687816625,0.825653076171875,0.4847564697265625,-0.369049072265625,1,0.97
2020-05-16 12:27:51.124 -0400,10262.757657625,1.524444580078125,0.37225341796875,-0.4036865234375,1,0.97
2020-05-16 12:27:51.194 -0400,10262.827495625,1.395431518554688,0.3713226318359375,-0.1290435791015625,1,0.97
2020-05-16 12:27:51.264 -0400,10262.897335625,1.33050537109375,0.030792236328125,-0.14288330078125,1,0.97
2020-05-16 12:27:51.334 -0400,10262.967174625,1.07196044921875,0.4470977783203125,-0.15740966796875,1,0.97
2020-05-16 12:27:51.404 -0400,10263.037014625,0.5828399658203125,0.33538818359375,-0.12066650390625,1,0.97
2020-05-16 12:27:51.473 -0400,10263.106854625,0.469940185546875,0.21356201171875,-0.096099853515625,1,0.97
2020-05-16 12:27:51.543 -0400,10263.176696625,0.5116119384765625,0.163970947265625,-0.0910186767578125,1,0.97
2020-05-16 12:27:51.613 -0400,10263.246538625,0.6447906494140625,0.315765380859375,-0.08538818359375,1,0.97
2020-05-16 12:27:51.683 -0400,10263.316379625,1.147476196289062,0.474761962890625,-0.1274566650390625,1,0.97
2020-05-16 12:27:51.753 -0400,10263.386222625,2.288665771484375,0.704833984375,-0.3696441650390625,1,0.97
2020-05-16 12:27:51.823 -0400,10263.456063625,0.617828369140625,0.5070343017578125,-0.5332183837890625,1,0.97
2020-05-16 12:27:51.893 -0400,10263.525905625,0.947235107421875,0.190155029296875,-0.120635986328125,1,0.97
2020-05-16 12:27:51.962 -0400,10263.595749625,0.7004547119140625,0.377197265625,-0.12896728515625,1,0.97
2020-05-16 12:27:52.032 -0400,10263.6655945,0.4300537109375,0.53082275390625,-0.15057373046875,1,0.97
2020-05-16 12:27:52.102 -0400,10263.7354405,0.6079254150390625,0.56243896484375,-0.21533203125,1,0.97
2020-05-16 12:27:52.172 -0400,10263.8052825,0.7071075439453125,0.44354248046875,-0.16424560546875,1,0.97
2020-05-16 12:27:52.242 -0400,10263.8751285,0.6845550537109375,0.4452667236328125,-0.267791748046875,1,0.97
2020-05-16 12:27:52.312 -0400,10263.9449745,0.8149566650390625,0.455413818359375,-0.4022674560546875,1,0.97
2020-05-16 12:27:52.382 -0400,10264.0148155,1.8555908203125,-0.1478271484375,-0.6864013671875,1,0.97
2020-05-16 12:27:52.451 -0400,10264.0846575,1.422805786132812,0.8046722412109375,0.0236663818359375,1,0.97
2020-05-16 12:27:52.521 -0400,10264.1544975,1.076004028320312,0.3889617919921875,-0.0565643310546875,1,0.97
2020-05-16 12:27:52.591 -0400,10264.2243355,0.585693359375,0.3611297607421875,-0.1148529052734375,1,0.97
2020-05-16 12:27:52.661 -0400,10264.2941755,0.3498382568359375,0.297454833984375,-0.0815277099609375,1,0.97
2020-05-16 12:27:52.731 -0400,10264.3640165,0.5204925537109375,0.2720184326171875,-0.06439208984375,1,0.97
2020-05-16 12:27:52.800 -0400,10264.4338555,1.233016967773438,0.346893310546875,-0.021270751953125,1,0.97
2020-05-16 12:27:52.870 -0400,10264.5036935,1.380966186523438,0.396759033203125,0.0677642822265625,1,0.97
2020-05-16 12:27:52.940 -0400,10264.5735315,0.9089202880859375,0.85009765625,-0.42034912109375,1,0.97
2020-05-16 12:27:53.010 -0400,10264.643368125,1.00408935546875,0.8543548583984375,-0.4321746826171875,1,0.97
2020-05-16 12:27:53.080 -0400,10264.713209125,0.9464263916015625,-0.0398101806640625,-0.03582763671875,1,0.97
2020-05-16 12:27:53.150 -0400,10264.783053125,0.574859619140625,0.4581298828125,-0.4125213623046875,1,0.97
2020-05-16 12:27:53.220 -0400,10264.852898125,0.535125732421875,0.4791412353515625,-0.214324951171875,1,0.97
2020-05-16 12:27:53.289 -0400,10264.922744125,0.523590087890625,0.5310516357421875,-0.178436279296875,1,0.97
2020-05-16 12:27:53.359 -0400,10264.992588125,0.52410888671875,0.502166748046875,-0.2614898681640625,1,0.97
2020-05-16 12:27:53.429 -0400,10265.062434125,2.028549194335938,0.949920654296875,-0.615753173828125,1,0.97
2020-05-16 12:27:53.499 -0400,10265.132279125,1.251052856445312,0.3063201904296875,0.1359405517578125,1,0.97
2020-05-16 12:27:53.569 -0400,10265.202121125,1.140548706054688,0.073333740234375,-0.226959228515625,1,0.97
2020-05-16 12:27:53.638 -0400,10265.271964125,0.937286376953125,0.6403045654296875,-0.1858367919921875,1,0.97
2020-05-16 12:27:53.708 -0400,10265.341804125,0.5964813232421875,0.3531951904296875,-0.0616302490234375,1,0.97
2020-05-16 12:27:53.778 -0400,10265.411647125,0.4922637939453125,0.2659759521484375,-0.0415191650390625,1,0.97
2020-05-16 12:27:53.848 -0400,10265.481488125,0.672454833984375,0.2656097412109375,-0.0560455322265625,1,0.97
2020-05-16 12:27:53.918 -0400,10265.551332125,0.95062255859375,0.318572998046875,-0.1703033447265625,1,0.97
2020-05-16 12:27:53.988 -0400,10265.621179375,1.904815673828125,0.3522186279296875,-0.117950439453125,1,0.97
2020-05-16 12:27:54.058 -0400,10265.691025375,0.8958892822265625,0.5485382080078125,-0.92333984375,1,0.97
2020-05-16 12:27:54.127 -0400,10265.760877375,0.9671173095703125,0.1541595458984375,-0.3723297119140625,1,0.97
2020-05-16 12:27:54.197 -0400,10265.830724375,0.7069244384765625,0.0849456787109375,-0.2189178466796875,1,0.97
2020-05-16 12:27:54.267 -0400,10265.900572375,0.5384368896484375,0.489715576171875,-0.361663818359375,1,0.97
2020-05-16 12:27:54.337 -0400,10265.970417375,0.7303314208984375,0.6305694580078125,-0.496795654296875,1,0.97
2020-05-16 12:27:54.407 -0400,10266.040264375,0.6390533447265625,0.4683380126953125,-0.3948822021484375,1,0.97
2020-05-16 12:27:54.477 -0400,10266.110111375,1.319854736328125,0.436798095703125,-0.4147186279296875,1,0.97
2020-05-16 12:27:54.547 -0400,10266.179951375,1.545394897460938,0.3385772705078125,-0.4053955078125,1,0.97
2020-05-16 12:27:54.616 -0400,10266.249794375,1.488983154296875,-0.08538818359375,-0.2943115234375,1,0.97
2020-05-16 12:27:54.686 -0400,10266.319635375,1.1021728515625,0.285675048828125,-0.3103790283203125,1,0.97
2020-05-16 12:27:54.756 -0400,10266.389480375,0.617431640625,0.237945556640625,-0.1041259765625,1,0.97
2020-05-16 12:27:54.826 -0400,10266.459327375,0.477325439453125,0.1721343994140625,-0.031494140625,1,0.97
2020-05-16 12:27:54.896 -0400,10266.529173375,0.7657623291015625,0.19732666015625,-0.002410888671875,1,0.97
2020-05-16 12:27:54.966 -0400,10266.599020375,0.7916412353515625,0.229949951171875,-0.0364837646484375,1,0.97
2020-05-16 12:27:55.035 -0400,10266.66886375,0.9235076904296875,0.2859954833984375,-0.13116455078125,1,0.97
2020-05-16 12:27:55.105 -0400,10266.73870575,1.529800415039062,0.405609130859375,-0.168853759765625,1,0.97
2020-05-16 12:27:55.175 -0400,10266.80855175,1.4246826171875,0.5536651611328125,-0.6627960205078125,1,0.97
2020-05-16 12:27:55.249 -0400,10266.87839275,1.315582275390625,0.18505859375,-0.23687744140625,1,0.97
2020-05-16 12:27:55.315 -0400,10266.94823475,0.868194580078125,0.1751251220703125,-0.2454681396484375,1,0.97
2020-05-16 12:27:55.385 -0400,10267.01807475,0.5639801025390625,0.5043487548828125,-0.3048248291015625,1,0.97
2020-05-16 12:27:55.455 -0400,10267.08792075,0.5603485107421875,0.6302947998046875,-0.3975982666015625,1,0.97
2020-05-16 12:27:55.524 -0400,10267.15776975,0.7957763671875,0.5086517333984375,-0.5836181640625,1,0.97
2020-05-16 12:27:55.594 -0400,10267.22761675,1.032546997070312,0.331939697265625,-0.439697265625,1,0.97
2020-05-16 12:27:55.664 -0400,10267.29745975,1.767227172851562,0.663604736328125,-0.7281951904296875,1,0.97
2020-05-16 12:27:55.734 -0400,10267.36730075,1.52960205078125,0.3327484130859375,-0.26904296875,1,0.97
2020-05-16 12:27:55.804 -0400,10267.43714575,1.740432739257812,0.2207794189453125,-0.1577301025390625,1,0.97
2020-05-16 12:27:55.873 -0400,10267.50699175,0.9913482666015625,0.256378173828125,-0.052001953125,1,0.97
2020-05-16 12:27:55.943 -0400,10267.57683775,0.7270050048828125,0.3754425048828125,0.01513671875,1,0.97
2020-05-16 12:27:56.013 -0400,10267.646684125,0.6977996826171875,0.21234130859375,0.0927886962890625,1,0.97
2020-05-16 12:27:56.083 -0400,10267.716526125,0.7990264892578125,0.18792724609375,0.0723876953125,1,0.97
2020-05-16 12:27:56.153 -0400,10267.786369125,0.94366455078125,0.184295654296875,0.0579833984375,1,0.97
2020-05-16 12:27:56.223 -0400,10267.856209125,1.023834228515625,0.4019317626953125,-0.0818023681640625,1,0.97
2020-05-16 12:27:56.293 -0400,10267.926052125,1.68701171875,0.738494873046875,-0.784515380859375,1,0.97
2020-05-16 12:27:56.363 -0400,10267.995899125,1.31756591796875,0.127471923828125,-0.2868194580078125,1,0.97
2020-05-16 12:27:56.432 -0400,10268.065741125,0.840911865234375,-0.0136566162109375,-0.4807891845703125,1,0.97
2020-05-16 12:27:56.502 -0400,10268.135581125,0.7406005859375,0.6108551025390625,-0.4463043212890625,1,0.97
2020-05-16 12:27:56.572 -0400,10268.205418125,0.6757354736328125,0.7098541259765625,-0.5904388427734375,1,0.97
2020-05-16 12:27:56.642 -0400,10268.275255125,0.7812347412109375,0.466217041015625,-0.5443115234375,1,0.97
2020-05-16 12:27:56.712 -0400,10268.345090125,1.344589233398438,0.80291748046875,-0.7380218505859375,1,0.97
2020-05-16 12:27:56.781 -0400,10268.414925125,2.04962158203125,0.1583404541015625,-0.159271240234375,1,0.97
2020-05-16 12:27:56.851 -0400,10268.484762125,1.484710693359375,-0.2229156494140625,-0.006195068359375,1,0.97
2020-05-16 12:27:56.921 -0400,10268.554603125,1.408050537109375,0.771697998046875,-0.200836181640625,1,0.97
2020-05-16 12:27:56.991 -0400,10268.624444375,1.088729858398438,0.4150238037109375,-0.0055999755859375,1,0.97
2020-05-16 12:27:57.061 -0400,10268.694283375,0.82183837890625,0.234588623046875,0.1287384033203125,1,0.97
2020-05-16 12:27:57.131 -0400,10268.764125375,0.6591644287109375,0.166229248046875,0.070770263671875,1,0.97
2020-05-16 12:27:57.201 -0400,10268.833970375,0.7813262939453125,0.2437896728515625,-0.009979248046875,1,0.97
2020-05-16 12:27:57.271 -0400,10268.903816375,1.078475952148438,0.2988739013671875,-0.0848388671875,1,0.97
2020-05-16 12:27:57.340 -0400,10268.973663375,1.460494995117188,0.457916259765625,-0.4741363525390625,1,0.97
2020-05-16 12:27:57.410 -0400,10269.043508375,1.630142211914062,0.17401123046875,-0.142547607421875,1,0.97
2020-05-16 12:27:57.480 -0400,10269.113352375,1.314682006835938,0.3321380615234375,-0.33892822265625,1,0.97
2020-05-16 12:27:57.550 -0400,10269.183192375,0.9073486328125,0.5931243896484375,-0.2177581787109375,1,0.97
2020-05-16 12:27:57.620 -0400,10269.253037375,0.792572021484375,0.6159820556640625,-0.182525634765625,1,0.97
2020-05-16 12:27:57.689 -0400,10269.322878375,0.8422088623046875,0.5921783447265625,-0.37823486328125,1,0.97
2020-05-16 12:27:57.759 -0400,10269.392717375,1.309951782226562,0.6047210693359375,-0.5144500732421875,1,0.97
2020-05-16 12:27:57.829 -0400,10269.462556375,1.641265869140625,0.3759307861328125,-0.4811859130859375,1,0.97
2020-05-16 12:27:57.899 -0400,10269.532398375,1.1947021484375,0.4468231201171875,-0.43023681640625,1,0.97
2020-05-16 12:27:57.969 -0400,10269.602239375,1.58551025390625,0.424102783203125,-0.26397705078125,1,0.97
2020-05-16 12:27:58.039 -0400,10269.672080625,1.153671264648438,0.256744384765625,-0.0557098388671875,1,0.97
2020-05-16 12:27:58.108 -0400,10269.741924625,0.69927978515625,0.3017578125,0.0118255615234375,1,0.97
2020-05-16 12:27:58.178 -0400,10269.811769625,0.563873291015625,0.405609130859375,0.073455810546875,1,0.97
2020-05-16 12:27:58.249 -0400,10269.881615625,0.9315338134765625,0.477874755859375,0.0218963623046875,1,0.97
2020-05-16 12:27:58.318 -0400,10269.951457625,1.478134155273438,0.3428192138671875,-0.0269317626953125,1,0.97
2020-05-16 12:27:58.388 -0400,10270.021299625,1.382736206054688,-0.020599365234375,0.062591552734375,1,0.97
2020-05-16 12:27:58.458 -0400,10270.091139625,1.178482055664062,0.4022064208984375,-0.400604248046875,1,0.97
2020-05-16 12:27:58.528 -0400,10270.160973625,0.9838409423828125,0.21630859375,-0.218597412109375,1,0.97
2020-05-16 12:27:58.597 -0400,10270.230812625,0.85552978515625,0.2301025390625,-0.1897430419921875,1,0.97
2020-05-16 12:27:58.667 -0400,10270.300650625,0.6204833984375,0.341796875,-0.228424072265625,1,0.97
2020-05-16 12:27:58.737 -0400,10270.370488625,0.5579071044921875,0.502105712890625,-0.2331390380859375,1,0.97
2020-05-16 12:27:58.807 -0400,10270.440324625,0.693878173828125,0.621490478515625,-0.4532318115234375,1,0.97
2020-05-16 12:27:58.877 -0400,10270.510163625,1.299850463867188,0.4965362548828125,-0.6313934326171875,1,0.97
2020-05-16 12:27:58.947 -0400,10270.580002625,1.64776611328125,0.086639404296875,-0.4857330322265625,1,0.97
2020-05-16 12:27:59.016 -0400,10270.64984025,1.739761352539062,0.391815185546875,-0.490478515625,1,0.97
2020-05-16 12:27:59.086 -0400,10270.71967725,1.270538330078125,0.409820556640625,-0.3892364501953125,1,0.97
2020-05-16 12:27:59.156 -0400,10270.78951325,1.464553833007812,0.3919677734375,-0.1363372802734375,1,0.97
2020-05-16 12:27:59.226 -0400,10270.85935325,0.8497772216796875,0.2516326904296875,0.024810791015625,1,0.97
2020-05-16 12:27:59.296 -0400,10270.92918925,0.40948486328125,0.2995452880859375,0.0329132080078125,1,0.97
2020-05-16 12:27:59.366 -0400,10270.99902625,0.3157501220703125,0.292724609375,0.1183929443359375,1,0.97
2020-05-16 12:27:59.435 -0400,10271.06887025,0.8341217041015625,0.352447509765625,0.072540283203125,1,0.97
2020-05-16 12:27:59.505 -0400,10271.13870925,1.296218872070312,0.3227081298828125,-0.049163818359375,1,0.97
2020-05-16 12:27:59.575 -0400,10271.20854825,1.505950927734375,0.196868896484375,-0.1100616455078125,1,0.97
2020-05-16 12:27:59.645 -0400,10271.27839425,1.485183715820312,0.417236328125,-0.4518585205078125,1,0.97
2020-05-16 12:27:59.715 -0400,10271.34823525,1.295944213867188,0.2222900390625,-0.348968505859375,1,0.97
