loggingTime(txt),accelerometerTimestamp_sinceReboot(s),accelerometerAccelerationX(G),accelerometerAccelerationY(G),accelerometerAccelerationZ(G),batteryState,batteryLevel
2020-05-16 12:53:53.881 -0400,11742.962097875,-0.1710357666015625,-0.3229522705078125,-1.084381103515625,1,0.95
2020-05-16 12:53:53.951 -0400,11743.032071875,-0.105224609375,-0.207305908203125,-1.229248046875,1,0.95
2020-05-16 12:53:54.021 -0400,11743.102045875,-0.1558990478515625,-0.0721893310546875,-1.267074584960938,1,0.95
2020-05-16 12:53:54.091 -0400,11743.172019375,-0.1790618896484375,-0.0814666748046875,-1.050308227539062,1,0.95
2020-05-16 12:53:54.161 -0400,11743.241993375,-0.1600799560546875,-0.0324249267578125,-0.69305419921875,1,0.95
2020-05-16 12:53:54.231 -0400,11743.311967375,0.0786285400390625,-0.1376190185546875,-0.38427734375,1,0.95
2020-05-16 12:53:54.301 -0400,11743.381941375,0.0698699951171875,-0.1445465087890625,-0.43798828125,1,0.95
2020-05-16 12:53:54.371 -0400,11743.451915375,0.2146148681640625,-0.1644744873046875,-0.4792633056640625,1,0.95
2020-05-16 12:53:54.441 -0400,11743.521889375,0.83154296875,0.06817626953125,-0.580047607421875,1,0.95
2020-05-16 12:53:54.511 -0400,11743.591863375,1.62872314453125,0.79266357421875,-0.6855926513671875,1,0.95
2020-05-16 12:53:54.581 -0400,11743.661838375,1.482772827148438,1.007415771484375,-0.5249176025390625,1,0.95
2020-05-16 12:53:54.651 -0400,11743.731812375,1.484954833984375,1.034805297851562,-0.4368743896484375,1,0.95
2020-05-16 12:53:54.721 -0400,11743.801786375,0.9604339599609375,0.6275787353515625,-0.2825927734375,1,0.95
2020-05-16 12:53:54.791 -0400,11743.871760375,0.5622100830078125,0.627655029296875,-0.12738037109375,1,0.95
2020-05-16 12:53:54.911 -0400,11743.991716375,0.6549835205078125,0.501251220703125,-0.1771240234375,1,0.95
2020-05-16 12:53:54.978 -0400,11744.056692375,0.941436767578125,0.47772216796875,-0.343719482421875,1,0.95
2020-05-16 12:53:55.041 -0400,11744.121667375,1.343154907226562,0.5957489013671875,-0.4490509033203125,1,0.95
2020-05-16 12:53:55.109 -0400,11744.186645125,1.151748657226562,0.522430419921875,-0.4295806884765625,1,0.95
2020-05-16 12:53:55.171 -0400,11744.251621125,1.208023071289062,0.41937255859375,-0.3763885498046875,1,0.95
2020-05-16 12:53:55.236 -0400,11744.316597125,1.27001953125,0.2996978759765625,-0.18505859375,1,0.95
2020-05-16 12:53:55.301 -0400,11744.381573125,0.836090087890625,0.310211181640625,-0.215423583984375,1,0.95
2020-05-16 12:53:55.366 -0400,11744.446549125,0.6196441650390625,0.303680419921875,-0.12591552734375,1,0.95
2020-05-16 12:53:55.431 -0400,11744.511525125,0.6200103759765625,0.2837677001953125,-0.136199951171875,1,0.95
2020-05-16 12:53:55.496 -0400,11744.576501125,0.958526611328125,0.3051910400390625,-0.157257080078125,1,0.95
2020-05-16 12:53:55.561 -0400,11744.641477125,1.070144653320312,0.231781005859375,-0.176788330078125,1,0.95
2020-05-16 12:53:55.626 -0400,11744.706453125,1.181381225585938,0.3685760498046875,-0.2465972900390625,1,0.95
2020-05-16 12:53:55.691 -0400,11744.771429125,1.092742919921875,0.4017486572265625,-0.3951568603515625,1,0.95
2020-05-16 12:53:55.756 -0400,11744.836405125,1.26702880859375,0.2953033447265625,-0.360748291015625,1,0.95
2020-05-16 12:53:55.821 -0400,11744.901381125,0.927337646484375,0.287933349609375,-0.3886566162109375,1,0.95
2020-05-16 12:53:55.886 -0400,11744.966357125,0.550567626953125,0.419891357421875,-0.2388916015625,1,0.95
2020-05-16 12:53:55.951 -0400,11745.031333125,0.5004119873046875,0.4108428955078125,-0.271240234375,1,0.95
2020-05-16 12:53:56.015 -0400,11745.096309125,0.7509613037109375,0.41900634765625,-0.2822723388671875,1,0.95
2020-05-16 12:53:56.080 -0400,11745.16128525,0.9702606201171875,0.4500885009765625,-0.423309326171875,1,0.95
2020-05-16 12:53:56.146 -0400,11745.22626125,1.284454345703125,0.4522705078125,-0.4109344482421875,1,0.95
2020-05-16 12:53:56.211 -0400,11745.29123725,1.22991943359375,0.5596160888671875,-0.5504150390625,1,0.95
2020-05-16 12:53:56.276 -0400,11745.35621325,1.416488647460938,0.204315185546875,-0.37109375,1,0.95
2020-05-16 12:53:56.341 -0400,11745.42118925,1.140426635742188,0.2831268310546875,-0.297637939453125,1,0.95
2020-05-16 12:53:56.405 -0400,11745.48616525,0.706634521484375,0.332305908203125,-0.20758056640625,1,0.95
2020-05-16 12:53:56.470 -0400,11745.55114125,0.5965118408203125,0.2438507080078125,-0.1670684814453125,1,0.95
2020-05-16 12:53:56.535 -0400,11745.61611725,0.7402801513671875,0.219757080078125,-0.0974884033203125,1,0.95
2020-05-16 12:53:56.600 -0400,11745.68109325,0.9631805419921875,0.275421142578125,-0.1203155517578125,1,0.95
2020-05-16 12:53:56.665 -0400,11745.74607025,1.027496337890625,0.3323974609375,-0.2151336669921875,1,0.95
2020-05-16 12:53:56.730 -0400,11745.81104625,1.036285400390625,0.3920745849609375,-0.330535888671875,1,0.95
2020-05-16 12:53:56.795 -0400,11745.87602225,1.373870849609375,0.4420928955078125,-0.40252685546875,1,0.95
2020-05-16 12:53:56.860 -0400,11745.94099825,1.043594360351562,0.235870361328125,-0.30181884765625,1,0.95
2020-05-16 12:53:56.925 -0400,11746.00597425,0.5938873291015625,0.3222808837890625,-0.2635040283203125,1,0.95
2020-05-16 12:53:56.990 -0400,11746.07095025,0.43463134765625,0.4322967529296875,-0.2496337890625,1,0.95
2020-05-16 12:53:57.055 -0400,11746.13592625,0.5418243408203125,0.564727783203125,-0.306793212890625,1,0.95
2020-05-16 12:53:57.120 -0400,11746.200902125,1.062026977539062,0.726287841796875,-0.3894805908203125,1,0.95
2020-05-16 12:53:57.185 -0400,11746.265878125,1.664321899414062,0.7327728271484375,-0.4277191162109375,1,0.95
2020-05-16 12:53:57.250 -0400,11746.330854125,1.433639526367188,0.709197998046875,-0.218780517578125,1,0.95
2020-05-16 12:53:57.315 -0400,11746.395830125,1.325180053710938,0.5408935546875,0.1063385009765625,1,0.95
2020-05-16 12:53:57.380 -0400,11746.460806125,0.86181640625,0.4772186279296875,0.2378387451171875,1,0.95
2020-05-16 12:53:57.445 -0400,11746.525782125,0.6349029541015625,0.3694000244140625,-0.00054931640625,1,0.95
2020-05-16 12:53:57.510 -0400,11746.590758125,0.7221221923828125,0.3054656982421875,-0.1137542724609375,1,0.95
2020-05-16 12:53:57.575 -0400,11746.655734125,0.8373870849609375,0.253387451171875,-0.1605072021484375,1,0.95
2020-05-16 12:53:57.640 -0400,11746.720710125,1.190689086914062,0.3433074951171875,-0.198394775390625,1,0.95
2020-05-16 12:53:57.705 -0400,11746.785686125,1.3392333984375,0.412750244140625,-0.2678070068359375,1,0.95
2020-05-16 12:53:57.770 -0400,11746.850662125,0.78009033203125,0.3218994140625,-0.336029052734375,1,0.95
2020-05-16 12:53:57.835 -0400,11746.915638125,1.123550415039062,0.3532867431640625,-0.213165283203125,1,0.95
2020-05-16 12:53:57.900 -0400,11746.980614125,1.056747436523438,0.4012451171875,-0.164947509765625,1,0.95
2020-05-16 12:53:57.965 -0400,11747.045590125,0.816925048828125,0.531585693359375,-0.09930419921875,1,0.95
2020-05-16 12:53:58.030 -0400,11747.110566125,0.6302337646484375,0.3716583251953125,-0.0903167724609375,1,0.95
2020-05-16 12:53:58.095 -0400,11747.175541125,0.6648406982421875,0.39898681640625,-0.198089599609375,1,0.95
2020-05-16 12:53:58.160 -0400,11747.240517125,1.026931762695312,0.3813629150390625,-0.2117919921875,1,0.95
2020-05-16 12:53:58.225 -0400,11747.305493125,1.49908447265625,0.4054412841796875,-0.3287811279296875,1,0.95
2020-05-16 12:53:58.293 -0400,11747.370469125,0.872833251953125,0.5325775146484375,-0.3914794921875,1,0.95
2020-05-16 12:53:58.355 -0400,11747.435445125,1.27484130859375,0.3734893798828125,-0.2319488525390625,1,0.95
2020-05-16 12:53:58.420 -0400,11747.500421125,1.5487060546875,0.17626953125,-0.1086273193359375,1,0.95
2020-05-16 12:53:58.485 -0400,11747.565397125,1.14862060546875,0.401153564453125,-0.0691070556640625,1,0.95
2020-05-16 12:53:58.550 -0400,11747.630373125,0.725860595703125,0.353485107421875,-0.0418243408203125,1,0.95
2020-05-16 12:53:58.614 -0400,11747.695349125,0.565887451171875,0.22802734375,-0.032989501953125,1,0.95
2020-05-16 12:53:58.680 -0400,11747.760324125,0.5311126708984375,0.1999359130859375,-0.0147857666015625,1,0.95
2020-05-16 12:53:58.744 -0400,11747.825300125,0.6471405029296875,0.2660369873046875,-0.02056884765625,1,0.95
2020-05-16 12:53:58.810 -0400,11747.890276125,0.998199462890625,0.3828125,-0.100433349609375,1,0.95
2020-05-16 12:53:58.874 -0400,11747.955252125,1.30328369140625,0.404937744140625,-0.190643310546875,1,0.95
2020-05-16 12:53:58.939 -0400,11748.020228125,1.041946411132812,0.33685302734375,-0.2391357421875,1,0.95
2020-05-16 12:53:59.004 -0400,11748.085204125,1.335006713867188,0.28765869140625,-0.297332763671875,1,0.95
2020-05-16 12:53:59.069 -0400,11748.150181125,1.019790649414062,0.0907440185546875,-0.3179779052734375,1,0.95
2020-05-16 12:53:59.134 -0400,11748.215157125,0.604339599609375,0.4166717529296875,-0.3366851806640625,1,0.95
2020-05-16 12:53:59.199 -0400,11748.280133125,0.347686767578125,0.4326934814453125,-0.2717742919921875,1,0.95
2020-05-16 12:53:59.264 -0400,11748.345109125,0.5412139892578125,0.458740234375,-0.2506103515625,1,0.95
2020-05-16 12:53:59.329 -0400,11748.410085125,0.6994476318359375,0.558502197265625,-0.14794921875,1,0.95
2020-05-16 12:53:59.394 -0400,11748.475061125,1.132431030273438,0.9771270751953125,-0.10540771484375,1,0.95
2020-05-16 12:53:59.459 -0400,11748.540037125,1.628433227539062,0.9441375732421875,-0.3247222900390625,1,0.95
2020-05-16 12:53:59.524 -0400,11748.605013125,1.402587890625,0.4703216552734375,-0.4571685791015625,1,0.95
2020-05-16 12:53:59.589 -0400,11748.669989125,1.361282348632812,0.365203857421875,-0.2896575927734375,1,0.95
2020-05-16 12:53:59.654 -0400,11748.734965125,0.7627105712890625,0.301544189453125,-0.28057861328125,1,0.95
2020-05-16 12:53:59.719 -0400,11748.799941125,0.56182861328125,0.213623046875,-0.2554473876953125,1,0.95
2020-05-16 12:53:59.784 -0400,11748.864917125,0.5423126220703125,0.167510986328125,-0.1804656982421875,1,0.95
2020-05-16 12:53:59.849 -0400,11748.929893125,0.809722900390625,0.3123779296875,-0.1667022705078125,1,0.95
2020-05-16 12:53:59.914 -0400,11748.994868125,1.059494018554688,0.365875244140625,-0.1763153076171875,1,0.95
2020-05-16 12:53:59.979 -0400,11749.059844125,1.081634521484375,0.5150146484375,-0.1419525146484375,1,0.95
2020-05-16 12:54:00.044 -0400,11749.124820125,1.211624145507812,0.596832275390625,-0.2208251953125,1,0.95
2020-05-16 12:54:00.109 -0400,11749.189796,0.9718170166015625,0.5064849853515625,-0.191192626953125,1,0.95
2020-05-16 12:54:00.174 -0400,11749.254772,0.6709747314453125,0.432708740234375,-0.1868896484375,1,0.95
2020-05-16 12:54:00.244 -0400,11749.319748,0.5278778076171875,0.3541412353515625,-0.1073455810546875,1,0.95
2020-05-16 12:54:00.304 -0400,11749.384724,0.755279541015625,0.492156982421875,-0.1404571533203125,1,0.95
2020-05-16 12:54:00.369 -0400,11749.4497,1.13262939453125,0.5989227294921875,-0.247833251953125,1,0.95
2020-05-16 12:54:00.434 -0400,11749.514676,1.6553955078125,0.676666259765625,-0.4319305419921875,1,0.95
2020-05-16 12:54:00.499 -0400,11749.579652,1.25115966796875,0.53363037109375,-0.5676116943359375,1,0.95
2020-05-16 12:54:00.564 -0400,11749.644628,1.250778198242188,0.42877197265625,-0.4583740234375,1,0.95
2020-05-16 12:54:00.629 -0400,11749.709604,1.235702514648438,0.2684173583984375,-0.277679443359375,1,0.95
2020-05-16 12:54:00.694 -0400,11749.774579,0.7578125,0.302337646484375,-0.174835205078125,1,0.95
2020-05-16 12:54:00.759 -0400,11749.839555,0.508392333984375,0.3209228515625,-0.082244873046875,1,0.95
2020-05-16 12:54:00.824 -0400,11749.904531,0.662200927734375,0.2686614990234375,-0.0431671142578125,1,0.95
2020-05-16 12:54:00.889 -0400,11749.969507,1.084579467773438,0.318450927734375,-0.082366943359375,1,0.95
2020-05-16 12:54:00.954 -0400,11750.034483,1.467483520507812,0.3129730224609375,-0.1329498291015625,1,0.95
2020-05-16 12:54:01.019 -0400,11750.099459,1.352325439453125,0.34942626953125,-0.11297607421875,1,0.95
2020-05-16 12:54:01.084 -0400,11750.16443575,1.388824462890625,0.4090118408203125,-0.2839508056640625,1,0.95
2020-05-16 12:54:01.149 -0400,11750.22941175,1.117172241210938,0.0848236083984375,-0.217529296875,1,0.95
2020-05-16 12:54:01.213 -0400,11750.29438775,0.6844024658203125,0.1815948486328125,-0.3254241943359375,1,0.95
2020-05-16 12:54:01.279 -0400,11750.35936275,0.454376220703125,0.3756256103515625,-0.2786102294921875,1,0.95
2020-05-16 12:54:01.343 -0400,11750.42433875,0.54144287109375,0.348114013671875,-0.2949981689453125,1,0.95
2020-05-16 12:54:01.408 -0400,11750.48931475,0.672393798828125,0.2771759033203125,-0.2706451416015625,1,0.95
2020-05-16 12:54:01.473 -0400,11750.55429075,0.8635101318359375,0.35467529296875,-0.33160400390625,1,0.95
2020-05-16 12:54:01.539 -0400,11750.61926675,1.24871826171875,0.381256103515625,-0.3969268798828125,1,0.95
2020-05-16 12:54:01.603 -0400,11750.68424275,1.335235595703125,0.3873748779296875,-0.468292236328125,1,0.95
2020-05-16 12:54:01.669 -0400,11750.74921875,1.17279052734375,0.4491424560546875,-0.4549713134765625,1,0.95
2020-05-16 12:54:01.733 -0400,11750.81419475,0.810638427734375,0.3351287841796875,-0.1937408447265625,1,0.95
2020-05-16 12:54:01.799 -0400,11750.87916975,1.25933837890625,0.4885711669921875,-0.196624755859375,1,0.95
2020-05-16 12:54:01.863 -0400,11750.94414575,1.629623413085938,0.337249755859375,-0.08154296875,1,0.95
2020-05-16 12:54:01.928 -0400,11751.00912175,1.476348876953125,0.3355560302734375,-0.032073974609375,1,0.95
2020-05-16 12:54:01.993 -0400,11751.07409775,1.0029296875,0.395721435546875,-0.0095672607421875,1,0.95
2020-05-16 12:54:02.058 -0400,11751.13907375,0.7093963623046875,0.29180908203125,-0.0225372314453125,1,0.95
2020-05-16 12:54:02.123 -0400,11751.204049875,0.548736572265625,0.230072021484375,-0.10906982421875,1,0.95
2020-05-16 12:54:02.188 -0400,11751.269025875,0.6147308349609375,0.2380218505859375,-0.18450927734375,1,0.95
2020-05-16 12:54:02.253 -0400,11751.334000875,0.8824462890625,0.2430419921875,-0.233856201171875,1,0.95
2020-05-16 12:54:02.318 -0400,11751.398976875,0.952667236328125,0.2717437744140625,-0.2609100341796875,1,0.95
2020-05-16 12:54:02.383 -0400,11751.463952875,1.0648193359375,0.2668914794921875,-0.3603973388671875,1,0.95
2020-05-16 12:54:02.448 -0400,11751.528928875,1.195220947265625,0.1837158203125,-0.261260986328125,1,0.95
2020-05-16 12:54:02.513 -0400,11751.593904875,1.077133178710938,0.26007080078125,-0.2852783203125,1,0.95
2020-05-16 12:54:02.578 -0400,11751.658880875,0.807586669921875,0.43792724609375,-0.290496826171875,1,0.95
2020-05-16 12:54:02.643 -0400,11751.723855875,0.6162109375,0.3467254638671875,-0.2797088623046875,1,0.95
2020-05-16 12:54:02.708 -0400,11751.788831875,0.76324462890625,0.3320465087890625,-0.364959716796875,1,0.95
2020-05-16 12:54:02.773 -0400,11751.853807875,1.088653564453125,0.3735809326171875,-0.457550048828125,1,0.95
2020-05-16 12:54:02.838 -0400,11751.918783875,1.260330200195312,0.3732452392578125,-0.501068115234375,1,0.95
2020-05-16 12:54:02.903 -0400,11751.983759875,1.328109741210938,0.4180145263671875,-0.434234619140625,1,0.95
2020-05-16 12:54:02.968 -0400,11752.048735875,1.236404418945312,0.3823394775390625,-0.35870361328125,1,0.95
2020-05-16 12:54:03.033 -0400,11752.113710875,1.19940185546875,0.2947845458984375,-0.2330780029296875,1,0.95
2020-05-16 12:54:03.098 -0400,11752.1786865,1.203094482421875,0.2533721923828125,-0.087371826171875,1,0.95
2020-05-16 12:54:03.163 -0400,11752.2436625,0.9181060791015625,0.2760162353515625,-0.01873779296875,1,0.95
2020-05-16 12:54:03.228 -0400,11752.3086385,0.712890625,0.3121490478515625,0,1,0.95
2020-05-16 12:54:03.304 -0400,11752.3736145,0.63885498046875,0.2956085205078125,0.0440673828125,1,0.95
2020-05-16 12:54:03.358 -0400,11752.4385905,0.745574951171875,0.236419677734375,0.0384674072265625,1,0.95
2020-05-16 12:54:03.423 -0400,11752.5035655,0.82818603515625,0.2006683349609375,-0.0295257568359375,1,0.95
2020-05-16 12:54:03.488 -0400,11752.5685415,0.8923187255859375,0.2468719482421875,-0.0788726806640625,1,0.95
2020-05-16 12:54:03.553 -0400,11752.6335175,1.178680419921875,0.557586669921875,-0.6676788330078125,1,0.95
2020-05-16 12:54:03.618 -0400,11752.6984935,1.778732299804688,0.1085205078125,-0.715576171875,1,0.95
2020-05-16 12:54:03.683 -0400,11752.7634695,1.0347900390625,-0.1212310791015625,-0.69757080078125,1,0.95
2020-05-16 12:54:03.748 -0400,11752.8284455,0.624481201171875,0.3699951171875,-0.536224365234375,1,0.95
2020-05-16 12:54:03.813 -0400,11752.8934205,0.3181304931640625,1.034896850585938,-0.4375152587890625,1,0.95
2020-05-16 12:54:03.878 -0400,11752.9583965,0.4781646728515625,0.2571563720703125,-0.22125244140625,1,0.95
2020-05-16 12:54:03.943 -0400,11753.0233725,0.7074432373046875,0.838958740234375,-0.10919189453125,1,0.95
2020-05-16 12:54:04.008 -0400,11753.0883485,0.725982666015625,0.7884368896484375,-0.1675567626953125,1,0.95
2020-05-16 12:54:04.072 -0400,11753.153323125,1.165267944335938,1.234695434570312,-0.2758941650390625,1,0.95
2020-05-16 12:54:04.138 -0400,11753.218299125,1.220108032226562,0.787139892578125,-0.310150146484375,1,0.95
2020-05-16 12:54:04.202 -0400,11753.283275125,1.279800415039062,-0.170562744140625,-0.0919189453125,1,0.95
2020-05-16 12:54:04.268 -0400,11753.348251125,1.183074951171875,0.6961822509765625,-0.201934814453125,1,0.95
2020-05-16 12:54:04.332 -0400,11753.413227125,0.7495269775390625,0.1290283203125,-0.1686553955078125,1,0.95
2020-05-16 12:54:04.398 -0400,11753.478203125,0.5115203857421875,0.3138580322265625,-0.1329345703125,1,0.95
2020-05-16 12:54:04.462 -0400,11753.543178125,0.5380859375,0.2630767822265625,-0.1692047119140625,1,0.95
2020-05-16 12:54:04.527 -0400,11753.608154125,0.6895751953125,0.2892608642578125,-0.1955108642578125,1,0.95
2020-05-16 12:54:04.592 -0400,11753.673130125,0.851348876953125,0.3567352294921875,-0.2001190185546875,1,0.95
2020-05-16 12:54:04.657 -0400,11753.738106125,1.074981689453125,0.415679931640625,-0.3152923583984375,1,0.95
2020-05-16 12:54:04.722 -0400,11753.803081125,1.083053588867188,0.45654296875,-0.4462890625,1,0.95
2020-05-16 12:54:04.788 -0400,11753.868057125,1.513092041015625,0.6591033935546875,-0.490386962890625,1,0.95
2020-05-16 12:54:04.852 -0400,11753.933033125,1.247528076171875,0.5129547119140625,-0.219146728515625,1,0.95
2020-05-16 12:54:04.917 -0400,11753.998009125,0.8228302001953125,0.6126251220703125,-0.1744232177734375,1,0.95
2020-05-16 12:54:04.982 -0400,11754.062985125,0.69683837890625,0.389434814453125,-0.1068115234375,1,0.95
2020-05-16 12:54:05.047 -0400,11754.127960125,0.8391571044921875,0.30743408203125,-0.0986328125,1,0.95
2020-05-16 12:54:05.112 -0400,11754.192936125,0.7345428466796875,0.0517730712890625,-0.137542724609375,1,0.95
2020-05-16 12:54:05.177 -0400,11754.257912125,0.6494293212890625,0.165740966796875,-0.3010711669921875,1,0.95
2020-05-16 12:54:05.242 -0400,11754.322888125,0.6949615478515625,0.2129974365234375,-0.2119903564453125,1,0.95
2020-05-16 12:54:05.313 -0400,11754.387863125,0.8813323974609375,0.2020111083984375,-0.2259674072265625,1,0.95
2020-05-16 12:54:05.372 -0400,11754.452839125,1.272430419921875,0.4456634521484375,-0.305206298828125,1,0.95
2020-05-16 12:54:05.437 -0400,11754.517815125,1.242813110351562,0.2858123779296875,-0.26788330078125,1,0.95
2020-05-16 12:54:05.502 -0400,11754.582791125,1.321014404296875,0.31884765625,-0.1197357177734375,1,0.95
2020-05-16 12:54:05.567 -0400,11754.647767125,1.0072021484375,0.3027191162109375,-0.126678466796875,1,0.95
2020-05-16 12:54:05.632 -0400,11754.712742125,0.7050933837890625,0.290069580078125,-0.1350250244140625,1,0.95
2020-05-16 12:54:05.697 -0400,11754.777718125,0.67913818359375,0.246307373046875,-0.2162628173828125,1,0.95
2020-05-16 12:54:05.762 -0400,11754.842694125,0.7843780517578125,0.2032012939453125,-0.1828765869140625,1,0.95
2020-05-16 12:54:05.827 -0400,11754.907670125,0.84747314453125,0.2229766845703125,-0.2103729248046875,1,0.95
2020-05-16 12:54:05.892 -0400,11754.972645125,0.9757843017578125,0.273895263671875,-0.194305419921875,1,0.95
2020-05-16 12:54:05.957 -0400,11755.037621125,0.9479522705078125,0.2796478271484375,-0.1552581787109375,1,0.95
2020-05-16 12:54:06.022 -0400,11755.102597125,1.128555297851562,0.3578948974609375,-0.190643310546875,1,0.95
2020-05-16 12:54:06.087 -0400,11755.16757329167,1.518035888671875,0.4025421142578125,-0.3392333984375,1,0.95
2020-05-16 12:54:06.152 -0400,11755.23254829167,1.6807861328125,0.6215972900390625,-0.322998046875,1,0.95
2020-05-16 12:54:06.217 -0400,11755.29752429167,0.8260955810546875,0.638427734375,-0.21832275390625,1,0.95
2020-05-16 12:54:06.281 -0400,11755.36250029167,0.672149658203125,0.340576171875,-0.29754638671875,1,0.95
2020-05-16 12:54:06.347 -0400,11755.42747629167,0.4766387939453125,0.2725677490234375,-0.153778076171875,1,0.95
2020-05-16 12:54:06.412 -0400,11755.49245129167,0.524261474609375,0.2033843994140625,-0.1613006591796875,1,0.95
2020-05-16 12:54:06.477 -0400,11755.55742729167,0.6119842529296875,0.280181884765625,-0.3209075927734375,1,0.95
2020-05-16 12:54:06.541 -0400,11755.62240329167,0.660400390625,0.243988037109375,-0.6092529296875,1,0.95
2020-05-16 12:54:06.607 -0400,11755.68737929167,0.6604766845703125,0.3777008056640625,-0.6918182373046875,1,0.95
2020-05-16 12:54:06.671 -0400,11755.75235429167,0.69183349609375,0.6337432861328125,-0.532989501953125,1,0.95
2020-05-16 12:54:06.737 -0400,11755.81733029167,0.7352294921875,0.926727294921875,-0.3055877685546875,1,0.95
2020-05-16 12:54:06.801 -0400,11755.88230629167,1.76239013671875,0.99517822265625,-0.054595947265625,1,0.95
2020-05-16 12:54:06.867 -0400,11755.94728229167,1.3375244140625,0.44744873046875,-0.2068939208984375,1,0.95
2020-05-16 12:54:06.931 -0400,11756.01225729167,1.192001342773438,0.485260009765625,-0.1506805419921875,1,0.95
2020-05-16 12:54:06.996 -0400,11756.07723329167,0.9925537109375,0.4078216552734375,-0.0408172607421875,1,0.95
2020-05-16 12:54:07.061 -0400,11756.14220929167,0.667938232421875,0.307769775390625,-0.0685272216796875,1,0.95
2020-05-16 12:54:07.126 -0400,11756.20718391667,0.56658935546875,0.308685302734375,-0.1631317138671875,1,0.95
2020-05-16 12:54:07.191 -0400,11756.27215991667,0.6256866455078125,0.3405609130859375,-0.2768402099609375,1,0.95
2020-05-16 12:54:07.256 -0400,11756.33713591667,0.76898193359375,0.1863861083984375,-0.3536834716796875,1,0.95
2020-05-16 12:54:07.323 -0400,11756.40211191667,1.098968505859375,0.1385040283203125,-0.2612762451171875,1,0.95
2020-05-16 12:54:07.386 -0400,11756.46708691667,1.553298950195312,0.278289794921875,-0.3200531005859375,1,0.95
2020-05-16 12:54:07.451 -0400,11756.53206291667,1.51885986328125,0.341156005859375,-0.1201019287109375,1,0.95
2020-05-16 12:54:07.516 -0400,11756.59703891667,1.164138793945312,0.43304443359375,-0.2940216064453125,1,0.95
2020-05-16 12:54:07.581 -0400,11756.66201491667,1.029266357421875,0.430206298828125,-0.33245849609375,1,0.95
2020-05-16 12:54:07.646 -0400,11756.72698991667,0.8616180419921875,0.305572509765625,-0.287750244140625,1,0.95
2020-05-16 12:54:07.711 -0400,11756.79196591667,0.5709686279296875,0.3137969970703125,-0.286529541015625,1,0.95
2020-05-16 12:54:07.776 -0400,11756.85694191667,0.4046630859375,0.3390350341796875,-0.2163543701171875,1,0.95
2020-05-16 12:54:07.841 -0400,11756.92191691667,0.4695281982421875,0.333770751953125,-0.3274078369140625,1,0.95
2020-05-16 12:54:07.906 -0400,11756.98689291667,0.6134796142578125,0.2737579345703125,-0.3472137451171875,1,0.95
2020-05-16 12:54:07.971 -0400,11757.05186891667,0.92034912109375,0.2496795654296875,-0.5166778564453125,1,0.95
2020-05-16 12:54:08.036 -0400,11757.11684491667,1.21075439453125,0.365234375,-0.510406494140625,1,0.95
2020-05-16 12:54:08.101 -0400,11757.18182016667,1.243499755859375,0.331939697265625,-0.3937225341796875,1,0.95
2020-05-16 12:54:08.166 -0400,11757.24679616667,1.503829956054688,0.329986572265625,-0.3597412109375,1,0.95
2020-05-16 12:54:08.231 -0400,11757.31177216667,1.367263793945312,0.3433990478515625,-0.1857147216796875,1,0.95
2020-05-16 12:54:08.296 -0400,11757.37674716667,1.29986572265625,0.044281005859375,-0.14715576171875,1,0.95
2020-05-16 12:54:08.361 -0400,11757.44172316667,0.9797210693359375,0.284637451171875,-0.0931243896484375,1,0.95
2020-05-16 12:54:08.426 -0400,11757.50669916667,0.5537567138671875,0.3323974609375,-0.244903564453125,1,0.95
2020-05-16 12:54:08.491 -0400,11757.57167516667,0.3427886962890625,0.2586517333984375,-0.207000732421875,1,0.95
2020-05-16 12:54:08.556 -0400,11757.63665016667,0.416107177734375,0.1854705810546875,-0.1505889892578125,1,0.95
2020-05-16 12:54:08.621 -0400,11757.70162616667,0.6661834716796875,0.2697906494140625,-0.138641357421875,1,0.95
2020-05-16 12:54:08.686 -0400,11757.76660216667,1.074188232421875,0.403167724609375,-0.1739349365234375,1,0.95
2020-05-16 12:54:08.751 -0400,11757.83157716667,1.601028442382812,0.55255126953125,-0.3315277099609375,1,0.95
2020-05-16 12:54:08.816 -0400,11757.89655316667,1.66156005859375,0.326171875,-0.1630096435546875,1,0.95
2020-05-16 12:54:08.881 -0400,11757.96152916667,1.205429077148438,0.22686767578125,-0.36297607421875,1,0.95
2020-05-16 12:54:08.946 -0400,11758.02650416667,1.013015747070312,0.133819580078125,-0.1952972412109375,1,0.95
2020-05-16 12:54:09.011 -0400,11758.09148016667,0.6856536865234375,0.262054443359375,-0.158233642578125,1,0.95
2020-05-16 12:54:09.076 -0400,11758.156456625,0.409698486328125,0.2879638671875,-0.294158935546875,1,0.95
2020-05-16 12:54:09.140 -0400,11758.221432625,0.4003143310546875,0.175048828125,-0.1894378662109375,1,0.95
2020-05-16 12:54:09.206 -0400,11758.286407625,0.561492919921875,0.2481231689453125,-0.0942535400390625,1,0.95
2020-05-16 12:54:09.273 -0400,11758.351383625,0.863494873046875,0.3580169677734375,-0.27606201171875,1,0.95
2020-05-16 12:54:09.336 -0400,11758.416359625,1.036834716796875,0.4619293212890625,-0.424041748046875,1,0.95
2020-05-16 12:54:09.400 -0400,11758.481334625,1.33355712890625,0.3304290771484375,-0.354217529296875,1,0.95
2020-05-16 12:54:09.466 -0400,11758.546310625,1.737930297851562,0.351806640625,-0.655487060546875,1,0.95
2020-05-16 12:54:09.530 -0400,11758.611286625,1.179580688476562,0.309234619140625,-0.574615478515625,1,0.95
2020-05-16 12:54:09.596 -0400,11758.676261625,1.38031005859375,0.19488525390625,-0.3711700439453125,1,0.95
2020-05-16 12:54:09.660 -0400,11758.741237625,0.924591064453125,0.214385986328125,-0.2856597900390625,1,0.95
2020-05-16 12:54:09.726 -0400,11758.806213625,0.518798828125,0.237762451171875,-0.2284088134765625,1,0.95
2020-05-16 12:54:09.790 -0400,11758.871188625,0.423370361328125,0.3157501220703125,-0.101837158203125,1,0.95
2020-05-16 12:54:09.855 -0400,11758.936164625,0.54193115234375,0.3172607421875,-0.0410308837890625,1,0.95
2020-05-16 12:54:09.920 -0400,11759.001140625,0.93927001953125,0.25775146484375,-0.1376495361328125,1,0.95
2020-05-16 12:54:09.985 -0400,11759.066115625,1.33203125,0.361968994140625,-0.0843353271484375,1,0.95
2020-05-16 12:54:10.050 -0400,11759.131091625,1.26556396484375,0.516204833984375,-0.0769195556640625,1,0.95
2020-05-16 12:54:10.115 -0400,11759.1960675,1.205276489257812,0.340423583984375,-0.4638824462890625,1,0.95
2020-05-16 12:54:10.180 -0400,11759.2610425,1.1795654296875,0.127227783203125,-0.3114776611328125,1,0.94
2020-05-16 12:54:10.245 -0400,11759.3260185,0.9647674560546875,-0.285888671875,-0.3806915283203125,1,0.94
2020-05-16 12:54:10.310 -0400,11759.3909945,0.532623291015625,0.521453857421875,-0.1985626220703125,1,0.94
2020-05-16 12:54:10.375 -0400,11759.4559695,0.3581085205078125,0.3025054931640625,-0.17889404296875,1,0.94
2020-05-16 12:54:10.440 -0400,11759.5209455,0.44793701171875,0.4990692138671875,-0.1455078125,1,0.94
2020-05-16 12:54:10.505 -0400,11759.5859215,0.754974365234375,0.544830322265625,-0.1939849853515625,1,0.94
2020-05-16 12:54:10.570 -0400,11759.6508965,1.3092041015625,0.6215362548828125,-0.310302734375,1,0.94
2020-05-16 12:54:10.635 -0400,11759.7158725,1.5673828125,0.63739013671875,-0.3098602294921875,1,0.94
2020-05-16 12:54:10.700 -0400,11759.7808485,1.178237915039062,0.516204833984375,-0.34088134765625,1,0.94
2020-05-16 12:54:10.765 -0400,11759.8458235,1.484146118164062,0.435333251953125,-0.137237548828125,1,0.94
2020-05-16 12:54:10.830 -0400,11759.9107995,1.3057861328125,0.454376220703125,-0.1252288818359375,1,0.94
2020-05-16 12:54:10.895 -0400,11759.9757755,0.89373779296875,0.34588623046875,-0.040679931640625,1,0.94
2020-05-16 12:54:10.960 -0400,11760.0407505,0.672271728515625,0.36895751953125,0.0521392822265625,1,0.94
2020-05-16 12:54:11.025 -0400,11760.1057265,0.7733612060546875,0.364349365234375,0.070892333984375,1,0.94
2020-05-16 12:54:11.090 -0400,11760.170702,1.108810424804688,0.35125732421875,0.0149078369140625,1,0.94
2020-05-16 12:54:11.155 -0400,11760.235677,1.233688354492188,0.33319091796875,-0.092529296875,1,0.94
2020-05-16 12:54:11.220 -0400,11760.300653,1.116165161132812,0.218414306640625,-0.2043304443359375,1,0.94
2020-05-16 12:54:11.285 -0400,11760.365629,0.947021484375,0.189239501953125,-0.50286865234375,1,0.94
2020-05-16 12:54:11.350 -0400,11760.430604,1.005950927734375,0.13671875,-0.52288818359375,1,0.94
2020-05-16 12:54:11.415 -0400,11760.49558,0.9089202880859375,0.1274261474609375,-0.4794769287109375,1,0.94
2020-05-16 12:54:11.480 -0400,11760.560556,0.540008544921875,0.2304534912109375,-0.490570068359375,1,0.94
2020-05-16 12:54:11.545 -0400,11760.625531,0.390472412109375,0.34808349609375,-0.40118408203125,1,0.94
2020-05-16 12:54:11.610 -0400,11760.690507,0.572052001953125,0.3425140380859375,-0.41473388671875,1,0.94
2020-05-16 12:54:11.675 -0400,11760.755483,0.9235076904296875,0.31732177734375,-0.4103546142578125,1,0.94
2020-05-16 12:54:11.740 -0400,11760.820458,1.0985107421875,0.38995361328125,-0.4427337646484375,1,0.94
2020-05-16 12:54:11.805 -0400,11760.885434,1.467926025390625,0.536163330078125,-0.3980712890625,1,0.94
2020-05-16 12:54:11.869 -0400,11760.95041,1.309722900390625,0.502166748046875,-0.3260955810546875,1,0.94
2020-05-16 12:54:11.935 -0400,11761.015385,1.091461181640625,0.3841400146484375,-0.2227630615234375,1,0.94
2020-05-16 12:54:11.999 -0400,11761.080361,1.0660400390625,0.297515869140625,-0.060028076171875,1,0.94
2020-05-16 12:54:12.065 -0400,11761.145336,0.7819976806640625,0.295928955078125,0.0007171630859375,1,0.94
2020-05-16 12:54:12.129 -0400,11761.210312625,0.6877899169921875,0.3980712890625,0.092193603515625,1,0.94
2020-05-16 12:54:12.195 -0400,11761.275288625,0.758575439453125,0.446929931640625,0.094573974609375,1,0.94
2020-05-16 12:54:12.259 -0400,11761.340263625,1.139862060546875,0.3464813232421875,0.0914306640625,1,0.94
2020-05-16 12:54:12.325 -0400,11761.405239625,1.160919189453125,0.2288055419921875,-0.1262664794921875,1,0.94
2020-05-16 12:54:12.389 -0400,11761.470215625,1.103073120117188,0.259002685546875,-0.3152923583984375,1,0.94
2020-05-16 12:54:12.454 -0400,11761.535190625,0.8951873779296875,0.219146728515625,-0.4690093994140625,1,0.94
2020-05-16 12:54:12.519 -0400,11761.600166625,0.811737060546875,0.3226470947265625,-0.586944580078125,1,0.94
2020-05-16 12:54:12.584 -0400,11761.665142625,1.02093505859375,0.2320709228515625,-0.5766754150390625,1,0.94
2020-05-16 12:54:12.649 -0400,11761.730117625,0.7221527099609375,0.23223876953125,-0.513702392578125,1,0.94
2020-05-16 12:54:12.714 -0400,11761.795093625,0.48748779296875,0.35595703125,-0.306671142578125,1,0.94
2020-05-16 12:54:12.779 -0400,11761.860069625,0.60821533203125,0.437225341796875,-0.2479705810546875,1,0.94
2020-05-16 12:54:12.844 -0400,11761.925044625,0.820526123046875,0.432525634765625,-0.25830078125,1,0.94
2020-05-16 12:54:12.909 -0400,11761.990020625,0.9390869140625,0.36627197265625,-0.318084716796875,1,0.94
2020-05-16 12:54:12.974 -0400,11762.054995625,0.9793701171875,0.2792510986328125,-0.3990325927734375,1,0.94
2020-05-16 12:54:13.039 -0400,11762.119971625,1.072555541992188,0.2653961181640625,-0.37017822265625,1,0.94
2020-05-16 12:54:13.104 -0400,11762.18494716667,1.189727783203125,0.360870361328125,-0.356048583984375,1,0.94
2020-05-16 12:54:13.169 -0400,11762.24992216667,1.610015869140625,0.4866180419921875,-0.4013824462890625,1,0.94
2020-05-16 12:54:13.234 -0400,11762.31489816667,1.201278686523438,0.1832275390625,-0.100830078125,1,0.94
2020-05-16 12:54:13.299 -0400,11762.37987416667,1.12860107421875,0.216217041015625,-0.1835479736328125,1,0.94
2020-05-16 12:54:13.364 -0400,11762.44484916667,0.8621673583984375,-0.3121337890625,0.000152587890625,1,0.94
2020-05-16 12:54:13.429 -0400,11762.50982516667,0.58807373046875,0.1104278564453125,-0.0703582763671875,1,0.94
2020-05-16 12:54:13.494 -0400,11762.57480016667,0.526275634765625,0.33172607421875,-0.00634765625,1,0.94
2020-05-16 12:54:13.560 -0400,11762.63977616667,0.6356658935546875,0.2406463623046875,-0.0554046630859375,1,0.94
2020-05-16 12:54:13.624 -0400,11762.70475216667,0.7003326416015625,0.209442138671875,-0.0880889892578125,1,0.94
2020-05-16 12:54:13.689 -0400,11762.76972716667,0.773040771484375,0.303375244140625,-0.0951080322265625,1,0.94
2020-05-16 12:54:13.754 -0400,11762.83470316667,0.972503662109375,0.327880859375,-0.1242523193359375,1,0.94
2020-05-16 12:54:13.819 -0400,11762.89967916667,1.444198608398438,0.421417236328125,-0.238800048828125,1,0.94
2020-05-16 12:54:13.884 -0400,11762.96465416667,1.277740478515625,0.4478759765625,-0.3896331787109375,1,0.94
2020-05-16 12:54:13.949 -0400,11763.02963016667,1.231903076171875,0.71771240234375,-0.284210205078125,1,0.94
2020-05-16 12:54:14.014 -0400,11763.09460516667,0.56884765625,0.355438232421875,-0.2556304931640625,1,0.94
2020-05-16 12:54:14.079 -0400,11763.1595815,0.336090087890625,0.4183807373046875,-0.1250762939453125,1,0.94
2020-05-16 12:54:14.144 -0400,11763.2245575,0.5497589111328125,0.45709228515625,-0.142181396484375,1,0.94
2020-05-16 12:54:14.209 -0400,11763.2895325,1.073501586914062,0.41485595703125,-0.177734375,1,0.94
2020-05-16 12:54:14.284 -0400,11763.3545085,0.95477294921875,0.3036956787109375,-0.1739349365234375,1,0.94
2020-05-16 12:54:14.339 -0400,11763.4194835,1.136734008789062,0.4073944091796875,-0.1695404052734375,1,0.94
2020-05-16 12:54:14.404 -0400,11763.4844595,2.018325805664062,0.4710235595703125,-0.1328582763671875,1,0.94
2020-05-16 12:54:14.468 -0400,11763.5494355,1.297576904296875,0.3235015869140625,-0.193450927734375,1,0.94
2020-05-16 12:54:14.534 -0400,11763.6144105,1.297714233398438,0.4882965087890625,-0.1933135986328125,1,0.94
2020-05-16 12:54:14.598 -0400,11763.6793865,0.9148406982421875,0.2178802490234375,-0.0458984375,1,0.94
2020-05-16 12:54:14.664 -0400,11763.7443625,0.535308837890625,0.16705322265625,-0.01116943359375,1,0.94
2020-05-16 12:54:14.728 -0400,11763.8093375,0.4383697509765625,0.249420166015625,-0.0118408203125,1,0.94
2020-05-16 12:54:14.794 -0400,11763.8743135,0.575439453125,0.267791748046875,0.0086517333984375,1,0.94
2020-05-16 12:54:14.858 -0400,11763.9392885,0.6694183349609375,0.3286285400390625,0.0149688720703125,1,0.94
2020-05-16 12:54:14.924 -0400,11764.0042645,0.8559722900390625,0.374542236328125,-0.0597991943359375,1,0.94
2020-05-16 12:54:14.988 -0400,11764.0692405,0.9753265380859375,0.404693603515625,-0.043731689453125,1,0.94
2020-05-16 12:54:15.053 -0400,11764.1342155,0.982269287109375,0.3706817626953125,-0.166534423828125,1,0.94
2020-05-16 12:54:15.118 -0400,11764.19919075,1.013214111328125,0.2874603271484375,-0.19146728515625,1,0.94
2020-05-16 12:54:15.183 -0400,11764.26416575,1.571090698242188,0.4300079345703125,-0.2513885498046875,1,0.94
2020-05-16 12:54:15.248 -0400,11764.32914175,1.078323364257812,0.52276611328125,-0.6442718505859375,1,0.94
2020-05-16 12:54:15.313 -0400,11764.39411775,0.7112274169921875,0.492523193359375,-0.3689727783203125,1,0.94
2020-05-16 12:54:15.378 -0400,11764.45909275,0.4219512939453125,0.3123321533203125,-0.4220428466796875,1,0.94
2020-05-16 12:54:15.443 -0400,11764.52406875,0.2997283935546875,0.563934326171875,-0.4119415283203125,1,0.94
2020-05-16 12:54:15.508 -0400,11764.58904375,0.66387939453125,0.676422119140625,-0.3668365478515625,1,0.94
2020-05-16 12:54:15.573 -0400,11764.65401975,1.219482421875,0.4473724365234375,-0.32159423828125,1,0.94
2020-05-16 12:54:15.638 -0400,11764.71899575,1.804733276367188,0.4101715087890625,-0.3001708984375,1,0.94
2020-05-16 12:54:15.703 -0400,11764.78397075,1.6639404296875,0.4774627685546875,-0.2544708251953125,1,0.94
2020-05-16 12:54:15.768 -0400,11764.84894675,1.60650634765625,0.460662841796875,-0.1315460205078125,1,0.94
2020-05-16 12:54:15.833 -0400,11764.91392175,1.147857666015625,0.3284149169921875,-0.177764892578125,1,0.94
2020-05-16 12:54:15.898 -0400,11764.97889775,0.7395477294921875,0.25238037109375,-0.0601806640625,1,0.94
2020-05-16 12:54:15.963 -0400,11765.04387375,0.5963134765625,0.1868743896484375,-0.02410888671875,1,0.94
2020-05-16 12:54:16.028 -0400,11765.10884875,0.5486602783203125,0.1680755615234375,-0.02166748046875,1,0.94
2020-05-16 12:54:16.093 -0400,11765.17382529167,0.708038330078125,0.1803741455078125,0.01318359375,1,0.94
2020-05-16 12:54:16.158 -0400,11765.23880029167,0.64874267578125,0.30670166015625,-0.1397552490234375,1,0.94
2020-05-16 12:54:16.223 -0400,11765.30377629167,1.14215087890625,0.436553955078125,-0.1802520751953125,1,0.94
2020-05-16 12:54:16.295 -0400,11765.36875229167,1.06103515625,0.5707550048828125,-0.4068603515625,1,0.94
2020-05-16 12:54:16.353 -0400,11765.43372729167,1.443267822265625,0.7030487060546875,-0.6696014404296875,1,0.94
2020-05-16 12:54:16.418 -0400,11765.49870329167,0.9925384521484375,-0.0338897705078125,-0.4391326904296875,1,0.94
2020-05-16 12:54:16.483 -0400,11765.56367829167,0.546875,0.2279052734375,-0.312255859375,1,0.94
2020-05-16 12:54:16.548 -0400,11765.62865429167,0.543792724609375,0.5518951416015625,-0.149749755859375,1,0.94
2020-05-16 12:54:16.613 -0400,11765.69363029167,0.5778350830078125,0.6272430419921875,-0.16864013671875,1,0.94
2020-05-16 12:54:16.678 -0400,11765.75860529167,0.688812255859375,0.6341705322265625,-0.2335357666015625,1,0.94
2020-05-16 12:54:16.743 -0400,11765.82358129167,0.785369873046875,0.5796051025390625,-0.1968841552734375,1,0.94
2020-05-16 12:54:16.808 -0400,11765.88855629167,2.176544189453125,0.9307403564453125,-0.3795928955078125,1,0.94
2020-05-16 12:54:16.873 -0400,11765.95353229167,2.045974731445312,0.4199371337890625,-0.357452392578125,1,0.94
2020-05-16 12:54:16.938 -0400,11766.01850829167,1.69134521484375,0.3972015380859375,-0.376708984375,1,0.94
2020-05-16 12:54:17.003 -0400,11766.08348329167,0.819244384765625,0.22186279296875,-0.27166748046875,1,0.94
2020-05-16 12:54:17.068 -0400,11766.14845929167,0.4519195556640625,0.1049652099609375,-0.2002410888671875,1,0.94
2020-05-16 12:54:17.133 -0400,11766.21343429167,0.3674163818359375,0.05810546875,-0.1187286376953125,1,0.94
2020-05-16 12:54:17.197 -0400,11766.27841029167,0.4259490966796875,0.1314544677734375,-0.162353515625,1,0.94
2020-05-16 12:54:17.263 -0400,11766.34338629167,0.8169097900390625,0.5598602294921875,-0.2689056396484375,1,0.94
2020-05-16 12:54:17.328 -0400,11766.40836129167,1.222274780273438,0.721282958984375,-0.4635009765625,1,0.94
2020-05-16 12:54:17.393 -0400,11766.47333729167,1.428909301757812,0.6544952392578125,-0.7089385986328125,1,0.94
2020-05-16 12:54:17.457 -0400,11766.53831229167,0.983123779296875,0.57122802734375,-0.119232177734375,1,0.94
2020-05-16 12:54:17.523 -0400,11766.60328829167,0.7476806640625,0.3238372802734375,-0.186279296875,1,0.94
2020-05-16 12:54:17.587 -0400,11766.66826329167,0.86212158203125,0.5001983642578125,-0.09521484375,1,0.94
2020-05-16 12:54:17.652 -0400,11766.73323929167,0.8810272216796875,0.528076171875,-0.0643463134765625,1,0.94
2020-05-16 12:54:17.717 -0400,11766.79821529167,0.645233154296875,0.4684600830078125,-0.13214111328125,1,0.94
2020-05-16 12:54:17.782 -0400,11766.86319029167,0.6922454833984375,0.4139862060546875,-0.2845611572265625,1,0.94
2020-05-16 12:54:17.847 -0400,11766.92816629167,0.6335906982421875,0.2349395751953125,-0.307464599609375,1,0.94
2020-05-16 12:54:17.912 -0400,11766.99314129167,0.709930419921875,0.5115509033203125,-0.3451080322265625,1,0.94
2020-05-16 12:54:17.977 -0400,11767.05811729167,1.895904541015625,0.299591064453125,-0.438507080078125,1,0.94
2020-05-16 12:54:18.042 -0400,11767.12309329167,1.44964599609375,0.524169921875,-0.5934600830078125,1,0.94
2020-05-16 12:54:18.107 -0400,11767.188068375,1.17730712890625,0.291900634765625,-0.314239501953125,1,0.94
2020-05-16 12:54:18.172 -0400,11767.253044375,0.732208251953125,0.483428955078125,-0.1605987548828125,1,0.94
2020-05-16 12:54:18.237 -0400,11767.318019375,0.7106170654296875,0.490966796875,-0.0287017822265625,1,0.94
2020-05-16 12:54:18.304 -0400,11767.382995375,0.903594970703125,0.534698486328125,-0.02044677734375,1,0.94
2020-05-16 12:54:18.367 -0400,11767.447970375,0.7533416748046875,0.41668701171875,0.0789642333984375,1,0.94
2020-05-16 12:54:18.432 -0400,11767.512946375,0.555419921875,0.3445281982421875,-0.0379638671875,1,0.94
2020-05-16 12:54:18.497 -0400,11767.577922375,0.4385986328125,0.18994140625,0.045928955078125,1,0.94
2020-05-16 12:54:18.562 -0400,11767.642897375,1.458877563476562,0.26129150390625,-0.0340728759765625,1,0.94
2020-05-16 12:54:18.627 -0400,11767.707873375,1.48370361328125,0.3121337890625,-0.48388671875,1,0.94
2020-05-16 12:54:18.692 -0400,11767.772848375,1.376678466796875,0.228973388671875,-0.5123748779296875,1,0.94
2020-05-16 12:54:18.757 -0400,11767.837824375,1.337020874023438,0.2750091552734375,-0.428253173828125,1,0.94
2020-05-16 12:54:18.822 -0400,11767.902800375,0.93524169921875,0.3091583251953125,-0.2707977294921875,1,0.94
2020-05-16 12:54:18.887 -0400,11767.967775375,0.600494384765625,0.41485595703125,-0.2063446044921875,1,0.94
2020-05-16 12:54:18.952 -0400,11768.032751375,0.55474853515625,0.4764862060546875,-0.1698455810546875,1,0.94
2020-05-16 12:54:19.017 -0400,11768.097726375,1.012908935546875,0.673126220703125,-0.3360595703125,1,0.94
2020-05-16 12:54:19.082 -0400,11768.162702375,1.840499877929688,0.3282318115234375,0.088409423828125,1,0.94
2020-05-16 12:54:19.147 -0400,11768.227677,1.477020263671875,0.590301513671875,-0.1877593994140625,1,0.94
2020-05-16 12:54:19.212 -0400,11768.292653,1.090484619140625,0.3472747802734375,0.002166748046875,1,0.94
2020-05-16 12:54:19.290 -0400,11768.357629,0.8408203125,0.2196044921875,0.0237274169921875,1,0.94
2020-05-16 12:54:19.342 -0400,11768.422604,0.687255859375,0.2593231201171875,0.0774993896484375,1,0.94
2020-05-16 12:54:19.407 -0400,11768.48758,0.5503692626953125,0.2010650634765625,0.0058135986328125,1,0.94
2020-05-16 12:54:19.472 -0400,11768.552555,0.9400482177734375,0.2156982421875,0.0877532958984375,1,0.94
2020-05-16 12:54:19.537 -0400,11768.617531,1.5782470703125,0.401519775390625,-0.105560302734375,1,0.94
2020-05-16 12:54:19.602 -0400,11768.682506,1.400619506835938,0.3372955322265625,-0.7763519287109375,1,0.94
2020-05-16 12:54:19.667 -0400,11768.747482,0.920318603515625,0.1097869873046875,-0.2557525634765625,1,0.94
2020-05-16 12:54:19.732 -0400,11768.812458,0.466949462890625,0.1992034912109375,-0.4730072021484375,1,0.94
2020-05-16 12:54:19.797 -0400,11768.877433,0.48736572265625,0.487945556640625,-0.4659271240234375,1,0.94
2020-05-16 12:54:19.862 -0400,11768.942409,0.7787933349609375,0.51251220703125,-0.51922607421875,1,0.94
2020-05-16 12:54:19.926 -0400,11769.007384,0.7913360595703125,0.54290771484375,-0.3654632568359375,1,0.94
2020-05-16 12:54:19.992 -0400,11769.07236,0.6318817138671875,0.58154296875,-0.5177154541015625,1,0.94
2020-05-16 12:54:20.056 -0400,11769.137335,0.6674346923828125,0.5574188232421875,-0.397125244140625,1,0.94
2020-05-16 12:54:20.122 -0400,11769.20231091667,1.369705200195312,0.39141845703125,-0.779937744140625,1,0.94
2020-05-16 12:54:20.187 -0400,11769.26728591667,1.295578002929688,0.57403564453125,-0.2861480712890625,1,0.94
2020-05-16 12:54:20.252 -0400,11769.33226191667,1.229049682617188,0.4472503662109375,-0.4133148193359375,1,0.94
2020-05-16 12:54:20.316 -0400,11769.39723791667,0.855987548828125,0.2532958984375,-0.3432464599609375,1,0.94
2020-05-16 12:54:20.382 -0400,11769.46221291667,0.5887451171875,0.23651123046875,-0.3072357177734375,1,0.94
2020-05-16 12:54:20.446 -0400,11769.52718891667,0.503326416015625,0.2113494873046875,-0.2122802734375,1,0.94
2020-05-16 12:54:20.512 -0400,11769.59216391667,0.8260040283203125,0.157867431640625,-0.168548583984375,1,0.94
2020-05-16 12:54:20.576 -0400,11769.65713991667,1.045623779296875,0.1794281005859375,-0.0121612548828125,1,0.94
2020-05-16 12:54:20.641 -0400,11769.72211491667,1.372177124023438,0.80096435546875,-0.2541046142578125,1,0.94
2020-05-16 12:54:20.706 -0400,11769.78709091667,1.336456298828125,0.6592864990234375,-0.5240631103515625,1,0.94
2020-05-16 12:54:20.771 -0400,11769.85206591667,1.058151245117188,0.5189666748046875,-0.530487060546875,1,0.94
2020-05-16 12:54:20.836 -0400,11769.91704191667,0.62762451171875,0.493377685546875,-0.471923828125,1,0.94
2020-05-16 12:54:20.901 -0400,11769.98201791667,0.540618896484375,0.6100616455078125,-0.3780059814453125,1,0.94
2020-05-16 12:54:20.966 -0400,11770.04699291667,0.988250732421875,0.8527984619140625,-0.4353790283203125,1,0.94
2020-05-16 12:54:21.031 -0400,11770.11196891667,1.45843505859375,0.577789306640625,-0.313690185546875,1,0.94
2020-05-16 12:54:21.096 -0400,11770.176944125,1.286392211914062,0.511688232421875,-0.44427490234375,1,0.94
2020-05-16 12:54:21.161 -0400,11770.241920125,1.6226806640625,0.6530609130859375,-0.635498046875,1,0.94
2020-05-16 12:54:21.226 -0400,11770.306895125,1.80902099609375,0.274261474609375,-0.2317352294921875,1,0.94
2020-05-16 12:54:21.291 -0400,11770.371871125,1.76751708984375,0.097442626953125,-0.2030029296875,1,0.94
2020-05-16 12:54:21.356 -0400,11770.436847125,1.028579711914062,0.2845916748046875,-0.031341552734375,1,0.94
2020-05-16 12:54:21.421 -0400,11770.501822125,0.28985595703125,0.2017364501953125,-0.0347137451171875,1,0.94
2020-05-16 12:54:21.486 -0400,11770.566798125,0.1029510498046875,0.157928466796875,-0.043243408203125,1,0.94
2020-05-16 12:54:21.551 -0400,11770.631773125,0.1396026611328125,0.1779327392578125,-0.1327056884765625,1,0.94
2020-05-16 12:54:21.616 -0400,11770.696749125,0.288848876953125,0.149261474609375,-0.1996917724609375,1,0.94
2020-05-16 12:54:21.681 -0400,11770.761724125,0.9892425537109375,0.2537994384765625,-0.3622283935546875,1,0.94
2020-05-16 12:54:21.746 -0400,11770.826700125,1.67266845703125,0.3351593017578125,-0.288482666015625,1,0.94
2020-05-16 12:54:21.811 -0400,11770.891675125,2.170028686523438,0.46551513671875,-0.4350128173828125,1,0.94
2020-05-16 12:54:21.876 -0400,11770.956651125,1.526870727539062,0.568206787109375,-0.4248504638671875,1,0.94
2020-05-16 12:54:21.941 -0400,11771.021626125,1.096237182617188,0.2345733642578125,-0.40753173828125,1,0.94
2020-05-16 12:54:22.006 -0400,11771.086602125,0.7208709716796875,0.352264404296875,-0.42291259765625,1,0.94
2020-05-16 12:54:22.071 -0400,11771.151578125,0.4891357421875,0.4394683837890625,-0.25909423828125,1,0.94
2020-05-16 12:54:22.136 -0400,11771.21655325,0.4666290283203125,0.4423980712890625,-0.247039794921875,1,0.94
2020-05-16 12:54:22.201 -0400,11771.28152925,0.6116790771484375,0.484527587890625,-0.2656097412109375,1,0.94
2020-05-16 12:54:22.266 -0400,11771.34650425,0.7093658447265625,0.4438018798828125,-0.3477783203125,1,0.94
2020-05-16 12:54:22.331 -0400,11771.41148025,0.8592681884765625,0.3643798828125,-0.4466094970703125,1,0.94
2020-05-16 12:54:22.396 -0400,11771.47645525,0.893707275390625,0.28448486328125,-0.47216796875,1,0.94
2020-05-16 12:54:22.461 -0400,11771.54143125,0.7193603515625,0.36083984375,-0.4549713134765625,1,0.94
2020-05-16 12:54:22.525 -0400,11771.60640625,1.577362060546875,0.55596923828125,-0.4635772705078125,1,0.94
2020-05-16 12:54:22.591 -0400,11771.67138225,1.762664794921875,0.2935333251953125,-0.1086578369140625,1,0.94
2020-05-16 12:54:22.655 -0400,11771.73635725,1.26397705078125,0.5157318115234375,-0.1040802001953125,1,0.94
2020-05-16 12:54:22.721 -0400,11771.80133325,0.997406005859375,0.501739501953125,-0.077728271484375,1,0.94
2020-05-16 12:54:22.785 -0400,11771.86630925,0.700592041015625,0.5088958740234375,-0.13104248046875,1,0.94
2020-05-16 12:54:22.851 -0400,11771.93128425,0.4404449462890625,0.67376708984375,-0.1598968505859375,1,0.94
2020-05-16 12:54:22.915 -0400,11771.99626025,0.242706298828125,0.6199951171875,-0.0649566650390625,1,0.94
2020-05-16 12:54:22.981 -0400,11772.06123525,0.1497344970703125,0.5284271240234375,-0.1103363037109375,1,0.94
2020-05-16 12:54:23.045 -0400,11772.12621125,0.1640777587890625,0.5080413818359375,-0.0741119384765625,1,0.94
2020-05-16 12:54:23.110 -0400,11772.19118604167,0.3896942138671875,0.8144073486328125,0.02752685546875,1,0.94
2020-05-16 12:54:23.175 -0400,11772.25616204167,0.533416748046875,0.7292022705078125,-0.16729736328125,1,0.94
2020-05-16 12:54:23.241 -0400,11772.32113704167,0.59521484375,0.64251708984375,-0.204864501953125,1,0.94
2020-05-16 12:54:23.313 -0400,11772.38611304167,0.8333282470703125,1.305084228515625,0.0312347412109375,1,0.94
2020-05-16 12:54:23.370 -0400,11772.45108804167,1.028152465820312,1.796600341796875,-0.339263916015625,1,0.94
2020-05-16 12:54:23.435 -0400,11772.51606404167,0.1859588623046875,1.650192260742188,-0.355804443359375,1,0.94
2020-05-16 12:54:23.500 -0400,11772.58104004167,-0.10211181640625,1.315109252929688,-0.13140869140625,1,0.94
2020-05-16 12:54:23.565 -0400,11772.64601504167,-0.2112579345703125,0.99310302734375,0.0491180419921875,1,0.94
2020-05-16 12:54:23.630 -0400,11772.71099104167,-0.2871246337890625,0.5017547607421875,0.044586181640625,1,0.94
2020-05-16 12:54:23.695 -0400,11772.77596604167,-0.4775238037109375,0.3900299072265625,0.0166015625,1,0.94
2020-05-16 12:54:23.760 -0400,11772.84094204167,-0.5509185791015625,0.3468780517578125,-0.379150390625,1,0.94
2020-05-16 12:54:23.825 -0400,11772.90591704167,-0.59716796875,0.451080322265625,-0.4564208984375,1,0.94
2020-05-16 12:54:23.890 -0400,11772.97089304167,-0.6672515869140625,0.456787109375,-0.4227142333984375,1,0.94
2020-05-16 12:54:23.955 -0400,11773.03586804167,-0.9779815673828125,0.8974761962890625,-0.2146453857421875,1,0.94
2020-05-16 12:54:24.020 -0400,11773.10084404167,-0.9406890869140625,0.4614715576171875,0.0560150146484375,1,0.94
2020-05-16 12:54:24.085 -0400,11773.16581904167,-0.992462158203125,0.238525390625,-0.0587615966796875,1,0.94
2020-05-16 12:54:24.150 -0400,11773.23079466667,-1.01812744140625,0.3713226318359375,-0.2942352294921875,1,0.94
2020-05-16 12:54:24.215 -0400,11773.29576966667,-0.7205047607421875,0.31854248046875,-0.2817230224609375,1,0.94
2020-05-16 12:54:24.280 -0400,11773.36074566667,-0.7399444580078125,0.3770904541015625,0.0066070556640625,1,0.94
2020-05-16 12:54:24.345 -0400,11773.42572066667,-0.626495361328125,0.406982421875,-0.184051513671875,1,0.94
2020-05-16 12:54:24.410 -0400,11773.49069666667,-0.6917877197265625,0.3111572265625,-0.218780517578125,1,0.94
2020-05-16 12:54:24.475 -0400,11773.55567266667,-0.7292327880859375,0.127166748046875,-0.3730316162109375,1,0.94
2020-05-16 12:54:24.540 -0400,11773.62064766667,-0.9129486083984375,0.3802947998046875,-0.42724609375,1,0.94
2020-05-16 12:54:24.605 -0400,11773.68562366667,-0.4489593505859375,-0.12237548828125,-0.8199462890625,1,0.94
2020-05-16 12:54:24.670 -0400,11773.75059866667,-1.234832763671875,-0.4828948974609375,-0.42364501953125,1,0.94
2020-05-16 12:54:24.735 -0400,11773.81557466667,-0.5908966064453125,-0.028228759765625,-0.7764434814453125,1,0.94
2020-05-16 12:54:24.800 -0400,11773.88054966667,-0.544921875,-0.259765625,-0.4091033935546875,1,0.94
2020-05-16 12:54:24.865 -0400,11773.94552566667,-0.579925537109375,-0.1846771240234375,-0.2867584228515625,1,0.94
2020-05-16 12:54:24.930 -0400,11774.01050066667,-0.4908599853515625,-0.36865234375,-0.315673828125,1,0.94
2020-05-16 12:54:24.995 -0400,11774.07547666667,-0.4796295166015625,-0.3153533935546875,0.0254058837890625,1,0.94
2020-05-16 12:54:25.060 -0400,11774.14045166667,0.1799774169921875,-0.6660919189453125,0.6502227783203125,1,0.94
2020-05-16 12:54:25.125 -0400,11774.205428,-1.837127685546875,0.635009765625,-0.33331298828125,1,0.94
2020-05-16 12:54:25.190 -0400,11774.270403,-2.394546508789062,0.9693603515625,-1.254867553710938,1,0.94
2020-05-16 12:54:25.254 -0400,11774.335379,-0.9399871826171875,0.541107177734375,-0.5030517578125,1,0.94
2020-05-16 12:54:25.324 -0400,11774.400354,0.1833953857421875,0.661041259765625,-0.443328857421875,1,0.94
2020-05-16 12:54:25.384 -0400,11774.46533,0.87750244140625,0.940582275390625,-0.622772216796875,1,0.94
2020-05-16 12:54:25.450 -0400,11774.530305,0.81915283203125,0.970916748046875,-1.008819580078125,1,0.94
2020-05-16 12:54:25.514 -0400,11774.595281,0.549835205078125,-0.0530242919921875,-0.27142333984375,1,0.94
2020-05-16 12:54:25.580 -0400,11774.660256,0.567047119140625,0.4954376220703125,-0.2355194091796875,1,0.94
2020-05-16 12:54:25.644 -0400,11774.725232,1.500778198242188,0.5860443115234375,0.238372802734375,1,0.94
2020-05-16 12:54:25.709 -0400,11774.790208,1.727127075195312,0.8574676513671875,-0.3555755615234375,1,0.94
2020-05-16 12:54:25.774 -0400,11774.855183,1.354232788085938,0.3306427001953125,-0.2051849365234375,1,0.94
2020-05-16 12:54:25.839 -0400,11774.920158,1.1199951171875,-0.0470733642578125,-0.1966094970703125,1,0.94
2020-05-16 12:54:25.904 -0400,11774.985134,1.3963623046875,-0.231842041015625,-0.3896026611328125,1,0.94
2020-05-16 12:54:25.969 -0400,11775.05011,1.254165649414062,0.038543701171875,0.071990966796875,1,0.94
2020-05-16 12:54:26.034 -0400,11775.115085,1.523147583007812,-0.4017181396484375,0.19677734375,1,0.94
2020-05-16 12:54:26.099 -0400,11775.18006175,1.203598022460938,-0.32318115234375,0.1494903564453125,1,0.94
2020-05-16 12:54:26.164 -0400,11775.24503675,0.9717254638671875,0.1260833740234375,0.09918212890625,1,0.94
2020-05-16 12:54:26.229 -0400,11775.31001275,0.8482818603515625,0.360595703125,0.081756591796875,1,0.94
2020-05-16 12:54:26.294 -0400,11775.37498775,0.99462890625,0.236907958984375,0.0020599365234375,1,0.94
2020-05-16 12:54:26.359 -0400,11775.43996375,1.064346313476562,0.2162017822265625,0.0278167724609375,1,0.94
2020-05-16 12:54:26.424 -0400,11775.50493875,1.215438842773438,0.3906097412109375,-0.0166168212890625,1,0.94
2020-05-16 12:54:26.489 -0400,11775.56991475,1.107040405273438,0.6048736572265625,-0.082611083984375,1,0.94
2020-05-16 12:54:26.554 -0400,11775.63488975,0.8040771484375,0.6777801513671875,-0.31561279296875,1,0.94
2020-05-16 12:54:26.619 -0400,11775.69986575,0.618682861328125,0.463775634765625,-0.4514923095703125,1,0.94
2020-05-16 12:54:26.684 -0400,11775.76484075,0.291778564453125,0.5161590576171875,-0.5029449462890625,1,0.94
2020-05-16 12:54:26.749 -0400,11775.82981675,0.2374267578125,0.630340576171875,-0.4764556884765625,1,0.94
2020-05-16 12:54:26.814 -0400,11775.89479175,0.2131805419921875,0.637847900390625,-0.164520263671875,1,0.94
2020-05-16 12:54:26.879 -0400,11775.95976775,0.162933349609375,0.95587158203125,0.0488433837890625,1,0.94
2020-05-16 12:54:26.944 -0400,11776.02474275,0.067657470703125,1.058761596679688,-0.0001983642578125,1,0.94
2020-05-16 12:54:27.009 -0400,11776.08971875,-0.07745361328125,1.008270263671875,-0.1097259521484375,1,0.94
2020-05-16 12:54:27.074 -0400,11776.15469375,0.0735321044921875,0.8727569580078125,-0.2861480712890625,1,0.94
2020-05-16 12:54:27.139 -0400,11776.219669,0.0492706298828125,0.6949615478515625,-0.5102386474609375,1,0.94
2020-05-16 12:54:27.204 -0400,11776.284644,0.0405731201171875,0.6673431396484375,-0.4817047119140625,1,0.94
2020-05-16 12:54:27.269 -0400,11776.34962,0.0770263671875,0.429840087890625,-0.570709228515625,1,0.94
2020-05-16 12:54:27.334 -0400,11776.414595,0.07855224609375,0.3513336181640625,-0.8157501220703125,1,0.94
2020-05-16 12:54:27.399 -0400,11776.479571,0.04534912109375,0.424652099609375,-0.9980010986328125,1,0.94
2020-05-16 12:54:27.464 -0400,11776.544546,0.1966552734375,1.432052612304688,-1.5408935546875,1,0.94
2020-05-16 12:54:27.529 -0400,11776.609522,0.0604400634765625,1.137710571289062,-0.18560791015625,1,0.94
2020-05-16 12:54:27.594 -0400,11776.674497,0.2610321044921875,-0.5933685302734375,-1.669708251953125,1,0.94
2020-05-16 12:54:27.659 -0400,11776.739473,-0.0086212158203125,0.7861175537109375,-0.5316619873046875,1,0.94
2020-05-16 12:54:27.723 -0400,11776.804448,0.218780517578125,0.5330657958984375,-0.4820098876953125,1,0.94
2020-05-16 12:54:27.789 -0400,11776.869424,0.2057342529296875,0.1022796630859375,-0.0506134033203125,1,0.94
2020-05-16 12:54:27.853 -0400,11776.934399,0.4476776123046875,0.2440185546875,-0.1969451904296875,1,0.94
2020-05-16 12:54:27.918 -0400,11776.999375,0.7792510986328125,0.6878204345703125,-0.314361572265625,1,0.94
2020-05-16 12:54:27.983 -0400,11777.06435,1.07977294921875,0.9337615966796875,-0.312042236328125,1,0.94
2020-05-16 12:54:28.049 -0400,11777.129326,0.8082275390625,0.316558837890625,-0.2455596923828125,1,0.94
2020-05-16 12:54:28.114 -0400,11777.19430116667,1.74725341796875,0.79541015625,-0.57647705078125,1,0.94
2020-05-16 12:54:28.179 -0400,11777.25927716667,1.019973754882812,0.9310150146484375,-0.12786865234375,1,0.94
2020-05-16 12:54:28.243 -0400,11777.32425216667,1.323715209960938,0.53656005859375,-0.458984375,1,0.94
2020-05-16 12:54:28.308 -0400,11777.38922816667,0.9245758056640625,1.012847900390625,-0.1155853271484375,1,0.94
2020-05-16 12:54:28.373 -0400,11777.45420316667,0.916900634765625,1.303634643554688,-0.243438720703125,1,0.94
2020-05-16 12:54:28.438 -0400,11777.51917916667,0.75262451171875,1.9365234375,0.5814666748046875,1,0.94
2020-05-16 12:54:28.503 -0400,11777.58415416667,0.3899078369140625,1.051605224609375,0.5339508056640625,1,0.94
2020-05-16 12:54:28.568 -0400,11777.64913016667,0.3105621337890625,0.5244293212890625,0.3726348876953125,1,0.94
2020-05-16 12:54:28.633 -0400,11777.71410516667,0.0071868896484375,0.4922332763671875,0.09906005859375,1,0.94
2020-05-16 12:54:28.698 -0400,11777.77908116667,-0.37188720703125,0.5349884033203125,0.18829345703125,1,0.94
2020-05-16 12:54:28.763 -0400,11777.84405616667,-0.82562255859375,0.8646087646484375,0.0100555419921875,1,0.94
2020-05-16 12:54:28.828 -0400,11777.90903216667,-0.9257965087890625,0.7099151611328125,-0.071990966796875,1,0.94
2020-05-16 12:54:28.893 -0400,11777.97400716667,-0.86187744140625,0.434295654296875,-0.292999267578125,1,0.94
2020-05-16 12:54:28.958 -0400,11778.03898316667,-0.7220611572265625,0.04400634765625,-0.2698211669921875,1,0.94
2020-05-16 12:54:29.023 -0400,11778.10395816667,-0.717529296875,0.104339599609375,-0.1394500732421875,1,0.94
2020-05-16 12:54:29.088 -0400,11778.16893416667,-0.741790771484375,0.3360137939453125,-0.188323974609375,1,0.94
2020-05-16 12:54:29.153 -0400,11778.23390975,-0.80419921875,0.3892669677734375,-0.259613037109375,1,0.94
2020-05-16 12:54:29.225 -0400,11778.29888575,-0.7961883544921875,0.2364349365234375,-0.29296875,1,0.94
2020-05-16 12:54:29.283 -0400,11778.36386075,-0.9722747802734375,0.0554656982421875,-0.33978271484375,1,0.94
2020-05-16 12:54:29.348 -0400,11778.42883675,-0.8631591796875,-0.2559967041015625,-0.373565673828125,1,0.94
2020-05-16 12:54:29.413 -0400,11778.49381175,-1.133392333984375,-0.4223175048828125,0.029449462890625,1,0.94
2020-05-16 12:54:29.478 -0400,11778.55878775,-1.170867919921875,-0.1007843017578125,-0.2885589599609375,1,0.94
2020-05-16 12:54:29.543 -0400,11778.62376275,-0.8533935546875,0.2536468505859375,-0.2939605712890625,1,0.94
2020-05-16 12:54:29.608 -0400,11778.68873875,-0.5601959228515625,-0.1785888671875,-0.08404541015625,1,0.94
2020-05-16 12:54:29.673 -0400,11778.75371375,-0.5667877197265625,-0.21923828125,-0.1228790283203125,1,0.94
2020-05-16 12:54:29.738 -0400,11778.81868975,-0.67626953125,0.139801025390625,-0.3002166748046875,1,0.94
2020-05-16 12:54:29.803 -0400,11778.88366475,-0.9914398193359375,-0.2735595703125,-0.432403564453125,1,0.94
2020-05-16 12:54:29.868 -0400,11778.94863975,-1.1563720703125,-0.406280517578125,-0.62591552734375,1,0.94
2020-05-16 12:54:29.933 -0400,11779.01361575,-1.658737182617188,-0.31622314453125,-0.9904937744140625,1,0.94
2020-05-16 12:54:29.998 -0400,11779.07859075,-0.5399322509765625,-0.6373138427734375,-0.271270751953125,1,0.94
2020-05-16 12:54:30.063 -0400,11779.14356675,-0.1959075927734375,-0.4293365478515625,0.1233978271484375,1,0.94
2020-05-16 12:54:30.128 -0400,11779.2085415,-0.139190673828125,-0.322601318359375,0.22894287109375,1,0.94
2020-05-16 12:54:30.193 -0400,11779.2735175,-0.275909423828125,-0.0843505859375,0.245880126953125,1,0.94
2020-05-16 12:54:30.258 -0400,11779.3384925,-0.6800384521484375,0.6259613037109375,-0.671783447265625,1,0.94
2020-05-16 12:54:30.323 -0400,11779.4034685,-0.774932861328125,0.494964599609375,-1.100875854492188,1,0.94
2020-05-16 12:54:30.388 -0400,11779.4684435,-0.399200439453125,0.4984130859375,-2.424392700195312,1,0.94
2020-05-16 12:54:30.453 -0400,11779.5334195,-0.3138580322265625,0.9973602294921875,-1.143173217773438,1,0.94
2020-05-16 12:54:30.518 -0400,11779.5983945,0.3548431396484375,0.9639892578125,-1.20709228515625,1,0.94
2020-05-16 12:54:30.583 -0400,11779.6633705,0.12158203125,0.0415496826171875,-0.633270263671875,1,0.94
2020-05-16 12:54:30.648 -0400,11779.7283455,0.21136474609375,0.2067718505859375,-0.790771484375,1,0.94
2020-05-16 12:54:30.712 -0400,11779.7933215,0.20782470703125,0.18450927734375,-0.73248291015625,1,0.94
2020-05-16 12:54:30.778 -0400,11779.8582965,0.5555877685546875,0.429840087890625,-0.6781158447265625,1,0.94
2020-05-16 12:54:30.842 -0400,11779.9232725,1.391387939453125,0.4031829833984375,-0.39801025390625,1,0.94
2020-05-16 12:54:30.907 -0400,11779.9882475,1.629013061523438,1.022933959960938,-0.6363067626953125,1,0.94
2020-05-16 12:54:30.972 -0400,11780.0532235,1.283981323242188,0.802886962890625,-0.556427001953125,1,0.94
2020-05-16 12:54:31.037 -0400,11780.1181985,1.056549072265625,0.030975341796875,-0.4866790771484375,1,0.94
2020-05-16 12:54:31.102 -0400,11780.18317229167,0.66326904296875,0.204376220703125,-0.41546630859375,1,0.94
2020-05-16 12:54:31.167 -0400,11780.24814829167,0.383331298828125,0.323089599609375,-0.42376708984375,1,0.94
2020-05-16 12:54:31.234 -0400,11780.31312329167,0.2603759765625,0.62744140625,-0.533355712890625,1,0.94
2020-05-16 12:54:31.297 -0400,11780.37809929167,0.7229156494140625,0.5420684814453125,-0.5096588134765625,1,0.94
2020-05-16 12:54:31.362 -0400,11780.44307429167,1.056472778320312,0.5191650390625,-0.429412841796875,1,0.94
2020-05-16 12:54:31.427 -0400,11780.50805029167,1.131317138671875,0.6981658935546875,-0.177581787109375,1,0.94
2020-05-16 12:54:31.492 -0400,11780.57302529167,1.863998413085938,1.049896240234375,-0.320343017578125,1,0.94
2020-05-16 12:54:31.557 -0400,11780.63800129167,1.602935791015625,0.517303466796875,-0.3853912353515625,1,0.94
2020-05-16 12:54:31.622 -0400,11780.70297629167,1.381759643554688,0.2245941162109375,-0.292816162109375,1,0.94
2020-05-16 12:54:31.687 -0400,11780.76795229167,0.865753173828125,0.0740203857421875,-0.088714599609375,1,0.94
2020-05-16 12:54:31.752 -0400,11780.83292729167,0.4257049560546875,0.126434326171875,-0.1163330078125,1,0.94
2020-05-16 12:54:31.817 -0400,11780.89790229167,0.25311279296875,0.2784271240234375,-0.05267333984375,1,0.94
2020-05-16 12:54:31.882 -0400,11780.96287829167,0.2865447998046875,0.20111083984375,-0.2442779541015625,1,0.94
2020-05-16 12:54:31.947 -0400,11781.02785329167,0.4581451416015625,0.36114501953125,-0.168792724609375,1,0.94
2020-05-16 12:54:32.012 -0400,11781.09282929167,0.61065673828125,0.668182373046875,-0.16143798828125,1,0.94
2020-05-16 12:54:32.077 -0400,11781.15780429167,0.7397918701171875,0.744842529296875,-0.1806488037109375,1,0.94
2020-05-16 12:54:32.142 -0400,11781.222781625,0.960601806640625,0.72210693359375,-0.17779541015625,1,0.94
2020-05-16 12:54:32.207 -0400,11781.287756625,1.863052368164062,0.9549102783203125,-0.1384735107421875,1,0.94
2020-05-16 12:54:32.272 -0400,11781.352732625,1.768356323242188,0.8921661376953125,0.0190582275390625,1,0.94
2020-05-16 12:54:32.337 -0400,11781.417707625,0.874969482421875,0.563629150390625,-0.3077850341796875,1,0.94
2020-05-16 12:54:32.402 -0400,11781.482683625,0.96136474609375,0.2882232666015625,-0.221435546875,1,0.94
2020-05-16 12:54:32.467 -0400,11781.547658625,0.518280029296875,0.1849517822265625,-0.242279052734375,1,0.94
2020-05-16 12:54:32.532 -0400,11781.612633625,0.463287353515625,0.3024139404296875,-0.326416015625,1,0.94
2020-05-16 12:54:32.597 -0400,11781.677609625,0.6997528076171875,0.3437347412109375,-0.56890869140625,1,0.94
2020-05-16 12:54:32.662 -0400,11781.742584625,0.840057373046875,0.1192779541015625,-0.7547149658203125,1,0.94
2020-05-16 12:54:32.727 -0400,11781.807560625,0.751861572265625,0.062744140625,-0.677886962890625,1,0.94
2020-05-16 12:54:32.792 -0400,11781.872535625,0.6347808837890625,0.285858154296875,-0.609466552734375,1,0.94
2020-05-16 12:54:32.857 -0400,11781.937511625,0.47125244140625,0.4120025634765625,-0.568023681640625,1,0.94
2020-05-16 12:54:32.922 -0400,11782.002486625,0.2527618408203125,0.491668701171875,-0.501190185546875,1,0.94
2020-05-16 12:54:32.987 -0400,11782.067461625,0.2538604736328125,0.7875518798828125,-0.7395782470703125,1,0.94
2020-05-16 12:54:33.052 -0400,11782.132437625,0.709228515625,1.057601928710938,-0.9866485595703125,1,0.94
2020-05-16 12:54:33.117 -0400,11782.197412125,0.915802001953125,1.06170654296875,-0.9394378662109375,1,0.94
2020-05-16 12:54:33.181 -0400,11782.262388125,0.754302978515625,1.18524169921875,-0.560150146484375,1,0.94
2020-05-16 12:54:33.247 -0400,11782.327363125,0.6868743896484375,1.092330932617188,-0.4865264892578125,1,0.94
2020-05-16 12:54:33.311 -0400,11782.392339125,0.4676361083984375,0.9002532958984375,-0.287078857421875,1,0.94
2020-05-16 12:54:33.377 -0400,11782.457314125,0.6151275634765625,0.95208740234375,-0.396514892578125,1,0.94
2020-05-16 12:54:33.442 -0400,11782.522290125,0.4472198486328125,0.8521881103515625,-0.380645751953125,1,0.94
2020-05-16 12:54:33.507 -0400,11782.587265125,0.2358551025390625,0.70025634765625,-0.3137359619140625,1,0.94
2020-05-16 12:54:33.571 -0400,11782.652240125,0.143585205078125,0.4962310791015625,-0.360992431640625,1,0.94
2020-05-16 12:54:33.636 -0400,11782.717216125,0.0853424072265625,0.2858428955078125,-0.401336669921875,1,0.94
2020-05-16 12:54:33.701 -0400,11782.782191125,0.1009521484375,-0.085693359375,-0.4830474853515625,1,0.94
2020-05-16 12:54:33.766 -0400,11782.847167125,0.07611083984375,0.2500457763671875,-0.525634765625,1,0.94
2020-05-16 12:54:33.831 -0400,11782.912142125,0.11175537109375,0.5116424560546875,-0.738433837890625,1,0.94
2020-05-16 12:54:33.896 -0400,11782.977118125,0.3030853271484375,0.8074798583984375,-1.1278076171875,1,0.94
2020-05-16 12:54:33.961 -0400,11783.042093125,0.6655426025390625,0.778411865234375,-1.141830444335938,1,0.94
2020-05-16 12:54:34.026 -0400,11783.107068125,0.831787109375,0.81500244140625,-0.8784637451171875,1,0.94
2020-05-16 12:54:34.091 -0400,11783.172044125,0.6579132080078125,0.6290283203125,-0.4754791259765625,1,0.94
2020-05-16 12:54:34.156 -0400,11783.237018875,0.7969512939453125,0.2818756103515625,-0.12249755859375,1,0.94
2020-05-16 12:54:34.221 -0400,11783.301994875,1.00225830078125,0.3027496337890625,0.08367919921875,1,0.94
2020-05-16 12:54:34.286 -0400,11783.366969875,1.055435180664062,0.540130615234375,-0.0770416259765625,1,0.94
2020-05-16 12:54:34.351 -0400,11783.431944875,0.8533782958984375,0.575164794921875,-0.184967041015625,1,0.94
2020-05-16 12:54:34.416 -0400,11783.496920875,0.69146728515625,0.4499664306640625,-0.445220947265625,1,0.94
2020-05-16 12:54:34.481 -0400,11783.561895875,0.4652557373046875,0.2945556640625,-0.36956787109375,1,0.94
2020-05-16 12:54:34.546 -0400,11783.626871875,0.56353759765625,0.3495025634765625,-0.3027801513671875,1,0.94
2020-05-16 12:54:34.611 -0400,11783.691846875,0.88250732421875,0.3240966796875,-0.204345703125,1,0.94
2020-05-16 12:54:34.676 -0400,11783.756822875,1.08935546875,0.3540191650390625,-0.23345947265625,1,0.94
2020-05-16 12:54:34.741 -0400,11783.821797875,1.464447021484375,0.4615936279296875,-0.161865234375,1,0.94
2020-05-16 12:54:34.806 -0400,11783.886772875,1.684707641601562,0.6845855712890625,-0.0311737060546875,1,0.94
2020-05-16 12:54:34.871 -0400,11783.951748875,1.45086669921875,0.317535400390625,0.0372314453125,1,0.94
2020-05-16 12:54:34.936 -0400,11784.016723875,1.199386596679688,0.460052490234375,0.098663330078125,1,0.94
2020-05-16 12:54:35.001 -0400,11784.081699875,0.716156005859375,0.31951904296875,0.0731048583984375,1,0.94
2020-05-16 12:54:35.066 -0400,11784.146674875,0.530120849609375,0.3154449462890625,0.0411224365234375,1,0.94
2020-05-16 12:54:35.131 -0400,11784.211649625,0.502227783203125,0.28106689453125,0.037353515625,1,0.94
2020-05-16 12:54:35.196 -0400,11784.276625625,0.7583465576171875,0.27850341796875,-0.0091552734375,1,0.94
2020-05-16 12:54:35.261 -0400,11784.341600625,0.9876251220703125,0.22186279296875,0.0070037841796875,1,0.94
2020-05-16 12:54:35.326 -0400,11784.406576625,1.201202392578125,0.297210693359375,-0.0124969482421875,1,0.94
2020-05-16 12:54:35.391 -0400,11784.471551625,1.295913696289062,0.452239990234375,-0.050872802734375,1,0.94
2020-05-16 12:54:35.456 -0400,11784.536526625,1.296875,0.586456298828125,-0.1717376708984375,1,0.94
2020-05-16 12:54:35.521 -0400,11784.601502625,1.07537841796875,0.8682861328125,-0.7337799072265625,1,0.94
2020-05-16 12:54:35.586 -0400,11784.666477625,1.152618408203125,0.47900390625,-0.2380523681640625,1,0.94
2020-05-16 12:54:35.651 -0400,11784.731453625,0.8867645263671875,-0.0250244140625,-0.3867950439453125,1,0.94
2020-05-16 12:54:35.716 -0400,11784.796428625,0.6409759521484375,0.269439697265625,-0.24432373046875,1,0.94
2020-05-16 12:54:35.780 -0400,11784.861403625,0.6203155517578125,0.5254364013671875,-0.2694244384765625,1,0.94
2020-05-16 12:54:35.846 -0400,11784.926379625,0.662261962890625,0.4125518798828125,-0.2296142578125,1,0.94
2020-05-16 12:54:35.910 -0400,11784.991354625,0.7512054443359375,0.3219451904296875,-0.1276092529296875,1,0.94
2020-05-16 12:54:35.976 -0400,11785.056330625,0.9322357177734375,0.4355316162109375,-0.1539306640625,1,0.94
2020-05-16 12:54:36.040 -0400,11785.121305625,1.054290771484375,0.4514617919921875,-0.201904296875,1,0.94
2020-05-16 12:54:36.105 -0400,11785.18628166667,1.177200317382812,0.3489837646484375,-0.1100006103515625,1,0.94
2020-05-16 12:54:36.170 -0400,11785.25125766667,1.465484619140625,0.4210205078125,-0.1496124267578125,1,0.94
2020-05-16 12:54:36.236 -0400,11785.31623266667,1.135162353515625,0.5010528564453125,-0.1576080322265625,1,0.94
2020-05-16 12:54:36.307 -0400,11785.38120866667,0.9853515625,0.5186920166015625,-0.1888275146484375,1,0.94
2020-05-16 12:54:36.365 -0400,11785.44618366667,0.9744720458984375,0.4538421630859375,-0.1113433837890625,1,0.94
2020-05-16 12:54:36.430 -0400,11785.51115866667,0.763397216796875,0.353668212890625,-0.092864990234375,1,0.94
2020-05-16 12:54:36.495 -0400,11785.57613466667,0.5592193603515625,0.372314453125,-0.097503662109375,1,0.94
2020-05-16 12:54:36.560 -0400,11785.64110966667,0.5282135009765625,0.3939666748046875,-0.082122802734375,1,0.94
2020-05-16 12:54:36.625 -0400,11785.70608466667,0.7464752197265625,0.415618896484375,-0.07379150390625,1,0.94
2020-05-16 12:54:36.690 -0400,11785.77106066667,0.9943695068359375,0.39837646484375,-0.0390167236328125,1,0.94
2020-05-16 12:54:36.755 -0400,11785.83603566667,1.170944213867188,0.419464111328125,-0.0236663818359375,1,0.94
2020-05-16 12:54:36.820 -0400,11785.90101166667,1.18060302734375,0.45953369140625,-0.0396881103515625,1,0.94
2020-05-16 12:54:36.885 -0400,11785.96598666667,1.203506469726562,0.4169158935546875,-0.0352935791015625,1,0.94
2020-05-16 12:54:36.950 -0400,11786.03096166667,1.069900512695312,0.4592437744140625,-0.4419403076171875,1,0.94
2020-05-16 12:54:37.015 -0400,11786.09593766667,0.874908447265625,0.255889892578125,-0.31427001953125,1,0.94
2020-05-16 12:54:37.080 -0400,11786.16091266667,0.8513946533203125,0.1483917236328125,-0.4241485595703125,1,0.94
2020-05-16 12:54:37.145 -0400,11786.225887625,0.5779571533203125,0.192230224609375,-0.384002685546875,1,0.94
2020-05-16 12:54:37.210 -0400,11786.290863625,0.480224609375,0.2498931884765625,-0.2799072265625,1,0.94
2020-05-16 12:54:37.275 -0400,11786.355838625,0.588409423828125,0.3094329833984375,-0.24322509765625,1,0.94
2020-05-16 12:54:37.340 -0400,11786.420814625,0.6794586181640625,0.3249053955078125,-0.2201385498046875,1,0.94
2020-05-16 12:54:37.405 -0400,11786.485789625,0.8472137451171875,0.349761962890625,-0.2391204833984375,1,0.94
2020-05-16 12:54:37.470 -0400,11786.550764625,1.00933837890625,0.35882568359375,-0.2345123291015625,1,0.94
2020-05-16 12:54:37.535 -0400,11786.615740625,1.017425537109375,0.373077392578125,-0.2516326904296875,1,0.94
2020-05-16 12:54:37.600 -0400,11786.680715625,1.252120971679688,0.4657135009765625,-0.23779296875,1,0.94
2020-05-16 12:54:37.665 -0400,11786.745690625,1.43609619140625,0.502288818359375,-0.23681640625,1,0.94
2020-05-16 12:54:37.730 -0400,11786.810666625,1.123992919921875,0.4640960693359375,-0.2761993408203125,1,0.94
2020-05-16 12:54:37.795 -0400,11786.875641625,0.980438232421875,0.393035888671875,-0.2093963623046875,1,0.94
2020-05-16 12:54:37.860 -0400,11786.940617625,1.11834716796875,0.2696075439453125,-0.0840606689453125,1,0.94
2020-05-16 12:54:37.925 -0400,11787.005592625,1.040115356445312,0.2805938720703125,-0.0662841796875,1,0.94
2020-05-16 12:54:37.990 -0400,11787.070567625,0.80047607421875,0.34527587890625,-0.08447265625,1,0.94
2020-05-16 12:54:38.055 -0400,11787.135543625,0.647857666015625,0.310577392578125,-0.0352020263671875,1,0.94
2020-05-16 12:54:38.120 -0400,11787.2005185,0.568328857421875,0.256439208984375,-0.0108184814453125,1,0.94
2020-05-16 12:54:38.185 -0400,11787.2654935,0.510406494140625,0.27239990234375,-0.00457763671875,1,0.94
2020-05-16 12:54:38.253 -0400,11787.3304695,0.47607421875,0.3258819580078125,-0.06268310546875,1,0.94
2020-05-16 12:54:38.315 -0400,11787.3954445,0.8031158447265625,0.368988037109375,-0.0800933837890625,1,0.94
2020-05-16 12:54:38.379 -0400,11787.4604195,1.627090454101562,0.4666900634765625,-0.224151611328125,1,0.94
2020-05-16 12:54:38.445 -0400,11787.5253955,2.15484619140625,0.38763427734375,-0.136016845703125,1,0.94
2020-05-16 12:54:38.509 -0400,11787.5903705,1.682830810546875,0.572509765625,-0.4394073486328125,1,0.94
2020-05-16 12:54:38.575 -0400,11787.6553465,0.839935302734375,0.315887451171875,-0.1904296875,1,0.94
2020-05-16 12:54:38.639 -0400,11787.7203215,0.9873046875,0.14178466796875,0.03216552734375,1,0.94
2020-05-16 12:54:38.704 -0400,11787.7852965,0.92730712890625,0.127655029296875,0.1306304931640625,1,0.94
2020-05-16 12:54:38.769 -0400,11787.8502725,0.8831939697265625,0.2471466064453125,-0.047882080078125,1,0.94
2020-05-16 12:54:38.835 -0400,11787.9152475,0.6879425048828125,0.2031402587890625,-0.098876953125,1,0.94
2020-05-16 12:54:38.900 -0400,11787.9802225,0.46826171875,0.1570587158203125,-0.1533203125,1,0.94
2020-05-16 12:54:38.966 -0400,11788.0451985,0.38677978515625,0.127532958984375,-0.12811279296875,1,0.94
2020-05-16 12:54:39.029 -0400,11788.1101735,0.395904541015625,0.1756439208984375,-0.079803466796875,1,0.94
2020-05-16 12:54:39.094 -0400,11788.1751485,0.609954833984375,0.323455810546875,-0.1103363037109375,1,0.94
2020-05-16 12:54:39.159 -0400,11788.24012425,0.817047119140625,0.397125244140625,-0.1747589111328125,1,0.94
2020-05-16 12:54:39.224 -0400,11788.30509925,1.022918701171875,0.552276611328125,-0.3224945068359375,1,0.94
2020-05-16 12:54:39.289 -0400,11788.37007425,1.45269775390625,0.5685272216796875,-0.3765106201171875,1,0.94
2020-05-16 12:54:39.355 -0400,11788.43505025,1.797805786132812,0.58160400390625,-0.32635498046875,1,0.94
2020-05-16 12:54:39.419 -0400,11788.50002525,1.0855712890625,0.3527679443359375,-0.2437744140625,1,0.94
2020-05-16 12:54:39.484 -0400,11788.56500025,1.144882202148438,0.4637908935546875,-0.079010009765625,1,0.94
2020-05-16 12:54:39.549 -0400,11788.62997625,1.087493896484375,0.31097412109375,0.2133941650390625,1,0.94
2020-05-16 12:54:39.614 -0400,11788.69495125,1.052963256835938,0.467071533203125,0.0964202880859375,1,0.94
2020-05-16 12:54:39.679 -0400,11788.75992725,0.75079345703125,0.4414215087890625,0.1329345703125,1,0.94
2020-05-16 12:54:39.744 -0400,11788.82490225,0.536865234375,0.3426361083984375,0.144195556640625,1,0.94
2020-05-16 12:54:39.809 -0400,11788.88987725,0.4137115478515625,0.3088226318359375,0.0789642333984375,1,0.94
2020-05-16 12:54:39.874 -0400,11788.95485325,0.403594970703125,0.28448486328125,0.030181884765625,1,0.94
2020-05-16 12:54:39.939 -0400,11789.01982825,0.75665283203125,0.3130035400390625,0.0345611572265625,1,0.94
2020-05-16 12:54:40.004 -0400,11789.08480325,1.177032470703125,0.3707733154296875,0.085693359375,1,0.94
2020-05-16 12:54:40.069 -0400,11789.14977925,1.0201416015625,0.42523193359375,-0.0156402587890625,1,0.94
2020-05-16 12:54:40.134 -0400,11789.21475375,0.8332366943359375,0.506134033203125,-0.1544342041015625,1,0.94
2020-05-16 12:54:40.199 -0400,11789.27972875,0.8217620849609375,0.4898223876953125,-0.26239013671875,1,0.94
2020-05-16 12:54:40.264 -0400,11789.34470475,1.0631103515625,0.3889312744140625,-0.2087554931640625,1,0.94
2020-05-16 12:54:40.329 -0400,11789.40967975,1.277908325195312,0.6274566650390625,-0.2598114013671875,1,0.94
2020-05-16 12:54:40.394 -0400,11789.47465475,0.7642822265625,0.5981597900390625,-0.3665313720703125,1,0.94
2020-05-16 12:54:40.459 -0400,11789.53963075,0.9868927001953125,0.336639404296875,-0.1572418212890625,1,0.94
2020-05-16 12:54:40.524 -0400,11789.60460575,0.7790985107421875,0.326873779296875,-0.131927490234375,1,0.94
2020-05-16 12:54:40.589 -0400,11789.66958075,0.616790771484375,0.4130706787109375,-0.216064453125,1,0.94
2020-05-16 12:54:40.654 -0400,11789.73455675,0.716705322265625,0.193206787109375,-0.329620361328125,1,0.94
2020-05-16 12:54:40.719 -0400,11789.79953175,0.77618408203125,0.2669525146484375,-0.2811431884765625,1,0.94
2020-05-16 12:54:40.784 -0400,11789.86450675,0.760009765625,0.3156890869140625,-0.2895050048828125,1,0.94
2020-05-16 12:54:40.850 -0400,11789.92948275,0.757293701171875,0.3353729248046875,-0.23681640625,1,0.94
2020-05-16 12:54:40.915 -0400,11789.99445775,0.9856109619140625,0.4978485107421875,-0.2240447998046875,1,0.94
2020-05-16 12:54:40.979 -0400,11790.05943275,1.423110961914062,0.6394195556640625,-0.1585235595703125,1,0.94
2020-05-16 12:54:41.044 -0400,11790.12440875,1.452789306640625,0.8354949951171875,-0.2672271728515625,1,0.94
2020-05-16 12:54:41.108 -0400,11790.18938475,0.9561309814453125,0.257965087890625,-0.0519256591796875,1,0.94
2020-05-16 12:54:41.174 -0400,11790.25435975,1.03216552734375,0.3189544677734375,-0.0983123779296875,1,0.94
2020-05-16 12:54:41.238 -0400,11790.31933575,0.8219757080078125,0.387176513671875,-0.031951904296875,1,0.94
2020-05-16 12:54:41.317 -0400,11790.38431075,0.70477294921875,0.330352783203125,-0.0315399169921875,1,0.94
2020-05-16 12:54:41.368 -0400,11790.44928575,0.7197113037109375,0.331298828125,-0.0156097412109375,1,0.94
2020-05-16 12:54:41.433 -0400,11790.51426175,0.7176971435546875,0.34552001953125,-0.0317230224609375,1,0.94
2020-05-16 12:54:41.498 -0400,11790.57923675,0.698394775390625,0.37225341796875,-0.039520263671875,1,0.94
2020-05-16 12:54:41.563 -0400,11790.64421175,0.8107452392578125,0.4311370849609375,-0.085662841796875,1,0.94
2020-05-16 12:54:41.628 -0400,11790.70918775,0.9785919189453125,0.4305572509765625,-0.1258544921875,1,0.94
2020-05-16 12:54:41.693 -0400,11790.77416275,1.00555419921875,0.36785888671875,-0.2156829833984375,1,0.94
2020-05-16 12:54:41.758 -0400,11790.83913775,1.785125732421875,0.5095977783203125,-0.2624969482421875,1,0.94
2020-05-16 12:54:41.823 -0400,11790.90411375,0.8397064208984375,0.522705078125,-0.5786590576171875,1,0.94
2020-05-16 12:54:41.888 -0400,11790.96908875,1.283905029296875,0.34112548828125,-0.279266357421875,1,0.94
2020-05-16 12:54:41.953 -0400,11791.03406375,0.864776611328125,0.2252044677734375,-0.173675537109375,1,0.94
2020-05-16 12:54:42.018 -0400,11791.09903875,0.54534912109375,0.1766204833984375,-0.2669677734375,1,0.94
2020-05-16 12:54:42.083 -0400,11791.16401475,0.4210662841796875,0.2494964599609375,-0.2466583251953125,1,0.94
2020-05-16 12:54:42.148 -0400,11791.228989125,0.5817108154296875,0.2288665771484375,-0.2238006591796875,1,0.94
2020-05-16 12:54:42.213 -0400,11791.293964125,0.745849609375,0.2784423828125,-0.1533966064453125,1,0.94
2020-05-16 12:54:42.278 -0400,11791.358940125,0.7719573974609375,0.3529052734375,-0.165496826171875,1,0.94
2020-05-16 12:54:42.343 -0400,11791.423915125,0.8695068359375,0.367706298828125,-0.1604156494140625,1,0.94
2020-05-16 12:54:42.408 -0400,11791.488890125,1.267837524414062,0.41650390625,-0.1356048583984375,1,0.94
2020-05-16 12:54:42.473 -0400,11791.553866125,1.443893432617188,0.5553436279296875,-0.1753997802734375,1,0.94
2020-05-16 12:54:42.538 -0400,11791.618841125,1.263839721679688,0.4748992919921875,-0.1357879638671875,1,0.94
2020-05-16 12:54:42.603 -0400,11791.683816125,1.210861206054688,0.388519287109375,-0.1103973388671875,1,0.94
2020-05-16 12:54:42.668 -0400,11791.748792125,1.044509887695312,0.356201171875,-0.0533905029296875,1,0.94
2020-05-16 12:54:42.733 -0400,11791.813767125,0.8880157470703125,0.2954559326171875,0.0134735107421875,1,0.94
2020-05-16 12:54:42.798 -0400,11791.878742125,0.788421630859375,0.298797607421875,0.03948974609375,1,0.94
2020-05-16 12:54:42.863 -0400,11791.943718125,0.823822021484375,0.3062591552734375,0.0413360595703125,1,0.94
2020-05-16 12:54:42.928 -0400,11792.008693125,0.7830352783203125,0.2793121337890625,0.025421142578125,1,0.94
2020-05-16 12:54:42.993 -0400,11792.073668125,0.7366180419921875,0.2732391357421875,-0.0045623779296875,1,0.94
2020-05-16 12:54:43.058 -0400,11792.138644125,0.71343994140625,0.3015594482421875,-0.04296875,1,0.94
2020-05-16 12:54:43.123 -0400,11792.20361975,0.8895416259765625,0.38153076171875,-0.1504974365234375,1,0.94
2020-05-16 12:54:43.188 -0400,11792.26859475,1.105926513671875,0.3847503662109375,-0.1943817138671875,1,0.94
2020-05-16 12:54:43.253 -0400,11792.33357075,1.401260375976562,0.472015380859375,-0.2935791015625,1,0.94
2020-05-16 12:54:43.318 -0400,11792.39854575,0.9777374267578125,0.502899169921875,-0.430145263671875,1,0.94
2020-05-16 12:54:43.383 -0400,11792.46352075,1.092605590820312,0.4050750732421875,-0.1966705322265625,1,0.94
2020-05-16 12:54:43.448 -0400,11792.52849575,0.7949676513671875,0.3973388671875,-0.267059326171875,1,0.94
2020-05-16 12:54:43.513 -0400,11792.59347175,0.6501312255859375,0.4915924072265625,-0.27484130859375,1,0.94
2020-05-16 12:54:43.577 -0400,11792.65844675,0.5897064208984375,0.4255523681640625,-0.2487030029296875,1,0.94
2020-05-16 12:54:43.643 -0400,11792.72342175,0.6934814453125,0.3787689208984375,-0.220855712890625,1,0.94
2020-05-16 12:54:43.707 -0400,11792.78839775,1.112167358398438,0.429351806640625,-0.24017333984375,1,0.94
2020-05-16 12:54:43.773 -0400,11792.85337275,1.387527465820312,0.42962646484375,-0.176666259765625,1,0.94
2020-05-16 12:54:43.837 -0400,11792.91834775,1.565933227539062,0.35406494140625,-0.052520751953125,1,0.94
2020-05-16 12:54:43.903 -0400,11792.98332375,1.155258178710938,0.31146240234375,-0.016815185546875,1,0.94
2020-05-16 12:54:43.967 -0400,11793.04829875,1.028823852539062,0.3717041015625,-0.0487823486328125,1,0.94
2020-05-16 12:54:44.033 -0400,11793.11327375,0.86956787109375,0.2985687255859375,0.035369873046875,1,0.94
2020-05-16 12:54:44.097 -0400,11793.17824975,0.7315521240234375,0.2591705322265625,0.0692291259765625,1,0.94
2020-05-16 12:54:44.162 -0400,11793.243224,0.7794647216796875,0.3428192138671875,0.022979736328125,1,0.94
2020-05-16 12:54:44.227 -0400,11793.308199,0.9082489013671875,0.380096435546875,0.0323944091796875,1,0.94
2020-05-16 12:54:44.292 -0400,11793.373174,0.8616943359375,0.380279541015625,-0.02923583984375,1,0.94
2020-05-16 12:54:44.357 -0400,11793.43815,0.84307861328125,0.4058380126953125,-0.0681610107421875,1,0.94
2020-05-16 12:54:44.422 -0400,11793.503125,0.9702301025390625,0.4626617431640625,-0.118133544921875,1,0.94
2020-05-16 12:54:44.487 -0400,11793.5681,1.004608154296875,0.4494476318359375,-0.135040283203125,1,0.94
2020-05-16 12:54:44.552 -0400,11793.633076,0.9227447509765625,0.390472412109375,-0.1081695556640625,1,0.94
2020-05-16 12:54:44.617 -0400,11793.698051,0.84881591796875,0.4505615234375,-0.128570556640625,1,0.94
2020-05-16 12:54:44.682 -0400,11793.763026,0.74200439453125,0.428558349609375,-0.08837890625,1,0.94
2020-05-16 12:54:44.747 -0400,11793.828002,0.722991943359375,0.3643035888671875,-0.038818359375,1,0.94
2020-05-16 12:54:44.813 -0400,11793.892977,1.643234252929688,0.40472412109375,0.0653533935546875,1,0.94
2020-05-16 12:54:44.877 -0400,11793.957952,1.1783447265625,0.775482177734375,-0.9074554443359375,1,0.94
2020-05-16 12:54:44.942 -0400,11794.022928,1.013641357421875,0.5165252685546875,-0.7133026123046875,1,0.94
2020-05-16 12:54:45.007 -0400,11794.087903,0.9640350341796875,-0.508392333984375,-0.3949737548828125,1,0.94
2020-05-16 12:54:45.072 -0400,11794.152878,0.8976287841796875,-0.15740966796875,-0.2520751953125,1,0.94
2020-05-16 12:54:45.137 -0400,11794.21785325,0.6489715576171875,-0.1317138671875,0.058868408203125,1,0.94
2020-05-16 12:54:45.202 -0400,11794.28282925,0.64483642578125,0.32452392578125,0.0098419189453125,1,0.94
2020-05-16 12:54:45.274 -0400,11794.34780425,0.519805908203125,0.3565826416015625,-0.0529022216796875,1,0.94
2020-05-16 12:54:45.332 -0400,11794.41277925,0.363983154296875,0.18072509765625,-0.150177001953125,1,0.94
2020-05-16 12:54:45.397 -0400,11794.47775525,0.2177276611328125,0.2321319580078125,-0.2984619140625,1,0.94
2020-05-16 12:54:45.462 -0400,11794.54273025,0.4196014404296875,0.2657470703125,-0.244354248046875,1,0.94
2020-05-16 12:54:45.527 -0400,11794.60770525,2.614578247070312,0.8960418701171875,-0.5019989013671875,1,0.94
2020-05-16 12:54:45.592 -0400,11794.67268125,1.5772705078125,0.979522705078125,-0.257354736328125,1,0.94
2020-05-16 12:54:45.657 -0400,11794.73765625,1.330413818359375,-0.097808837890625,-0.2111968994140625,1,0.94
2020-05-16 12:54:45.722 -0400,11794.80263125,0.9392242431640625,0.6290130615234375,-0.1376953125,1,0.94
2020-05-16 12:54:45.787 -0400,11794.86760625,0.6636505126953125,0.4734954833984375,-0.09417724609375,1,0.94
2020-05-16 12:54:45.852 -0400,11794.93258225,0.71893310546875,0.3556671142578125,0.011383056640625,1,0.94
2020-05-16 12:54:45.917 -0400,11794.99755725,0.7984466552734375,0.3058624267578125,-0.0070953369140625,1,0.94
2020-05-16 12:54:45.982 -0400,11795.06253225,0.86663818359375,0.3729248046875,0.0222625732421875,1,0.94
2020-05-16 12:54:46.047 -0400,11795.12750825,0.77801513671875,0.4168853759765625,-0.0781707763671875,1,0.94
2020-05-16 12:54:46.112 -0400,11795.19248316667,0.853973388671875,0.3988494873046875,-0.2661285400390625,1,0.94
2020-05-16 12:54:46.177 -0400,11795.25745816667,1.8143310546875,0.4768829345703125,-0.280670166015625,1,0.94
2020-05-16 12:54:46.242 -0400,11795.32243416667,0.927490234375,0.4431915283203125,-0.7284393310546875,1,0.94
2020-05-16 12:54:46.307 -0400,11795.38740916667,0.944427490234375,0.0448455810546875,-0.33685302734375,1,0.94
2020-05-16 12:54:46.371 -0400,11795.45238416667,0.7509613037109375,0.383056640625,-0.4354705810546875,1,0.94
2020-05-16 12:54:46.437 -0400,11795.51735916667,0.8021087646484375,0.3759307861328125,-0.36407470703125,1,0.94
2020-05-16 12:54:46.502 -0400,11795.58233516667,1.109878540039062,0.1683502197265625,-0.1631622314453125,1,0.94
2020-05-16 12:54:46.566 -0400,11795.64731016667,0.937713623046875,0.3087005615234375,-0.254608154296875,1,0.94
2020-05-16 12:54:46.632 -0400,11795.71228516667,0.7458343505859375,0.326812744140625,-0.2638702392578125,1,0.94
2020-05-16 12:54:46.696 -0400,11795.77726116667,0.800628662109375,0.303863525390625,-0.277435302734375,1,0.94
2020-05-16 12:54:46.762 -0400,11795.84223616667,0.888275146484375,0.29437255859375,-0.22515869140625,1,0.94
2020-05-16 12:54:46.826 -0400,11795.90721116667,0.8551483154296875,0.334442138671875,-0.190338134765625,1,0.94
2020-05-16 12:54:46.891 -0400,11795.97218616667,0.832550048828125,0.4206085205078125,-0.1426544189453125,1,0.94
2020-05-16 12:54:46.956 -0400,11796.03716216667,0.9842987060546875,0.5627288818359375,-0.1167449951171875,1,0.94
2020-05-16 12:54:47.021 -0400,11796.10213716667,1.006484985351562,0.64337158203125,-0.11724853515625,1,0.94
2020-05-16 12:54:47.086 -0400,11796.16711216667,0.8997802734375,0.6380615234375,-0.2144317626953125,1,0.94
2020-05-16 12:54:47.151 -0400,11796.23208875,0.938690185546875,0.684539794921875,-0.2158966064453125,1,0.94
2020-05-16 12:54:47.216 -0400,11796.29706375,0.85504150390625,0.629302978515625,-0.3563079833984375,1,0.94
2020-05-16 12:54:47.281 -0400,11796.36203875,0.8196868896484375,0.515380859375,-0.4064178466796875,1,0.94
2020-05-16 12:54:47.346 -0400,11796.42701375,0.9528656005859375,0.4573974609375,-0.4376220703125,1,0.94
2020-05-16 12:54:47.411 -0400,11796.49198975,1.10394287109375,0.3376007080078125,-0.4486541748046875,1,0.94
2020-05-16 12:54:47.476 -0400,11796.55696475,1.106964111328125,0.012664794921875,-0.323089599609375,1,0.94
2020-05-16 12:54:47.541 -0400,11796.62193975,0.931915283203125,0.2130889892578125,-0.28472900390625,1,0.94
2020-05-16 12:54:47.606 -0400,11796.68691575,0.858123779296875,0.5608978271484375,-0.1833953857421875,1,0.94
2020-05-16 12:54:47.671 -0400,11796.75189075,0.8440093994140625,0.40582275390625,-0.0757904052734375,1,0.94
2020-05-16 12:54:47.736 -0400,11796.81686575,0.8234710693359375,0.341766357421875,-0.064056396484375,1,0.94
2020-05-16 12:54:47.801 -0400,11796.88184075,0.80224609375,0.444580078125,-0.125762939453125,1,0.94
2020-05-16 12:54:47.866 -0400,11796.94681675,0.855621337890625,0.4417266845703125,-0.13470458984375,1,0.94
2020-05-16 12:54:47.931 -0400,11797.01179175,0.8922119140625,0.37310791015625,-0.180328369140625,1,0.94
2020-05-16 12:54:47.996 -0400,11797.07676675,0.8837890625,0.372802734375,-0.285186767578125,1,0.94
2020-05-16 12:54:48.061 -0400,11797.14174275,0.9311065673828125,0.3465576171875,-0.318389892578125,1,0.94
2020-05-16 12:54:48.126 -0400,11797.206717,0.85205078125,0.3640289306640625,-0.3313751220703125,1,0.94
2020-05-16 12:54:48.191 -0400,11797.271692,0.8488922119140625,0.546905517578125,-0.283843994140625,1,0.94
2020-05-16 12:54:48.256 -0400,11797.336667,1.010971069335938,0.417022705078125,-0.7200164794921875,1,0.94
2020-05-16 12:54:48.321 -0400,11797.401643,0.8571624755859375,0.5388031005859375,-0.688690185546875,1,0.94
2020-05-16 12:54:48.386 -0400,11797.466618,0.801513671875,0.552581787109375,-0.51959228515625,1,0.94
2020-05-16 12:54:48.451 -0400,11797.531593,0.65313720703125,0.3564453125,-0.6574249267578125,1,0.94
2020-05-16 12:54:48.516 -0400,11797.596568,0.532379150390625,0.278656005859375,-0.81695556640625,1,0.94
2020-05-16 12:54:48.581 -0400,11797.661544,0.4910736083984375,0.254486083984375,-0.9185943603515625,1,0.94
2020-05-16 12:54:48.646 -0400,11797.726519,0.4017181396484375,0.170989990234375,-0.88720703125,1,0.94
2020-05-16 12:54:48.711 -0400,11797.791494,0.310028076171875,0.1422882080078125,-0.874114990234375,1,0.94
2020-05-16 12:54:48.785 -0400,11797.85647,0.17333984375,0.088623046875,-0.837677001953125,1,0.94
2020-05-16 12:54:48.841 -0400,11797.921445,0.11810302734375,0.0851593017578125,-0.9205169677734375,1,0.94
2020-05-16 12:54:48.910 -0400,11797.991418,0.005218505859375,0.1274871826171875,-0.8743743896484375,1,0.94
2020-05-16 12:54:48.981 -0400,11798.061392,0.03656005859375,-0.0184478759765625,-0.8991241455078125,1,0.94
2020-05-16 12:54:49.051 -0400,11798.131365,0.03265380859375,0.0031890869140625,-0.901092529296875,1,0.94
2020-05-16 12:54:49.121 -0400,11798.201337,0.0911102294921875,0.071075439453125,-1.0037841796875,1,0.94
2020-05-16 12:54:49.191 -0400,11798.271311,0.109954833984375,-0.0018310546875,-0.9756927490234375,1,0.94
2020-05-16 12:54:49.260 -0400,11798.341284,0.0944976806640625,0.01953125,-0.99102783203125,1,0.94
2020-05-16 12:54:49.330 -0400,11798.411258,0.0607147216796875,0.038970947265625,-1.088150024414062,1,0.94
2020-05-16 12:54:49.401 -0400,11798.481231,0.0146636962890625,0.03912353515625,-0.9875640869140625,1,0.94
