loggingTime(txt),loggingSample(N),locationTimestamp_since1970(s),locationLatitude(WGS84),locationLongitude(WGS84),locationAltitude(m),locationSpeed(m/s),locationCourse(°),locationVerticalAccuracy(m),locationHorizontalAccuracy(m),locationFloor(Z),accelerometerTimestamp_sinceReboot(s),accelerometerAccelerationX(G),accelerometerAccelerationY(G),accelerometerAccelerationZ(G),batteryState,batteryLevel,label
2019-10-22 19:43:35.889 -0400,1,1571787815.015823,33.99261415887406,-81.03183503401159,71.34792,1.186738,326.6354175939622,3.198313902090508,4.857501952288175,-9999,437076.519307875,0.175506591796875,0.1256256103515625,-0.3580169677734375,1,0.81,5
2019-10-22 19:43:35.924 -0400,2,1571787815.015823,33.99261415887406,-81.03183503401159,71.34792,1.186738,326.6354175939622,3.198313902090508,4.857501952288175,-9999,437076.559289875,0.1961212158203125,-0.10546875,-0.2930908203125,1,0.81,5
2019-10-22 19:43:35.964 -0400,3,1571787815.015823,33.99261415887406,-81.03183503401159,71.34792,1.186738,326.6354175939622,3.198313902090508,4.857501952288175,-9999,437076.599271875,0.330657958984375,-0.068389892578125,-0.3297271728515625,1,0.81,5
2019-10-22 19:43:36.004 -0400,4,1571787815.015823,33.99261415887406,-81.03183503401159,71.34792,1.186738,326.6354175939622,3.198313902090508,4.857501952288175,-9999,437076.639253875,0.4822845458984375,-0.0157623291015625,-0.5091400146484375,1,0.81,5
2019-10-22 19:43:36.045 -0400,5,1571787815.015823,33.99261415887406,-81.03183503401159,71.34792,1.186738,326.6354175939622,3.198313902090508,4.857501952288175,-9999,437076.679234875,0.628509521484375,0.2131500244140625,-0.864501953125,1,0.81,5
2019-10-22 19:43:36.084 -0400,6,1571787815.015823,33.99261415887406,-81.03183503401159,71.34792,1.186738,326.6354175939622,3.198313902090508,4.857501952288175,-9999,437076.719216875,0.7250213623046875,0.2603759765625,-0.9029541015625,1,0.81,5
2019-10-22 19:43:36.124 -0400,7,1571787815.015823,33.99261415887406,-81.03183503401159,71.34792,1.186738,326.6354175939622,3.198313902090508,4.857501952288175,-9999,437076.7591988751,0.806976318359375,0.427581787109375,-0.9742584228515625,1,0.81,5
2019-10-22 19:43:36.164 -0400,8,1571787815.015823,33.99261415887406,-81.03183503401159,71.34792,1.186738,326.6354175939622,3.198313902090508,4.857501952288175,-9999,437076.799180875,0.888702392578125,0.4284820556640625,-0.860595703125,1,0.81,5
2019-10-22 19:43:36.204 -0400,9,1571787815.015823,33.99261415887406,-81.03183503401159,71.34792,1.186738,326.6354175939622,3.198313902090508,4.857501952288175,-9999,437076.839161875,1.353256225585938,0.817413330078125,-1.13238525390625,1,0.81,5
2019-10-22 19:43:36.244 -0400,10,1571787815.015823,33.99261415887406,-81.03183503401159,71.34792,1.186738,326.6354175939622,3.198313902090508,4.857501952288175,-9999,437076.879143875,1.070938110351562,0.897705078125,-0.84674072265625,1,0.81,5
2019-10-22 19:43:36.284 -0400,11,1571787815.015823,33.99261415887406,-81.03183503401159,71.34792,1.186738,326.6354175939622,3.198313902090508,4.857501952288175,-9999,437076.9191258751,0.9755706787109375,1.0584716796875,-0.9402618408203125,1,0.81,5
2019-10-22 19:43:36.325 -0400,12,1571787816.006854,33.99263496409488,-81.03184211314343,71.00194,1.113677,332.5542840926188,3.160822647671384,4.881980870789694,-9999,437076.959107875,0.8197021484375,1.155242919921875,-0.859771728515625,1,0.81,5
2019-10-22 19:43:36.365 -0400,13,1571787816.006854,33.99263496409488,-81.03184211314343,71.00194,1.113677,332.5542840926188,3.160822647671384,4.881980870789694,-9999,437076.999088875,0.8007049560546875,0.746673583984375,-0.5243988037109375,1,0.81,5
2019-10-22 19:43:36.404 -0400,14,1571787816.006854,33.99263496409488,-81.03184211314343,71.00194,1.113677,332.5542840926188,3.160822647671384,4.881980870789694,-9999,437077.039070875,0.7109832763671875,0.6424713134765625,-0.439605712890625,1,0.81,5
2019-10-22 19:43:36.452 -0400,15,1571787816.006854,33.99263496409488,-81.03184211314343,71.00194,1.113677,332.5542840926188,3.160822647671384,4.881980870789694,-9999,437077.0790528751,0.562591552734375,0.663116455078125,-0.3994598388671875,1,0.81,5
2019-10-22 19:43:36.484 -0400,16,1571787816.006854,33.99263496409488,-81.03184211314343,71.00194,1.113677,332.5542840926188,3.160822647671384,4.881980870789694,-9999,437077.119034875,0.4784393310546875,0.4622344970703125,-0.3266143798828125,1,0.81,5
2019-10-22 19:43:36.524 -0400,17,1571787816.006854,33.99263496409488,-81.03184211314343,71.00194,1.113677,332.5542840926188,3.160822647671384,4.881980870789694,-9999,437077.159016875,0.533843994140625,0.619842529296875,-0.4097442626953125,1,0.81,5
2019-10-22 19:43:36.565 -0400,18,1571787816.006854,33.99263496409488,-81.03184211314343,71.00194,1.113677,332.5542840926188,3.160822647671384,4.881980870789694,-9999,437077.198997875,0.5706939697265625,0.4400482177734375,-0.3833465576171875,1,0.81,5
2019-10-22 19:43:36.604 -0400,19,1571787816.006854,33.99263496409488,-81.03184211314343,71.00194,1.113677,332.5542840926188,3.160822647671384,4.881980870789694,-9999,437077.2389798751,0.6102447509765625,0.3317108154296875,-0.3563385009765625,1,0.81,5
2019-10-22 19:43:36.644 -0400,20,1571787816.006854,33.99263496409488,-81.03184211314343,71.00194,1.113677,332.5542840926188,3.160822647671384,4.881980870789694,-9999,437077.278961875,0.6472625732421875,0.3718414306640625,-0.3820343017578125,1,0.81,5
2019-10-22 19:43:36.685 -0400,21,1571787816.006854,33.99263496409488,-81.03184211314343,71.00194,1.113677,332.5542840926188,3.160822647671384,4.881980870789694,-9999,437077.318943875,0.774505615234375,0.411895751953125,-0.4701080322265625,1,0.81,5
2019-10-22 19:43:36.724 -0400,22,1571787816.006854,33.99263496409488,-81.03184211314343,71.00194,1.113677,332.5542840926188,3.160822647671384,4.881980870789694,-9999,437077.358924875,0.941314697265625,0.436187744140625,-0.4779510498046875,1,0.81,5
2019-10-22 19:43:36.764 -0400,23,1571787816.006854,33.99263496409488,-81.03184211314343,71.00194,1.113677,332.5542840926188,3.160822647671384,4.881980870789694,-9999,437077.3989068751,0.994232177734375,0.4145355224609375,-0.41259765625,1,0.81,5
2019-10-22 19:43:36.804 -0400,24,1571787816.006854,33.99263496409488,-81.03184211314343,71.00194,1.113677,332.5542840926188,3.160822647671384,4.881980870789694,-9999,437077.438888875,1.002410888671875,0.372406005859375,-0.3539581298828125,1,0.81,5
2019-10-22 19:43:36.844 -0400,25,1571787816.006854,33.99263496409488,-81.03184211314343,71.00194,1.113677,332.5542840926188,3.160822647671384,4.881980870789694,-9999,437077.478870875,0.926788330078125,0.360687255859375,-0.3566436767578125,1,0.81,5
2019-10-22 19:43:36.884 -0400,26,1571787816.006854,33.99263496409488,-81.03184211314343,71.00194,1.113677,332.5542840926188,3.160822647671384,4.881980870789694,-9999,437077.518851875,1.283157348632812,0.523345947265625,-0.3658599853515625,1,0.81,5
2019-10-22 19:43:36.924 -0400,27,1571787816.006854,33.99263496409488,-81.03184211314343,71.00194,1.113677,332.5542840926188,3.160822647671384,4.881980870789694,-9999,437077.5588338751,1.236953735351562,0.540191650390625,-0.2332611083984375,1,0.81,5
2019-10-22 19:43:36.964 -0400,28,1571787816.006854,33.99263496409488,-81.03184211314343,71.00194,1.113677,332.5542840926188,3.160822647671384,4.881980870789694,-9999,437077.598815875,0.935028076171875,0.3432159423828125,-0.147369384765625,1,0.81,5
2019-10-22 19:43:37.008 -0400,29,1571787816.006854,33.99263496409488,-81.03184211314343,71.00194,1.113677,332.5542840926188,3.160822647671384,4.881980870789694,-9999,437077.638797875,0.7294158935546875,0.3246307373046875,-0.177978515625,1,0.81,5
2019-10-22 19:43:37.044 -0400,30,1571787816.006854,33.99263496409488,-81.03184211314343,71.00194,1.113677,332.5542840926188,3.160822647671384,4.881980870789694,-9999,437077.678779875,0.59906005859375,0.3963775634765625,-0.19207763671875,1,0.81,5
2019-10-22 19:43:37.084 -0400,31,1571787816.006854,33.99263496409488,-81.03184211314343,71.00194,1.113677,332.5542840926188,3.160822647671384,4.881980870789694,-9999,437077.7187608751,0.566009521484375,0.4338836669921875,-0.1978912353515625,1,0.81,5
2019-10-22 19:43:37.124 -0400,32,1571787816.006854,33.99263496409488,-81.03184211314343,71.00194,1.113677,332.5542840926188,3.160822647671384,4.881980870789694,-9999,437077.758742875,0.6118621826171875,0.421875,-0.2078094482421875,1,0.81,5
2019-10-22 19:43:37.164 -0400,33,1571787816.006854,33.99263496409488,-81.03184211314343,71.00194,1.113677,332.5542840926188,3.160822647671384,4.881980870789694,-9999,437077.798724875,0.7750396728515625,0.4354400634765625,-0.2445831298828125,1,0.81,5
2019-10-22 19:43:37.204 -0400,34,1571787816.006854,33.99263496409488,-81.03184211314343,71.00194,1.113677,332.5542840926188,3.160822647671384,4.881980870789694,-9999,437077.838706875,0.9542999267578125,0.4200592041015625,-0.2843780517578125,1,0.81,5
2019-10-22 19:43:37.244 -0400,35,1571787816.006854,33.99263496409488,-81.03184211314343,71.00194,1.113677,332.5542840926188,3.160822647671384,4.881980870789694,-9999,437077.878688875,1.063507080078125,0.434051513671875,-0.3159637451171875,1,0.81,5
2019-10-22 19:43:37.284 -0400,36,1571787817.006851,33.99264442641466,-81.03184396101875,71.11212,1.054866,333.3452872179435,3.122162329432679,4.906795229216351,-9999,437077.918669875,1.171524047851562,0.5460357666015625,-0.3697052001953125,1,0.81,5
2019-10-22 19:43:37.324 -0400,37,1571787817.006851,33.99264442641466,-81.03184396101875,71.11212,1.054866,333.3452872179435,3.122162329432679,4.906795229216351,-9999,437077.958651875,1.414321899414062,0.6126556396484375,-0.3995361328125,1,0.81,5
2019-10-22 19:43:37.364 -0400,38,1571787817.006851,33.99264442641466,-81.03184396101875,71.11212,1.054866,333.3452872179435,3.122162329432679,4.906795229216351,-9999,437077.998633875,0.8535308837890625,0.51544189453125,-0.3868408203125,1,0.81,5
2019-10-22 19:43:37.404 -0400,39,1571787817.006851,33.99264442641466,-81.03184396101875,71.11212,1.054866,333.3452872179435,3.122162329432679,4.906795229216351,-9999,437078.038615875,1.163421630859375,0.6356658935546875,-0.3333740234375,1,0.81,5
2019-10-22 19:43:37.444 -0400,40,1571787817.006851,33.99264442641466,-81.03184396101875,71.11212,1.054866,333.3452872179435,3.122162329432679,4.906795229216351,-9999,437078.078596875,1.257781982421875,0.584716796875,-0.14349365234375,1,0.81,5
2019-10-22 19:43:37.484 -0400,41,1571787817.006851,33.99264442641466,-81.03184396101875,71.11212,1.054866,333.3452872179435,3.122162329432679,4.906795229216351,-9999,437078.118578875,1.113296508789062,0.4216766357421875,-0.11602783203125,1,0.81,5
2019-10-22 19:43:37.524 -0400,42,1571787817.006851,33.99264442641466,-81.03184396101875,71.11212,1.054866,333.3452872179435,3.122162329432679,4.906795229216351,-9999,437078.158560875,0.853607177734375,0.42626953125,-0.1292572021484375,1,0.81,5
2019-10-22 19:43:37.564 -0400,43,1571787817.006851,33.99264442641466,-81.03184396101875,71.11212,1.054866,333.3452872179435,3.122162329432679,4.906795229216351,-9999,437078.198542875,0.717864990234375,0.5212860107421875,-0.163055419921875,1,0.81,5
2019-10-22 19:43:37.604 -0400,44,1571787817.006851,33.99264442641466,-81.03184396101875,71.11212,1.054866,333.3452872179435,3.122162329432679,4.906795229216351,-9999,437078.238524875,0.695709228515625,0.4985198974609375,-0.1583251953125,1,0.81,5
2019-10-22 19:43:37.644 -0400,45,1571787817.006851,33.99264442641466,-81.03184396101875,71.11212,1.054866,333.3452872179435,3.122162329432679,4.906795229216351,-9999,437078.278506375,0.7257080078125,0.4298553466796875,-0.107086181640625,1,0.81,5
2019-10-22 19:43:37.684 -0400,46,1571787817.006851,33.99264442641466,-81.03184396101875,71.11212,1.054866,333.3452872179435,3.122162329432679,4.906795229216351,-9999,437078.3184883751,0.6970367431640625,0.360809326171875,-0.105224609375,1,0.81,5
2019-10-22 19:43:37.724 -0400,47,1571787817.006851,33.99264442641466,-81.03184396101875,71.11212,1.054866,333.3452872179435,3.122162329432679,4.906795229216351,-9999,437078.358470375,0.6967620849609375,0.3414764404296875,-0.106170654296875,1,0.81,5
2019-10-22 19:43:37.764 -0400,48,1571787817.006851,33.99264442641466,-81.03184396101875,71.11212,1.054866,333.3452872179435,3.122162329432679,4.906795229216351,-9999,437078.398452375,0.799560546875,0.3933258056640625,-0.1591796875,1,0.81,5
2019-10-22 19:43:37.804 -0400,49,1571787817.006851,33.99264442641466,-81.03184396101875,71.11212,1.054866,333.3452872179435,3.122162329432679,4.906795229216351,-9999,437078.438434375,0.9676513671875,0.42596435546875,-0.167938232421875,1,0.81,5
2019-10-22 19:43:37.844 -0400,50,1571787817.006851,33.99264442641466,-81.03184396101875,71.11212,1.054866,333.3452872179435,3.122162329432679,4.906795229216351,-9999,437078.4784153751,1.20941162109375,0.4417877197265625,-0.146728515625,1,0.81,5
2019-10-22 19:43:37.884 -0400,51,1571787817.006851,33.99264442641466,-81.03184396101875,71.11212,1.054866,333.3452872179435,3.122162329432679,4.906795229216351,-9999,437078.518397375,1.053192138671875,0.4124298095703125,-0.1845855712890625,1,0.81,5
2019-10-22 19:43:37.924 -0400,52,1571787817.006851,33.99264442641466,-81.03184396101875,71.11212,1.054866,333.3452872179435,3.122162329432679,4.906795229216351,-9999,437078.558379375,1.129653930664062,0.545196533203125,-0.387054443359375,1,0.81,5
2019-10-22 19:43:37.964 -0400,53,1571787817.006851,33.99264442641466,-81.03184396101875,71.11212,1.054866,333.3452872179435,3.122162329432679,4.906795229216351,-9999,437078.598361375,1.27227783203125,0.480224609375,-0.35693359375,1,0.81,5
2019-10-22 19:43:38.199 -0400,54,1571787817.006851,33.99264442641466,-81.03184396101875,71.11212,1.054866,333.3452872179435,3.122162329432679,4.906795229216351,-9999,437078.638343375,1.099288940429688,0.2342529296875,-0.1479339599609375,1,0.81,5
2019-10-22 19:43:38.202 -0400,55,1571787817.006851,33.99264442641466,-81.03184396101875,71.11212,1.054866,333.3452872179435,3.122162329432679,4.906795229216351,-9999,437078.678324375,0.9681549072265625,0.1274871826171875,-0.19921875,1,0.81,5
2019-10-22 19:43:38.204 -0400,56,1571787817.006851,33.99264442641466,-81.03184396101875,71.11212,1.054866,333.3452872179435,3.122162329432679,4.906795229216351,-9999,437078.718306375,0.793182373046875,0.351593017578125,-0.2928924560546875,1,0.81,5
2019-10-22 19:43:38.206 -0400,57,1571787817.006851,33.99264442641466,-81.03184396101875,71.11212,1.054866,333.3452872179435,3.122162329432679,4.906795229216351,-9999,437078.758288375,0.672607421875,0.4433135986328125,-0.2508697509765625,1,0.81,5
2019-10-22 19:43:38.208 -0400,58,1571787817.006851,33.99264442641466,-81.03184396101875,71.11212,1.054866,333.3452872179435,3.122162329432679,4.906795229216351,-9999,437078.798270375,0.6010284423828125,0.45648193359375,-0.258575439453125,1,0.81,5
2019-10-22 19:43:38.210 -0400,59,1571787817.006851,33.99264442641466,-81.03184396101875,71.11212,1.054866,333.3452872179435,3.122162329432679,4.906795229216351,-9999,437078.838252375,0.69000244140625,0.457305908203125,-0.3216094970703125,1,0.81,5
2019-10-22 19:43:38.244 -0400,60,1571787817.006851,33.99264442641466,-81.03184396101875,71.11212,1.054866,333.3452872179435,3.122162329432679,4.906795229216351,-9999,437078.878233375,0.7580108642578125,0.428619384765625,-0.3233489990234375,1,0.81,5
2019-10-22 19:43:38.284 -0400,61,1571787817.006851,33.99264442641466,-81.03184396101875,71.11212,1.054866,333.3452872179435,3.122162329432679,4.906795229216351,-9999,437078.918215375,0.8265838623046875,0.405670166015625,-0.3603515625,1,0.81,5
2019-10-22 19:43:38.328 -0400,62,1571787817.006851,33.99264442641466,-81.03184396101875,71.11212,1.054866,333.3452872179435,3.122162329432679,4.906795229216351,-9999,437078.958197375,0.987152099609375,0.4721832275390625,-0.436676025390625,1,0.81,5
2019-10-22 19:43:38.364 -0400,63,1571787818.006849,33.99266072605044,-81.03183768436661,70.92577,0.9885818,349.2342658579282,3.154661451860789,4.885964403977214,-9999,437078.998179375,1.150894165039062,0.498046875,-0.420684814453125,1,0.81,5
2019-10-22 19:43:38.404 -0400,64,1571787818.006849,33.99266072605044,-81.03183768436661,70.92577,0.9885818,349.2342658579282,3.154661451860789,4.885964403977214,-9999,437079.038161375,1.101119995117188,0.452117919921875,-0.3697662353515625,1,0.81,5
2019-10-22 19:43:38.443 -0400,65,1571787818.006849,33.99266072605044,-81.03183768436661,70.92577,0.9885818,349.2342658579282,3.154661451860789,4.885964403977214,-9999,437079.078142375,1.078781127929688,0.59161376953125,-0.4447174072265625,1,0.81,5
2019-10-22 19:43:38.483 -0400,66,1571787818.006849,33.99266072605044,-81.03183768436661,70.92577,0.9885818,349.2342658579282,3.154661451860789,4.885964403977214,-9999,437079.118124375,0.832305908203125,0.6556396484375,-0.483917236328125,1,0.81,5
2019-10-22 19:43:38.524 -0400,67,1571787818.006849,33.99266072605044,-81.03183768436661,70.92577,0.9885818,349.2342658579282,3.154661451860789,4.885964403977214,-9999,437079.158106375,1.36865234375,0.741058349609375,-0.3988494873046875,1,0.81,5
2019-10-22 19:43:38.563 -0400,68,1571787818.006849,33.99266072605044,-81.03183768436661,70.92577,0.9885818,349.2342658579282,3.154661451860789,4.885964403977214,-9999,437079.198088375,1.299514770507812,0.36846923828125,-0.134613037109375,1,0.81,5
2019-10-22 19:43:38.603 -0400,69,1571787818.006849,33.99266072605044,-81.03183768436661,70.92577,0.9885818,349.2342658579282,3.154661451860789,4.885964403977214,-9999,437079.2380703751,0.9050445556640625,0.2380523681640625,-0.1756744384765625,1,0.81,5
2019-10-22 19:43:38.643 -0400,70,1571787818.006849,33.99266072605044,-81.03183768436661,70.92577,0.9885818,349.2342658579282,3.154661451860789,4.885964403977214,-9999,437079.278051,0.789276123046875,0.3233184814453125,-0.1592559814453125,1,0.81,5
2019-10-22 19:43:38.683 -0400,71,1571787818.006849,33.99266072605044,-81.03183768436661,70.92577,0.9885818,349.2342658579282,3.154661451860789,4.885964403977214,-9999,437079.318033,0.6871185302734375,0.459136962890625,-0.1178131103515625,1,0.81,5
2019-10-22 19:43:38.723 -0400,72,1571787818.006849,33.99266072605044,-81.03183768436661,70.92577,0.9885818,349.2342658579282,3.154661451860789,4.885964403977214,-9999,437079.358015,0.6526336669921875,0.427581787109375,-0.085662841796875,1,0.81,5
2019-10-22 19:43:38.763 -0400,73,1571787818.006849,33.99266072605044,-81.03183768436661,70.92577,0.9885818,349.2342658579282,3.154661451860789,4.885964403977214,-9999,437079.397997,0.6679229736328125,0.358917236328125,-0.0706329345703125,1,0.81,5
2019-10-22 19:43:38.803 -0400,74,1571787818.006849,33.99266072605044,-81.03183768436661,70.92577,0.9885818,349.2342658579282,3.154661451860789,4.885964403977214,-9999,437079.437979,0.8254547119140625,0.3505859375,-0.10284423828125,1,0.81,5
2019-10-22 19:43:38.843 -0400,75,1571787818.006849,33.99266072605044,-81.03183768436661,70.92577,0.9885818,349.2342658579282,3.154661451860789,4.885964403977214,-9999,437079.4779610001,0.9543609619140625,0.328369140625,-0.115386962890625,1,0.81,5
2019-10-22 19:43:38.883 -0400,76,1571787818.006849,33.99266072605044,-81.03183768436661,70.92577,0.9885818,349.2342658579282,3.154661451860789,4.885964403977214,-9999,437079.517942,1.110565185546875,0.3104095458984375,-0.1563262939453125,1,0.81,5
2019-10-22 19:43:38.923 -0400,77,1571787818.006849,33.99266072605044,-81.03183768436661,70.92577,0.9885818,349.2342658579282,3.154661451860789,4.885964403977214,-9999,437079.557924,1.056488037109375,0.2797393798828125,-0.190032958984375,1,0.81,5
2019-10-22 19:43:38.963 -0400,78,1571787818.006849,33.99266072605044,-81.03183768436661,70.92577,0.9885818,349.2342658579282,3.154661451860789,4.885964403977214,-9999,437079.597906,1.191085815429688,0.39202880859375,-0.260406494140625,1,0.81,5
2019-10-22 19:43:39.003 -0400,79,1571787818.006849,33.99266072605044,-81.03183768436661,70.92577,0.9885818,349.2342658579282,3.154661451860789,4.885964403977214,-9999,437079.637888,0.888214111328125,0.3109283447265625,-0.3228912353515625,1,0.81,5
2019-10-22 19:43:39.043 -0400,80,1571787818.006849,33.99266072605044,-81.03183768436661,70.92577,0.9885818,349.2342658579282,3.154661451860789,4.885964403977214,-9999,437079.67787,1.17559814453125,0.4017791748046875,-0.3702239990234375,1,0.81,5
2019-10-22 19:43:39.083 -0400,81,1571787818.006849,33.99266072605044,-81.03183768436661,70.92577,0.9885818,349.2342658579282,3.154661451860789,4.885964403977214,-9999,437079.717851,1.294174194335938,0.3445587158203125,-0.28631591796875,1,0.81,5
2019-10-22 19:43:39.123 -0400,82,1571787818.006849,33.99266072605044,-81.03183768436661,70.92577,0.9885818,349.2342658579282,3.154661451860789,4.885964403977214,-9999,437079.757833,1.054275512695312,0.309356689453125,-0.200103759765625,1,0.81,5
2019-10-22 19:43:39.163 -0400,83,1571787818.006849,33.99266072605044,-81.03183768436661,70.92577,0.9885818,349.2342658579282,3.154661451860789,4.885964403977214,-9999,437079.797815,0.75250244140625,0.3209686279296875,-0.23260498046875,1,0.81,5
2019-10-22 19:43:39.203 -0400,84,1571787818.006849,33.99266072605044,-81.03183768436661,70.92577,0.9885818,349.2342658579282,3.154661451860789,4.885964403977214,-9999,437079.837797,0.6500396728515625,0.4819488525390625,-0.228424072265625,1,0.81,5
2019-10-22 19:43:39.243 -0400,85,1571787818.006849,33.99266072605044,-81.03183768436661,70.92577,0.9885818,349.2342658579282,3.154661451860789,4.885964403977214,-9999,437079.877779,0.6062774658203125,0.623687744140625,-0.26605224609375,1,0.81,5
2019-10-22 19:43:39.283 -0400,86,1571787818.006849,33.99266072605044,-81.03183768436661,70.92577,0.9885818,349.2342658579282,3.154661451860789,4.885964403977214,-9999,437079.91776,0.617340087890625,0.6291961669921875,-0.3438873291015625,1,0.81,5
2019-10-22 19:43:39.323 -0400,87,1571787819.006846,33.99268514141342,-81.03185171496686,71.22292,1.646993,341.5833288045129,3.17388684275261,4.87349764975738,-9999,437079.957742,0.7502899169921875,0.5399932861328125,-0.4091033935546875,1,0.81,5
2019-10-22 19:43:39.363 -0400,88,1571787819.006846,33.99268514141342,-81.03185171496686,71.22292,1.646993,341.5833288045129,3.17388684275261,4.87349764975738,-9999,437079.997724,0.8951568603515625,0.4759063720703125,-0.4390106201171875,1,0.81,5
2019-10-22 19:43:39.403 -0400,89,1571787819.006846,33.99268514141342,-81.03185171496686,71.22292,1.646993,341.5833288045129,3.17388684275261,4.87349764975738,-9999,437080.037706,1.12286376953125,0.4984893798828125,-0.513397216796875,1,0.81,5
2019-10-22 19:43:39.443 -0400,90,1571787819.006846,33.99268514141342,-81.03185171496686,71.22292,1.646993,341.5833288045129,3.17388684275261,4.87349764975738,-9999,437080.077688,1.2498779296875,0.5146942138671875,-0.472320556640625,1,0.81,5
2019-10-22 19:43:39.483 -0400,91,1571787819.006846,33.99268514141342,-81.03185171496686,71.22292,1.646993,341.5833288045129,3.17388684275261,4.87349764975738,-9999,437080.117669,1.430862426757812,0.56329345703125,-0.499176025390625,1,0.81,5
2019-10-22 19:43:39.523 -0400,92,1571787819.006846,33.99268514141342,-81.03185171496686,71.22292,1.646993,341.5833288045129,3.17388684275261,4.87349764975738,-9999,437080.157651,0.980194091796875,0.45526123046875,-0.4543914794921875,1,0.81,5
2019-10-22 19:43:39.563 -0400,93,1571787819.006846,33.99268514141342,-81.03185171496686,71.22292,1.646993,341.5833288045129,3.17388684275261,4.87349764975738,-9999,437080.197633,1.19854736328125,0.5512847900390625,-0.3333282470703125,1,0.81,5
2019-10-22 19:43:39.604 -0400,94,1571787819.006846,33.99268514141342,-81.03185171496686,71.22292,1.646993,341.5833288045129,3.17388684275261,4.87349764975738,-9999,437080.237615,1.16656494140625,0.519744873046875,-0.2552490234375,1,0.81,5
2019-10-22 19:43:39.643 -0400,95,1571787819.006846,33.99268514141342,-81.03185171496686,71.22292,1.646993,341.5833288045129,3.17388684275261,4.87349764975738,-9999,437080.277597375,1.03582763671875,0.370330810546875,-0.172149658203125,1,0.81,5
2019-10-22 19:43:39.683 -0400,96,1571787819.006846,33.99268514141342,-81.03185171496686,71.22292,1.646993,341.5833288045129,3.17388684275261,4.87349764975738,-9999,437080.317578375,0.8631591796875,0.3241729736328125,-0.100128173828125,1,0.81,5
2019-10-22 19:43:39.723 -0400,97,1571787819.006846,33.99268514141342,-81.03185171496686,71.22292,1.646993,341.5833288045129,3.17388684275261,4.87349764975738,-9999,437080.357560375,0.80389404296875,0.3731842041015625,-0.077545166015625,1,0.81,5
2019-10-22 19:43:39.763 -0400,98,1571787819.006846,33.99268514141342,-81.03185171496686,71.22292,1.646993,341.5833288045129,3.17388684275261,4.87349764975738,-9999,437080.397542375,0.81988525390625,0.40667724609375,-0.0795135498046875,1,0.81,5
2019-10-22 19:43:39.803 -0400,99,1571787819.006846,33.99268514141342,-81.03185171496686,71.22292,1.646993,341.5833288045129,3.17388684275261,4.87349764975738,-9999,437080.437524375,0.810028076171875,0.3751220703125,-0.05743408203125,1,0.81,5
2019-10-22 19:43:39.843 -0400,100,1571787819.006846,33.99268514141342,-81.03185171496686,71.22292,1.646993,341.5833288045129,3.17388684275261,4.87349764975738,-9999,437080.477506375,0.8169097900390625,0.31744384765625,-0.0482330322265625,1,0.81,5
2019-10-22 19:43:39.883 -0400,101,1571787819.006846,33.99268514141342,-81.03185171496686,71.22292,1.646993,341.5833288045129,3.17388684275261,4.87349764975738,-9999,437080.517487375,0.8578643798828125,0.3147125244140625,-0.0659332275390625,1,0.81,5
2019-10-22 19:43:39.923 -0400,102,1571787819.006846,33.99268514141342,-81.03185171496686,71.22292,1.646993,341.5833288045129,3.17388684275261,4.87349764975738,-9999,437080.557469375,0.9151458740234375,0.318023681640625,-0.084869384765625,1,0.81,5
2019-10-22 19:43:39.963 -0400,103,1571787819.006846,33.99268514141342,-81.03185171496686,71.22292,1.646993,341.5833288045129,3.17388684275261,4.87349764975738,-9999,437080.597451375,0.967254638671875,0.30950927734375,-0.11798095703125,1,0.81,5
2019-10-22 19:43:40.014 -0400,104,1571787819.006846,33.99268514141342,-81.03185171496686,71.22292,1.646993,341.5833288045129,3.17388684275261,4.87349764975738,-9999,437080.637433375,1.19580078125,0.4186859130859375,-0.19671630859375,1,0.81,5
2019-10-22 19:43:40.043 -0400,105,1571787819.006846,33.99268514141342,-81.03185171496686,71.22292,1.646993,341.5833288045129,3.17388684275261,4.87349764975738,-9999,437080.677415375,0.9405364990234375,0.3445587158203125,-0.257354736328125,1,0.81,5
2019-10-22 19:43:40.083 -0400,106,1571787819.006846,33.99268514141342,-81.03185171496686,71.22292,1.646993,341.5833288045129,3.17388684275261,4.87349764975738,-9999,437080.717397375,0.9331512451171875,0.4040374755859375,-0.3613128662109375,1,0.81,5
2019-10-22 19:43:40.123 -0400,107,1571787819.006846,33.99268514141342,-81.03185171496686,71.22292,1.646993,341.5833288045129,3.17388684275261,4.87349764975738,-9999,437080.757378375,1.201339721679688,0.4681854248046875,-0.4123077392578125,1,0.81,5
2019-10-22 19:43:40.163 -0400,108,1571787819.006846,33.99268514141342,-81.03185171496686,71.22292,1.646993,341.5833288045129,3.17388684275261,4.87349764975738,-9999,437080.797360375,1.157928466796875,0.3815460205078125,-0.2640838623046875,1,0.81,5
2019-10-22 19:43:40.203 -0400,109,1571787819.006846,33.99268514141342,-81.03185171496686,71.22292,1.646993,341.5833288045129,3.17388684275261,4.87349764975738,-9999,437080.837342375,0.8748626708984375,0.2196502685546875,-0.2892913818359375,1,0.81,5
2019-10-22 19:43:40.243 -0400,110,1571787819.006846,33.99268514141342,-81.03185171496686,71.22292,1.646993,341.5833288045129,3.17388684275261,4.87349764975738,-9999,437080.877324375,0.72784423828125,0.3383636474609375,-0.3304290771484375,1,0.81,5
2019-10-22 19:43:40.283 -0400,111,1571787819.006846,33.99268514141342,-81.03185171496686,71.22292,1.646993,341.5833288045129,3.17388684275261,4.87349764975738,-9999,437080.917305375,0.69146728515625,0.4498443603515625,-0.3274383544921875,1,0.81,5
2019-10-22 19:43:40.324 -0400,112,1571787819.006846,33.99268514141342,-81.03185171496686,71.22292,1.646993,341.5833288045129,3.17388684275261,4.87349764975738,-9999,437080.957287375,0.7183837890625,0.5001220703125,-0.3812103271484375,1,0.81,5
2019-10-22 19:43:40.363 -0400,113,1571787819.006846,33.99268514141342,-81.03185171496686,71.22292,1.646993,341.5833288045129,3.17388684275261,4.87349764975738,-9999,437080.997269375,0.7957916259765625,0.465240478515625,-0.4381103515625,1,0.81,5
2019-10-22 19:43:40.402 -0400,114,1571787819.006846,33.99268514141342,-81.03185171496686,71.22292,1.646993,341.5833288045129,3.17388684275261,4.87349764975738,-9999,437081.037251375,0.9158172607421875,0.4384918212890625,-0.47149658203125,1,0.81,5
2019-10-22 19:43:40.443 -0400,115,1571787819.006846,33.99268514141342,-81.03185171496686,71.22292,1.646993,341.5833288045129,3.17388684275261,4.87349764975738,-9999,437081.0772333751,1.00201416015625,0.424041748046875,-0.4788818359375,1,0.81,5
2019-10-22 19:43:40.483 -0400,116,1571787820.006844,33.99268760406704,-81.03185893885353,72.35206,1.199351,339.7341117382276,3.210719107561624,4.849311275338749,-9999,437081.117215375,1.156204223632812,0.5187835693359375,-0.5046234130859375,1,0.81,5
2019-10-22 19:43:40.523 -0400,117,1571787820.006844,33.99268760406704,-81.03185893885353,72.35206,1.199351,339.7341117382276,3.210719107561624,4.849311275338749,-9999,437081.157196375,1.508560180664062,0.5943450927734375,-0.5218505859375,1,0.81,5
2019-10-22 19:43:40.562 -0400,118,1571787820.006844,33.99268760406704,-81.03185893885353,72.35206,1.199351,339.7341117382276,3.210719107561624,4.849311275338749,-9999,437081.197178375,1.214859008789062,0.489227294921875,-0.448577880859375,1,0.81,5
2019-10-22 19:43:40.602 -0400,119,1571787820.006844,33.99268760406704,-81.03185893885353,72.35206,1.199351,339.7341117382276,3.210719107561624,4.849311275338749,-9999,437081.2371603751,0.958709716796875,0.426605224609375,-0.3784027099609375,1,0.81,5
2019-10-22 19:43:40.642 -0400,120,1571787820.006844,33.99268760406704,-81.03185893885353,72.35206,1.199351,339.7341117382276,3.210719107561624,4.849311275338749,-9999,437081.2771425417,1.196701049804688,0.56292724609375,-0.2878265380859375,1,0.81,5
2019-10-22 19:43:40.683 -0400,121,1571787820.006844,33.99268760406704,-81.03185893885353,72.35206,1.199351,339.7341117382276,3.210719107561624,4.849311275338749,-9999,437081.3171245417,1.239089965820312,0.3947296142578125,-0.1590576171875,1,0.81,5
2019-10-22 19:43:40.722 -0400,122,1571787820.006844,33.99268760406704,-81.03185893885353,72.35206,1.199351,339.7341117382276,3.210719107561624,4.849311275338749,-9999,437081.3571055417,0.979461669921875,0.2933502197265625,-0.0707550048828125,1,0.81,5
2019-10-22 19:43:40.762 -0400,123,1571787820.006844,33.99268760406704,-81.03185893885353,72.35206,1.199351,339.7341117382276,3.210719107561624,4.849311275338749,-9999,437081.3970875417,0.8095550537109375,0.3170166015625,-0.041900634765625,1,0.81,5
2019-10-22 19:43:40.802 -0400,124,1571787820.006844,33.99268760406704,-81.03185893885353,72.35206,1.199351,339.7341117382276,3.210719107561624,4.849311275338749,-9999,437081.4370695417,0.7279815673828125,0.4057769775390625,-0.0579071044921875,1,0.81,5
2019-10-22 19:43:40.842 -0400,125,1571787820.006844,33.99268760406704,-81.03185893885353,72.35206,1.199351,339.7341117382276,3.210719107561624,4.849311275338749,-9999,437081.4770515417,0.739593505859375,0.424041748046875,-0.060516357421875,1,0.81,5
2019-10-22 19:43:40.882 -0400,126,1571787820.006844,33.99268760406704,-81.03185893885353,72.35206,1.199351,339.7341117382276,3.210719107561624,4.849311275338749,-9999,437081.5170335417,0.7895355224609375,0.35638427734375,-0.0420379638671875,1,0.81,5
2019-10-22 19:43:40.922 -0400,127,1571787820.006844,33.99268760406704,-81.03185893885353,72.35206,1.199351,339.7341117382276,3.210719107561624,4.849311275338749,-9999,437081.5570145417,0.82415771484375,0.2943878173828125,-0.0254364013671875,1,0.81,5
2019-10-22 19:43:40.969 -0400,128,1571787820.006844,33.99268760406704,-81.03185893885353,72.35206,1.199351,339.7341117382276,3.210719107561624,4.849311275338749,-9999,437081.5969965417,0.9100341796875,0.3037109375,-0.0598907470703125,1,0.81,5
2019-10-22 19:43:41.002 -0400,129,1571787820.006844,33.99268760406704,-81.03185893885353,72.35206,1.199351,339.7341117382276,3.210719107561624,4.849311275338749,-9999,437081.6369785417,1.064849853515625,0.3387603759765625,-0.1051483154296875,1,0.81,5
2019-10-22 19:43:41.042 -0400,130,1571787820.006844,33.99268760406704,-81.03185893885353,72.35206,1.199351,339.7341117382276,3.210719107561624,4.849311275338749,-9999,437081.6769605417,1.0537109375,0.3347320556640625,-0.1306915283203125,1,0.81,5
2019-10-22 19:43:41.082 -0400,131,1571787820.006844,33.99268760406704,-81.03185893885353,72.35206,1.199351,339.7341117382276,3.210719107561624,4.849311275338749,-9999,437081.7169425417,1.207183837890625,0.41107177734375,-0.2117919921875,1,0.81,5
2019-10-22 19:43:41.122 -0400,132,1571787820.006844,33.99268760406704,-81.03185893885353,72.35206,1.199351,339.7341117382276,3.210719107561624,4.849311275338749,-9999,437081.7569235417,0.9183807373046875,0.384765625,-0.318145751953125,1,0.81,5
2019-10-22 19:43:41.162 -0400,133,1571787820.006844,33.99268760406704,-81.03185893885353,72.35206,1.199351,339.7341117382276,3.210719107561624,4.849311275338749,-9999,437081.7969055417,1.125946044921875,0.4049835205078125,-0.4051055908203125,1,0.81,5
2019-10-22 19:43:41.202 -0400,134,1571787820.006844,33.99268760406704,-81.03185893885353,72.35206,1.199351,339.7341117382276,3.210719107561624,4.849311275338749,-9999,437081.8368875417,1.262908935546875,0.4470062255859375,-0.3682708740234375,1,0.81,5
2019-10-22 19:43:41.242 -0400,135,1571787820.006844,33.99268760406704,-81.03185893885353,72.35206,1.199351,339.7341117382276,3.210719107561624,4.849311275338749,-9999,437081.8768695417,1.069076538085938,0.3136138916015625,-0.2751312255859375,1,0.81,5
2019-10-22 19:43:41.282 -0400,136,1571787820.006844,33.99268760406704,-81.03185893885353,72.35206,1.199351,339.7341117382276,3.210719107561624,4.849311275338749,-9999,437081.9168515417,0.7510223388671875,0.26678466796875,-0.3193511962890625,1,0.81,5
2019-10-22 19:43:41.322 -0400,137,1571787821.006842,33.99270181048308,-81.03187075874014,71.01421,1.389824,334.9172100393913,3.229318152669214,4.836945451587182,-9999,437081.9568325417,0.6066131591796875,0.3538818359375,-0.284210205078125,1,0.81,5
2019-10-22 19:43:41.362 -0400,138,1571787821.006842,33.99270181048308,-81.03187075874014,71.01421,1.389824,334.9172100393913,3.229318152669214,4.836945451587182,-9999,437081.9968145417,0.5767822265625,0.47393798828125,-0.27587890625,1,0.81,5
2019-10-22 19:43:41.402 -0400,139,1571787821.006842,33.99270181048308,-81.03187075874014,71.01421,1.389824,334.9172100393913,3.229318152669214,4.836945451587182,-9999,437082.0367965417,0.64996337890625,0.5185699462890625,-0.314239501953125,1,0.81,5
2019-10-22 19:43:41.442 -0400,140,1571787821.006842,33.99270181048308,-81.03187075874014,71.01421,1.389824,334.9172100393913,3.229318152669214,4.836945451587182,-9999,437082.0767785417,0.8172760009765625,0.4887542724609375,-0.3727264404296875,1,0.81,5
2019-10-22 19:43:41.482 -0400,141,1571787821.006842,33.99270181048308,-81.03187075874014,71.01421,1.389824,334.9172100393913,3.229318152669214,4.836945451587182,-9999,437082.1167605417,0.945159912109375,0.4050445556640625,-0.357147216796875,1,0.81,5
2019-10-22 19:43:41.522 -0400,142,1571787821.006842,33.99270181048308,-81.03187075874014,71.01421,1.389824,334.9172100393913,3.229318152669214,4.836945451587182,-9999,437082.1567415417,1.1343994140625,0.4260711669921875,-0.3848876953125,1,0.81,5
2019-10-22 19:43:41.562 -0400,143,1571787821.006842,33.99270181048308,-81.03187075874014,71.01421,1.389824,334.9172100393913,3.229318152669214,4.836945451587182,-9999,437082.1967235417,1.297164916992188,0.5465850830078125,-0.4278106689453125,1,0.81,5
2019-10-22 19:43:41.602 -0400,144,1571787821.006842,33.99270181048308,-81.03187075874014,71.01421,1.389824,334.9172100393913,3.229318152669214,4.836945451587182,-9999,437082.2367055417,1.479507446289062,0.5557098388671875,-0.3663177490234375,1,0.81,5
2019-10-22 19:43:41.642 -0400,145,1571787821.006842,33.99270181048308,-81.03187075874014,71.01421,1.389824,334.9172100393913,3.229318152669214,4.836945451587182,-9999,437082.276687625,0.872711181640625,0.465362548828125,-0.426300048828125,1,0.81,5
2019-10-22 19:43:41.682 -0400,146,1571787821.006842,33.99270181048308,-81.03187075874014,71.01421,1.389824,334.9172100393913,3.229318152669214,4.836945451587182,-9999,437082.3166696251,1.115142822265625,0.5505218505859375,-0.37066650390625,1,0.81,5
2019-10-22 19:43:41.722 -0400,147,1571787821.006842,33.99270181048308,-81.03187075874014,71.01421,1.389824,334.9172100393913,3.229318152669214,4.836945451587182,-9999,437082.356650625,1.323516845703125,0.44805908203125,-0.2254791259765625,1,0.81,5
2019-10-22 19:43:41.762 -0400,148,1571787821.006842,33.99270181048308,-81.03187075874014,71.01421,1.389824,334.9172100393913,3.229318152669214,4.836945451587182,-9999,437082.396632625,1.24530029296875,0.220458984375,-0.1079559326171875,1,0.81,5
2019-10-22 19:43:41.802 -0400,149,1571787821.006842,33.99270181048308,-81.03187075874014,71.01421,1.389824,334.9172100393913,3.229318152669214,4.836945451587182,-9999,437082.436614625,0.975341796875,0.220062255859375,-0.0909271240234375,1,0.81,5
2019-10-22 19:43:41.842 -0400,150,1571787821.006842,33.99270181048308,-81.03187075874014,71.01421,1.389824,334.9172100393913,3.229318152669214,4.836945451587182,-9999,437082.476596625,0.8395538330078125,0.3289031982421875,-0.06414794921875,1,0.81,5
2019-10-22 19:43:41.882 -0400,151,1571787821.006842,33.99270181048308,-81.03187075874014,71.01421,1.389824,334.9172100393913,3.229318152669214,4.836945451587182,-9999,437082.516577625,0.7417449951171875,0.377685546875,-0.02728271484375,1,0.81,5
2019-10-22 19:43:41.922 -0400,152,1571787821.006842,33.99270181048308,-81.03187075874014,71.01421,1.389824,334.9172100393913,3.229318152669214,4.836945451587182,-9999,437082.556559625,0.714874267578125,0.3585052490234375,-0.0045013427734375,1,0.81,5
2019-10-22 19:43:41.962 -0400,153,1571787821.006842,33.99270181048308,-81.03187075874014,71.01421,1.389824,334.9172100393913,3.229318152669214,4.836945451587182,-9999,437082.596541625,0.7206878662109375,0.337371826171875,-0.0019989013671875,1,0.81,5
2019-10-22 19:43:42.013 -0400,154,1571787821.006842,33.99270181048308,-81.03187075874014,71.01421,1.389824,334.9172100393913,3.229318152669214,4.836945451587182,-9999,437082.636523625,0.7138671875,0.2960205078125,-0.0196380615234375,1,0.81,5
2019-10-22 19:43:42.042 -0400,155,1571787821.006842,33.99270181048308,-81.03187075874014,71.01421,1.389824,334.9172100393913,3.229318152669214,4.836945451587182,-9999,437082.676505625,0.7910614013671875,0.3133392333984375,-0.0494537353515625,1,0.81,5
2019-10-22 19:43:42.082 -0400,156,1571787821.006842,33.99270181048308,-81.03187075874014,71.01421,1.389824,334.9172100393913,3.229318152669214,4.836945451587182,-9999,437082.716486625,0.927947998046875,0.3331756591796875,-0.074676513671875,1,0.81,5
2019-10-22 19:43:42.122 -0400,157,1571787821.006842,33.99270181048308,-81.03187075874014,71.01421,1.389824,334.9172100393913,3.229318152669214,4.836945451587182,-9999,437082.756468625,1.047775268554688,0.364501953125,-0.145233154296875,1,0.81,5
2019-10-22 19:43:42.162 -0400,158,1571787821.006842,33.99270181048308,-81.03187075874014,71.01421,1.389824,334.9172100393913,3.229318152669214,4.836945451587182,-9999,437082.796450625,1.277328491210938,0.454071044921875,-0.2043609619140625,1,0.81,5
2019-10-22 19:43:42.202 -0400,159,1571787821.006842,33.99270181048308,-81.03187075874014,71.01421,1.389824,334.9172100393913,3.229318152669214,4.836945451587182,-9999,437082.836432625,1.045303344726562,0.3911285400390625,-0.3292388916015625,1,0.81,5
2019-10-22 19:43:42.242 -0400,160,1571787821.006842,33.99270181048308,-81.03187075874014,71.01421,1.389824,334.9172100393913,3.229318152669214,4.836945451587182,-9999,437082.876414625,1.30157470703125,0.38873291015625,-0.370697021484375,1,0.81,5
2019-10-22 19:43:42.282 -0400,161,1571787822.00684,33.99270923978087,-81.03187836568472,73.10108,1.126771,332.1711744898213,3.229765227216388,4.836646938722395,-9999,437082.916395625,1.30126953125,0.376251220703125,-0.2473907470703125,1,0.81,5
2019-10-22 19:43:42.322 -0400,162,1571787822.00684,33.99270923978087,-81.03187836568472,73.10108,1.126771,332.1711744898213,3.229765227216388,4.836646938722395,-9999,437082.956377625,0.982513427734375,0.2383575439453125,-0.1996917724609375,1,0.81,5
2019-10-22 19:43:42.362 -0400,163,1571787822.00684,33.99270923978087,-81.03187836568472,73.10108,1.126771,332.1711744898213,3.229765227216388,4.836646938722395,-9999,437082.996359625,0.7401580810546875,0.3056182861328125,-0.2819976806640625,1,0.81,5
2019-10-22 19:43:42.402 -0400,164,1571787822.00684,33.99270923978087,-81.03187836568472,73.10108,1.126771,332.1711744898213,3.229765227216388,4.836646938722395,-9999,437083.036341625,0.671539306640625,0.4383392333984375,-0.2465362548828125,1,0.81,5
2019-10-22 19:43:42.442 -0400,165,1571787822.00684,33.99270923978087,-81.03187836568472,73.10108,1.126771,332.1711744898213,3.229765227216388,4.836646938722395,-9999,437083.076323625,0.640655517578125,0.5215301513671875,-0.242950439453125,1,0.81,5
2019-10-22 19:43:42.482 -0400,166,1571787822.00684,33.99270923978087,-81.03187836568472,73.10108,1.126771,332.1711744898213,3.229765227216388,4.836646938722395,-9999,437083.116304625,0.696441650390625,0.53857421875,-0.31414794921875,1,0.81,5
2019-10-22 19:43:42.522 -0400,167,1571787822.00684,33.99270923978087,-81.03187836568472,73.10108,1.126771,332.1711744898213,3.229765227216388,4.836646938722395,-9999,437083.156286625,0.8232574462890625,0.4489898681640625,-0.33221435546875,1,0.81,5
2019-10-22 19:43:42.562 -0400,168,1571787822.00684,33.99270923978087,-81.03187836568472,73.10108,1.126771,332.1711744898213,3.229765227216388,4.836646938722395,-9999,437083.196268625,0.9196929931640625,0.4122314453125,-0.3392486572265625,1,0.81,5
2019-10-22 19:43:42.602 -0400,169,1571787822.00684,33.99270923978087,-81.03187836568472,73.10108,1.126771,332.1711744898213,3.229765227216388,4.836646938722395,-9999,437083.2362506251,1.03717041015625,0.47613525390625,-0.4037933349609375,1,0.81,5
2019-10-22 19:43:42.642 -0400,170,1571787822.00684,33.99270923978087,-81.03187836568472,73.10108,1.126771,332.1711744898213,3.229765227216388,4.836646938722395,-9999,437083.276231875,1.19842529296875,0.560638427734375,-0.4320526123046875,1,0.81,5
2019-10-22 19:43:42.682 -0400,171,1571787822.00684,33.99270923978087,-81.03187836568472,73.10108,1.126771,332.1711744898213,3.229765227216388,4.836646938722395,-9999,437083.316213875,1.408447265625,0.6128997802734375,-0.4572906494140625,1,0.81,5
2019-10-22 19:43:42.722 -0400,172,1571787822.00684,33.99270923978087,-81.03187836568472,73.10108,1.126771,332.1711744898213,3.229765227216388,4.836646938722395,-9999,437083.356195875,0.92547607421875,0.4318084716796875,-0.36859130859375,1,0.81,5
2019-10-22 19:43:42.762 -0400,173,1571787822.00684,33.99270923978087,-81.03187836568472,73.10108,1.126771,332.1711744898213,3.229765227216388,4.836646938722395,-9999,437083.3961778751,1.128463745117188,0.5303802490234375,-0.3078460693359375,1,0.81,5
2019-10-22 19:43:42.802 -0400,174,1571787822.00684,33.99270923978087,-81.03187836568472,73.10108,1.126771,332.1711744898213,3.229765227216388,4.836646938722395,-9999,437083.436159875,1.217559814453125,0.4493865966796875,-0.2269287109375,1,0.81,5
2019-10-22 19:43:42.841 -0400,175,1571787822.00684,33.99270923978087,-81.03187836568472,73.10108,1.126771,332.1711744898213,3.229765227216388,4.836646938722395,-9999,437083.476140875,1.065093994140625,0.30633544921875,-0.0836029052734375,1,0.81,5
2019-10-22 19:43:42.881 -0400,176,1571787822.00684,33.99270923978087,-81.03187836568472,73.10108,1.126771,332.1711744898213,3.229765227216388,4.836646938722395,-9999,437083.516122875,0.8856658935546875,0.3386688232421875,-0.0685882568359375,1,0.81,5
2019-10-22 19:43:42.922 -0400,177,1571787822.00684,33.99270923978087,-81.03187836568472,73.10108,1.126771,332.1711744898213,3.229765227216388,4.836646938722395,-9999,437083.5561048751,0.80706787109375,0.4256134033203125,-0.0973663330078125,1,0.81,5
2019-10-22 19:43:42.964 -0400,178,1571787822.00684,33.99270923978087,-81.03187836568472,73.10108,1.126771,332.1711744898213,3.229765227216388,4.836646938722395,-9999,437083.596086875,0.8229827880859375,0.42864990234375,-0.07135009765625,1,0.81,5
2019-10-22 19:43:43.002 -0400,179,1571787822.00684,33.99270923978087,-81.03187836568472,73.10108,1.126771,332.1711744898213,3.229765227216388,4.836646938722395,-9999,437083.636067875,0.8274688720703125,0.3645172119140625,-0.02716064453125,1,0.81,5
2019-10-22 19:43:43.041 -0400,180,1571787822.00684,33.99270923978087,-81.03187836568472,73.10108,1.126771,332.1711744898213,3.229765227216388,4.836646938722395,-9999,437083.676049875,0.8154754638671875,0.323211669921875,-0.0501556396484375,1,0.81,5
2019-10-22 19:43:43.082 -0400,181,1571787822.00684,33.99270923978087,-81.03187836568472,73.10108,1.126771,332.1711744898213,3.229765227216388,4.836646938722395,-9999,437083.7160318751,0.8419342041015625,0.314544677734375,-0.0753631591796875,1,0.81,5
2019-10-22 19:43:43.121 -0400,182,1571787822.00684,33.99270923978087,-81.03187836568472,73.10108,1.126771,332.1711744898213,3.229765227216388,4.836646938722395,-9999,437083.756013875,0.9246826171875,0.3422088623046875,-0.121246337890625,1,0.81,5
2019-10-22 19:43:43.161 -0400,183,1571787822.00684,33.99270923978087,-81.03187836568472,73.10108,1.126771,332.1711744898213,3.229765227216388,4.836646938722395,-9999,437083.795995875,0.970794677734375,0.321746826171875,-0.1503448486328125,1,0.81,5
2019-10-22 19:43:43.201 -0400,184,1571787822.00684,33.99270923978087,-81.03187836568472,73.10108,1.126771,332.1711744898213,3.229765227216388,4.836646938722395,-9999,437083.835976875,1.186447143554688,0.3822479248046875,-0.190826416015625,1,0.81,5
2019-10-22 19:43:43.241 -0400,185,1571787822.00684,33.99270923978087,-81.03187836568472,73.10108,1.126771,332.1711744898213,3.229765227216388,4.836646938722395,-9999,437083.8759588751,0.9355926513671875,0.34576416015625,-0.2562103271484375,1,0.81,5
2019-10-22 19:43:43.281 -0400,186,1571787822.00684,33.99270923978087,-81.03187836568472,73.10108,1.126771,332.1711744898213,3.229765227216388,4.836646938722395,-9999,437083.915940875,0.983123779296875,0.4027557373046875,-0.313568115234375,1,0.81,5
2019-10-22 19:43:43.321 -0400,187,1571787823.006837,33.99271941508941,-81.03188727827882,72.47803,1.142579,325.7896520379768,3.187576225354469,4.86455494781833,-9999,437083.955922875,1.209304809570312,0.4586181640625,-0.378387451171875,1,0.81,5
2019-10-22 19:43:43.361 -0400,188,1571787823.006837,33.99271941508941,-81.03188727827882,72.47803,1.142579,325.7896520379768,3.187576225354469,4.86455494781833,-9999,437083.995904875,1.114944458007812,0.38507080078125,-0.267425537109375,1,0.81,5
2019-10-22 19:43:43.401 -0400,189,1571787823.006837,33.99271941508941,-81.03188727827882,72.47803,1.142579,325.7896520379768,3.187576225354469,4.86455494781833,-9999,437084.0358858751,0.8404388427734375,0.242919921875,-0.2655792236328125,1,0.81,5
2019-10-22 19:43:43.441 -0400,190,1571787823.006837,33.99271941508941,-81.03188727827882,72.47803,1.142579,325.7896520379768,3.187576225354469,4.86455494781833,-9999,437084.075867875,0.704742431640625,0.333251953125,-0.2899017333984375,1,0.81,5
2019-10-22 19:43:43.481 -0400,191,1571787823.006837,33.99271941508941,-81.03188727827882,72.47803,1.142579,325.7896520379768,3.187576225354469,4.86455494781833,-9999,437084.115849875,0.6730194091796875,0.419891357421875,-0.2788543701171875,1,0.81,5
2019-10-22 19:43:43.521 -0400,192,1571787823.006837,33.99271941508941,-81.03188727827882,72.47803,1.142579,325.7896520379768,3.187576225354469,4.86455494781833,-9999,437084.155831875,0.7187652587890625,0.4663543701171875,-0.305999755859375,1,0.81,5
2019-10-22 19:43:43.561 -0400,193,1571787823.006837,33.99271941508941,-81.03188727827882,72.47803,1.142579,325.7896520379768,3.187576225354469,4.86455494781833,-9999,437084.195812875,0.767303466796875,0.4697418212890625,-0.34600830078125,1,0.81,5
2019-10-22 19:43:43.601 -0400,194,1571787823.006837,33.99271941508941,-81.03188727827882,72.47803,1.142579,325.7896520379768,3.187576225354469,4.86455494781833,-9999,437084.235794875,0.892974853515625,0.4506378173828125,-0.402374267578125,1,0.81,5
2019-10-22 19:43:43.641 -0400,195,1571787823.006837,33.99271941508941,-81.03188727827882,72.47803,1.142579,325.7896520379768,3.187576225354469,4.86455494781833,-9999,437084.2757765417,0.9973602294921875,0.4575958251953125,-0.43328857421875,1,0.81,5
2019-10-22 19:43:43.681 -0400,196,1571787823.006837,33.99271941508941,-81.03188727827882,72.47803,1.142579,325.7896520379768,3.187576225354469,4.86455494781833,-9999,437084.3157585417,1.145477294921875,0.5371856689453125,-0.4744720458984375,1,0.81,5
2019-10-22 19:43:43.721 -0400,197,1571787823.006837,33.99271941508941,-81.03188727827882,72.47803,1.142579,325.7896520379768,3.187576225354469,4.86455494781833,-9999,437084.3557405417,1.37835693359375,0.5841522216796875,-0.489013671875,1,0.81,5
2019-10-22 19:43:43.761 -0400,198,1571787823.006837,33.99271941508941,-81.03188727827882,72.47803,1.142579,325.7896520379768,3.187576225354469,4.86455494781833,-9999,437084.3957215417,1.010604858398438,0.5117950439453125,-0.496795654296875,1,0.81,5
2019-10-22 19:43:43.801 -0400,199,1571787823.006837,33.99271941508941,-81.03188727827882,72.47803,1.142579,325.7896520379768,3.187576225354469,4.86455494781833,-9999,437084.4357035417,1.030624389648438,0.4938812255859375,-0.3968658447265625,1,0.81,5
2019-10-22 19:43:43.841 -0400,200,1571787823.006837,33.99271941508941,-81.03188727827882,72.47803,1.142579,325.7896520379768,3.187576225354469,4.86455494781833,-9999,437084.4756855417,1.315444946289062,0.5913543701171875,-0.316070556640625,1,0.81,5
2019-10-22 19:43:43.881 -0400,201,1571787823.006837,33.99271941508941,-81.03188727827882,72.47803,1.142579,325.7896520379768,3.187576225354469,4.86455494781833,-9999,437084.5156675417,1.201904296875,0.3478546142578125,-0.1930999755859375,1,0.81,5
2019-10-22 19:43:43.921 -0400,202,1571787823.006837,33.99271941508941,-81.03188727827882,72.47803,1.142579,325.7896520379768,3.187576225354469,4.86455494781833,-9999,437084.5556485417,0.944305419921875,0.3189849853515625,-0.126617431640625,1,0.81,5
2019-10-22 19:43:43.969 -0400,203,1571787823.006837,33.99271941508941,-81.03188727827882,72.47803,1.142579,325.7896520379768,3.187576225354469,4.86455494781833,-9999,437084.5956305417,0.7880401611328125,0.367950439453125,-0.08856201171875,1,0.81,5
2019-10-22 19:43:44.001 -0400,204,1571787823.006837,33.99271941508941,-81.03188727827882,72.47803,1.142579,325.7896520379768,3.187576225354469,4.86455494781833,-9999,437084.6356125417,0.7159271240234375,0.42718505859375,-0.1027679443359375,1,0.81,5
2019-10-22 19:43:44.041 -0400,205,1571787823.006837,33.99271941508941,-81.03188727827882,72.47803,1.142579,325.7896520379768,3.187576225354469,4.86455494781833,-9999,437084.6755945417,0.7426300048828125,0.413970947265625,-0.0776519775390625,1,0.81,5
2019-10-22 19:43:44.081 -0400,206,1571787823.006837,33.99271941508941,-81.03188727827882,72.47803,1.142579,325.7896520379768,3.187576225354469,4.86455494781833,-9999,437084.7155755417,0.7476654052734375,0.3344879150390625,-0.0426025390625,1,0.81,5
2019-10-22 19:43:44.121 -0400,207,1571787823.006837,33.99271941508941,-81.03188727827882,72.47803,1.142579,325.7896520379768,3.187576225354469,4.86455494781833,-9999,437084.7555575417,0.7770233154296875,0.305206298828125,-0.0564117431640625,1,0.81,5
2019-10-22 19:43:44.161 -0400,208,1571787823.006837,33.99271941508941,-81.03188727827882,72.47803,1.142579,325.7896520379768,3.187576225354469,4.86455494781833,-9999,437084.7955395417,0.9222259521484375,0.350982666015625,-0.138275146484375,1,0.81,5
2019-10-22 19:43:44.201 -0400,209,1571787823.006837,33.99271941508941,-81.03188727827882,72.47803,1.142579,325.7896520379768,3.187576225354469,4.86455494781833,-9999,437084.8355215417,1.02874755859375,0.3299407958984375,-0.1388702392578125,1,0.81,5
2019-10-22 19:43:44.241 -0400,210,1571787823.006837,33.99271941508941,-81.03188727827882,72.47803,1.142579,325.7896520379768,3.187576225354469,4.86455494781833,-9999,437084.8755035417,1.190658569335938,0.3636474609375,-0.19232177734375,1,0.81,5
2019-10-22 19:43:44.281 -0400,211,1571787824.006835,33.99273422965247,-81.03189554082319,72.42648,1.344257,329.8170508449383,3.154091752830631,4.886332187593742,-9999,437084.9154845417,1.050491333007812,0.35260009765625,-0.3075103759765625,1,0.81,5
2019-10-22 19:43:44.321 -0400,212,1571787824.006835,33.99273422965247,-81.03189554082319,72.42648,1.344257,329.8170508449383,3.154091752830631,4.886332187593742,-9999,437084.9554665417,1.0361328125,0.3771209716796875,-0.348663330078125,1,0.81,5
2019-10-22 19:43:44.361 -0400,213,1571787824.006835,33.99273422965247,-81.03189554082319,72.42648,1.344257,329.8170508449383,3.154091752830631,4.886332187593742,-9999,437084.9954485417,1.198532104492188,0.3790435791015625,-0.3472137451171875,1,0.81,5
2019-10-22 19:43:44.401 -0400,214,1571787824.006835,33.99273422965247,-81.03189554082319,72.42648,1.344257,329.8170508449383,3.154091752830631,4.886332187593742,-9999,437085.0354305417,1.086868286132812,0.34503173828125,-0.20977783203125,1,0.81,5
2019-10-22 19:43:44.451 -0400,215,1571787824.006835,33.99273422965247,-81.03189554082319,72.42648,1.344257,329.8170508449383,3.154091752830631,4.886332187593742,-9999,437085.0754115417,0.806671142578125,0.2670745849609375,-0.2252655029296875,1,0.81,5
2019-10-22 19:43:44.481 -0400,216,1571787824.006835,33.99273422965247,-81.03189554082319,72.42648,1.344257,329.8170508449383,3.154091752830631,4.886332187593742,-9999,437085.1153935417,0.6348114013671875,0.3680419921875,-0.23822021484375,1,0.81,5
2019-10-22 19:43:44.521 -0400,217,1571787824.006835,33.99273422965247,-81.03189554082319,72.42648,1.344257,329.8170508449383,3.154091752830631,4.886332187593742,-9999,437085.1553755417,0.59259033203125,0.5150909423828125,-0.2403106689453125,1,0.81,5
2019-10-22 19:43:44.561 -0400,218,1571787824.006835,33.99273422965247,-81.03189554082319,72.42648,1.344257,329.8170508449383,3.154091752830631,4.886332187593742,-9999,437085.1953575417,0.6668243408203125,0.609710693359375,-0.3062286376953125,1,0.81,5
2019-10-22 19:43:44.601 -0400,219,1571787824.006835,33.99273422965247,-81.03189554082319,72.42648,1.344257,329.8170508449383,3.154091752830631,4.886332187593742,-9999,437085.2353385417,0.79998779296875,0.6128997802734375,-0.4184417724609375,1,0.81,5
2019-10-22 19:43:44.641 -0400,220,1571787824.006835,33.99273422965247,-81.03189554082319,72.42648,1.344257,329.8170508449383,3.154091752830631,4.886332187593742,-9999,437085.2753205417,0.925628662109375,0.548370361328125,-0.4745330810546875,1,0.81,5
2019-10-22 19:43:44.681 -0400,221,1571787824.006835,33.99273422965247,-81.03189554082319,72.42648,1.344257,329.8170508449383,3.154091752830631,4.886332187593742,-9999,437085.3153026667,1.087295532226562,0.5241546630859375,-0.5360107421875,1,0.81,5
2019-10-22 19:43:44.721 -0400,222,1571787824.006835,33.99273422965247,-81.03189554082319,72.42648,1.344257,329.8170508449383,3.154091752830631,4.886332187593742,-9999,437085.3552846667,1.233932495117188,0.600433349609375,-0.5372161865234375,1,0.81,5
2019-10-22 19:43:44.761 -0400,223,1571787824.006835,33.99273422965247,-81.03189554082319,72.42648,1.344257,329.8170508449383,3.154091752830631,4.886332187593742,-9999,437085.3952656667,1.531112670898438,0.67633056640625,-0.4918670654296875,1,0.81,5
2019-10-22 19:43:44.801 -0400,224,1571787824.006835,33.99273422965247,-81.03189554082319,72.42648,1.344257,329.8170508449383,3.154091752830631,4.886332187593742,-9999,437085.4352476667,0.9052581787109375,0.482696533203125,-0.468017578125,1,0.81,5
2019-10-22 19:43:44.841 -0400,225,1571787824.006835,33.99273422965247,-81.03189554082319,72.42648,1.344257,329.8170508449383,3.154091752830631,4.886332187593742,-9999,437085.4752296667,1.262863159179688,0.5838165283203125,-0.4163970947265625,1,0.81,5
2019-10-22 19:43:44.881 -0400,226,1571787824.006835,33.99273422965247,-81.03189554082319,72.42648,1.344257,329.8170508449383,3.154091752830631,4.886332187593742,-9999,437085.5152116667,1.239151000976562,0.4677734375,-0.255218505859375,1,0.81,5
2019-10-22 19:43:44.920 -0400,227,1571787824.006835,33.99273422965247,-81.03189554082319,72.42648,1.344257,329.8170508449383,3.154091752830631,4.886332187593742,-9999,437085.5551926667,1.080825805664062,0.33563232421875,-0.1726226806640625,1,0.81,5
2019-10-22 19:43:44.961 -0400,228,1571787824.006835,33.99273422965247,-81.03189554082319,72.42648,1.344257,329.8170508449383,3.154091752830631,4.886332187593742,-9999,437085.5951746667,0.8587646484375,0.294769287109375,-0.1429595947265625,1,0.81,5
2019-10-22 19:43:45.001 -0400,229,1571787824.006835,33.99273422965247,-81.03189554082319,72.42648,1.344257,329.8170508449383,3.154091752830631,4.886332187593742,-9999,437085.6351566667,0.7797393798828125,0.374786376953125,-0.1131134033203125,1,0.81,5
2019-10-22 19:43:45.041 -0400,230,1571787824.006835,33.99273422965247,-81.03189554082319,72.42648,1.344257,329.8170508449383,3.154091752830631,4.886332187593742,-9999,437085.6751386667,0.7623138427734375,0.3768310546875,-0.068817138671875,1,0.81,5
2019-10-22 19:43:45.081 -0400,231,1571787824.006835,33.99273422965247,-81.03189554082319,72.42648,1.344257,329.8170508449383,3.154091752830631,4.886332187593742,-9999,437085.7151196667,0.795806884765625,0.3628082275390625,-0.040130615234375,1,0.81,5
2019-10-22 19:43:45.125 -0400,232,1571787824.006835,33.99273422965247,-81.03189554082319,72.42648,1.344257,329.8170508449383,3.154091752830631,4.886332187593742,-9999,437085.7551016667,0.8051605224609375,0.3127593994140625,-0.046722412109375,1,0.81,5
2019-10-22 19:43:45.160 -0400,233,1571787824.006835,33.99273422965247,-81.03189554082319,72.42648,1.344257,329.8170508449383,3.154091752830631,4.886332187593742,-9999,437085.7950836667,0.8433837890625,0.3034820556640625,-0.0586395263671875,1,0.81,5
2019-10-22 19:43:45.200 -0400,234,1571787824.006835,33.99273422965247,-81.03189554082319,72.42648,1.344257,329.8170508449383,3.154091752830631,4.886332187593742,-9999,437085.8350656667,0.947662353515625,0.3317413330078125,-0.1096038818359375,1,0.81,5
2019-10-22 19:43:45.240 -0400,235,1571787824.006835,33.99273422965247,-81.03189554082319,72.42648,1.344257,329.8170508449383,3.154091752830631,4.886332187593742,-9999,437085.8750466667,1.024581909179688,0.32440185546875,-0.12176513671875,1,0.81,5
2019-10-22 19:43:45.280 -0400,236,1571787824.006835,33.99273422965247,-81.03189554082319,72.42648,1.344257,329.8170508449383,3.154091752830631,4.886332187593742,-9999,437085.9150286667,1.20599365234375,0.41314697265625,-0.1646728515625,1,0.81,5
2019-10-22 19:43:45.320 -0400,237,1571787825.006833,33.99274661878822,-81.03190641431901,72.66243,1.315175,331.6198727790859,3.124932034389185,4.905031785140348,-9999,437085.9550106667,0.94317626953125,0.389129638671875,-0.2888641357421875,1,0.81,5
2019-10-22 19:43:45.360 -0400,238,1571787825.006833,33.99274661878822,-81.03190641431901,72.66243,1.315175,331.6198727790859,3.124932034389185,4.905031785140348,-9999,437085.9949926667,1.024307250976562,0.45245361328125,-0.3921051025390625,1,0.81,5
2019-10-22 19:43:45.400 -0400,239,1571787825.006833,33.99274661878822,-81.03190641431901,72.66243,1.315175,331.6198727790859,3.124932034389185,4.905031785140348,-9999,437086.0349746667,1.150650024414062,0.4479217529296875,-0.3651275634765625,1,0.81,5
2019-10-22 19:43:45.440 -0400,240,1571787825.006833,33.99274661878822,-81.03190641431901,72.66243,1.315175,331.6198727790859,3.124932034389185,4.905031785140348,-9999,437086.0749556667,1.067489624023438,0.3298797607421875,-0.203216552734375,1,0.81,5
2019-10-22 19:43:45.480 -0400,241,1571787825.006833,33.99274661878822,-81.03190641431901,72.66243,1.315175,331.6198727790859,3.124932034389185,4.905031785140348,-9999,437086.1149376667,0.8245086669921875,0.23876953125,-0.288726806640625,1,0.81,5
2019-10-22 19:43:45.520 -0400,242,1571787825.006833,33.99274661878822,-81.03190641431901,72.66243,1.315175,331.6198727790859,3.124932034389185,4.905031785140348,-9999,437086.1549196667,0.7009429931640625,0.369781494140625,-0.2926483154296875,1,0.81,5
2019-10-22 19:43:45.560 -0400,243,1571787825.006833,33.99274661878822,-81.03190641431901,72.66243,1.315175,331.6198727790859,3.124932034389185,4.905031785140348,-9999,437086.1949016667,0.6360321044921875,0.479888916015625,-0.2605743408203125,1,0.81,5
2019-10-22 19:43:45.600 -0400,244,1571787825.006833,33.99274661878822,-81.03190641431901,72.66243,1.315175,331.6198727790859,3.124932034389185,4.905031785140348,-9999,437086.2348826667,0.6993255615234375,0.584320068359375,-0.32403564453125,1,0.81,5
2019-10-22 19:43:45.640 -0400,245,1571787825.006833,33.99274661878822,-81.03190641431901,72.66243,1.315175,331.6198727790859,3.124932034389185,4.905031785140348,-9999,437086.2748646667,0.85791015625,0.627655029296875,-0.4161834716796875,1,0.81,5
2019-10-22 19:43:45.680 -0400,246,1571787825.006833,33.99274661878822,-81.03190641431901,72.66243,1.315175,331.6198727790859,3.124932034389185,4.905031785140348,-9999,437086.314846375,0.9373321533203125,0.55926513671875,-0.4370574951171875,1,0.81,5
2019-10-22 19:43:45.720 -0400,247,1571787825.006833,33.99274661878822,-81.03190641431901,72.66243,1.315175,331.6198727790859,3.124932034389185,4.905031785140348,-9999,437086.354827375,1.062759399414062,0.550811767578125,-0.47528076171875,1,0.81,5
2019-10-22 19:43:45.760 -0400,248,1571787825.006833,33.99274661878822,-81.03190641431901,72.66243,1.315175,331.6198727790859,3.124932034389185,4.905031785140348,-9999,437086.3948093751,1.545272827148438,0.766693115234375,-0.580230712890625,1,0.81,5
2019-10-22 19:43:45.800 -0400,249,1571787825.006833,33.99274661878822,-81.03190641431901,72.66243,1.315175,331.6198727790859,3.124932034389185,4.905031785140348,-9999,437086.434791375,1.291900634765625,0.6349639892578125,-0.4705047607421875,1,0.81,5
2019-10-22 19:43:45.840 -0400,250,1571787825.006833,33.99274661878822,-81.03190641431901,72.66243,1.315175,331.6198727790859,3.124932034389185,4.905031785140348,-9999,437086.474773375,1.070404052734375,0.370758056640625,-0.326080322265625,1,0.81,5
2019-10-22 19:43:45.880 -0400,251,1571787825.006833,33.99274661878822,-81.03190641431901,72.66243,1.315175,331.6198727790859,3.124932034389185,4.905031785140348,-9999,437086.514755375,1.11328125,0.423980712890625,-0.294952392578125,1,0.81,5
2019-10-22 19:43:45.920 -0400,252,1571787825.006833,33.99274661878822,-81.03190641431901,72.66243,1.315175,331.6198727790859,3.124932034389185,4.905031785140348,-9999,437086.5547363751,1.081008911132812,0.4002532958984375,-0.1907196044921875,1,0.81,5
2019-10-22 19:43:45.981 -0400,253,1571787825.006833,33.99274661878822,-81.03190641431901,72.66243,1.315175,331.6198727790859,3.124932034389185,4.905031785140348,-9999,437086.594718375,1.008087158203125,0.392669677734375,-0.13043212890625,1,0.81,5
2019-10-22 19:43:46.000 -0400,254,1571787825.006833,33.99274661878822,-81.03190641431901,72.66243,1.315175,331.6198727790859,3.124932034389185,4.905031785140348,-9999,437086.634700375,0.837371826171875,0.3389129638671875,-0.083465576171875,1,0.81,5
2019-10-22 19:43:46.040 -0400,255,1571787825.006833,33.99274661878822,-81.03190641431901,72.66243,1.315175,331.6198727790859,3.124932034389185,4.905031785140348,-9999,437086.674681375,0.7516937255859375,0.340667724609375,-0.0837554931640625,1,0.81,5
2019-10-22 19:43:46.080 -0400,256,1571787825.006833,33.99274661878822,-81.03190641431901,72.66243,1.315175,331.6198727790859,3.124932034389185,4.905031785140348,-9999,437086.7146633751,0.7584686279296875,0.3597412109375,-0.03277587890625,1,0.81,5
2019-10-22 19:43:46.120 -0400,257,1571787825.006833,33.99274661878822,-81.03190641431901,72.66243,1.315175,331.6198727790859,3.124932034389185,4.905031785140348,-9999,437086.754645375,0.767547607421875,0.3248291015625,0.00634765625,1,0.81,5
2019-10-22 19:43:46.160 -0400,258,1571787825.006833,33.99274661878822,-81.03190641431901,72.66243,1.315175,331.6198727790859,3.124932034389185,4.905031785140348,-9999,437086.794627375,0.7826995849609375,0.309112548828125,-0.004852294921875,1,0.81,5
2019-10-22 19:43:46.200 -0400,259,1571787825.006833,33.99274661878822,-81.03190641431901,72.66243,1.315175,331.6198727790859,3.124932034389185,4.905031785140348,-9999,437086.834608375,0.861572265625,0.3390960693359375,-0.04681396484375,1,0.81,5
2019-10-22 19:43:46.240 -0400,260,1571787825.006833,33.99274661878822,-81.03190641431901,72.66243,1.315175,331.6198727790859,3.124932034389185,4.905031785140348,-9999,437086.8745903751,0.99273681640625,0.3620147705078125,-0.07958984375,1,0.81,5
2019-10-22 19:43:46.280 -0400,261,1571787825.006833,33.99274661878822,-81.03190641431901,72.66243,1.315175,331.6198727790859,3.124932034389185,4.905031785140348,-9999,437086.914572375,0.9890289306640625,0.3848876953125,-0.1102142333984375,1,0.81,5
2019-10-22 19:43:46.320 -0400,262,1571787826.00683,33.99276441722817,-81.03191606938708,72.0259,1.426178,337.1105466676162,3.098612405914343,4.921700741684988,-9999,437086.954554375,1.024658203125,0.39825439453125,-0.168426513671875,1,0.81,5
2019-10-22 19:43:46.360 -0400,263,1571787826.00683,33.99276441722817,-81.03191606938708,72.0259,1.426178,337.1105466676162,3.098612405914343,4.921700741684988,-9999,437086.994535375,0.9372711181640625,0.3975372314453125,-0.247406005859375,1,0.81,5
2019-10-22 19:43:46.400 -0400,264,1571787826.00683,33.99276441722817,-81.03191606938708,72.0259,1.426178,337.1105466676162,3.098612405914343,4.921700741684988,-9999,437087.0345173751,1.249588012695312,0.43060302734375,-0.328948974609375,1,0.81,5
2019-10-22 19:43:46.440 -0400,265,1571787826.00683,33.99276441722817,-81.03191606938708,72.0259,1.426178,337.1105466676162,3.098612405914343,4.921700741684988,-9999,437087.074499375,1.27008056640625,0.4899444580078125,-0.3327484130859375,1,0.81,5
2019-10-22 19:43:46.480 -0400,266,1571787826.00683,33.99276441722817,-81.03191606938708,72.0259,1.426178,337.1105466676162,3.098612405914343,4.921700741684988,-9999,437087.114481375,0.880126953125,0.3446044921875,-0.39752197265625,1,0.81,5
2019-10-22 19:43:46.520 -0400,267,1571787826.00683,33.99276441722817,-81.03191606938708,72.0259,1.426178,337.1105466676162,3.098612405914343,4.921700741684988,-9999,437087.154462375,0.6286773681640625,0.254486083984375,-0.3850250244140625,1,0.81,5
2019-10-22 19:43:46.560 -0400,268,1571787826.00683,33.99276441722817,-81.03191606938708,72.0259,1.426178,337.1105466676162,3.098612405914343,4.921700741684988,-9999,437087.1944443751,0.550872802734375,0.35552978515625,-0.3343353271484375,1,0.81,5
2019-10-22 19:43:46.600 -0400,269,1571787826.00683,33.99276441722817,-81.03191606938708,72.0259,1.426178,337.1105466676162,3.098612405914343,4.921700741684988,-9999,437087.234426375,0.5489501953125,0.4879150390625,-0.3992156982421875,1,0.81,5
2019-10-22 19:43:46.640 -0400,270,1571787826.00683,33.99276441722817,-81.03191606938708,72.0259,1.426178,337.1105466676162,3.098612405914343,4.921700741684988,-9999,437087.274408375,0.62054443359375,0.5662078857421875,-0.4810791015625,1,0.81,5
2019-10-22 19:43:46.680 -0400,271,1571787826.00683,33.99276441722817,-81.03191606938708,72.0259,1.426178,337.1105466676162,3.098612405914343,4.921700741684988,-9999,437087.314389375,0.7454986572265625,0.5445098876953125,-0.4930572509765625,1,0.81,5
2019-10-22 19:43:46.720 -0400,272,1571787826.00683,33.99276441722817,-81.03191606938708,72.0259,1.426178,337.1105466676162,3.098612405914343,4.921700741684988,-9999,437087.3543713751,0.9800872802734375,0.5490264892578125,-0.4694061279296875,1,0.81,5
2019-10-22 19:43:46.760 -0400,273,1571787826.00683,33.99276441722817,-81.03191606938708,72.0259,1.426178,337.1105466676162,3.098612405914343,4.921700741684988,-9999,437087.394353375,1.2945556640625,0.6388702392578125,-0.4788665771484375,1,0.81,5
2019-10-22 19:43:46.800 -0400,274,1571787826.00683,33.99276441722817,-81.03191606938708,72.0259,1.426178,337.1105466676162,3.098612405914343,4.921700741684988,-9999,437087.434334375,1.564010620117188,0.6420135498046875,-0.37396240234375,1,0.81,5
2019-10-22 19:43:46.840 -0400,275,1571787826.00683,33.99276441722817,-81.03191606938708,72.0259,1.426178,337.1105466676162,3.098612405914343,4.921700741684988,-9999,437087.474316375,1.017288208007812,0.574005126953125,-0.4586944580078125,1,0.81,5
2019-10-22 19:43:46.880 -0400,276,1571787826.00683,33.99276441722817,-81.03191606938708,72.0259,1.426178,337.1105466676162,3.098612405914343,4.921700741684988,-9999,437087.514298375,1.256515502929688,0.567138671875,-0.3248138427734375,1,0.81,5
2019-10-22 19:43:46.920 -0400,277,1571787826.00683,33.99276441722817,-81.03191606938708,72.0259,1.426178,337.1105466676162,3.098612405914343,4.921700741684988,-9999,437087.554280375,1.443115234375,0.5451507568359375,-0.160736083984375,1,0.81,5
2019-10-22 19:43:46.977 -0400,278,1571787826.00683,33.99276441722817,-81.03191606938708,72.0259,1.426178,337.1105466676162,3.098612405914343,4.921700741684988,-9999,437087.594261375,1.198211669921875,0.3488616943359375,-0.1028594970703125,1,0.81,5
2019-10-22 19:43:47.000 -0400,279,1571787826.00683,33.99276441722817,-81.03191606938708,72.0259,1.426178,337.1105466676162,3.098612405914343,4.921700741684988,-9999,437087.634243375,0.92572021484375,0.3197784423828125,-0.1611785888671875,1,0.81,5
2019-10-22 19:43:47.040 -0400,280,1571787826.00683,33.99276441722817,-81.03191606938708,72.0259,1.426178,337.1105466676162,3.098612405914343,4.921700741684988,-9999,437087.674225375,0.793609619140625,0.375213623046875,-0.1060791015625,1,0.81,5
2019-10-22 19:43:47.079 -0400,281,1571787826.00683,33.99276441722817,-81.03191606938708,72.0259,1.426178,337.1105466676162,3.098612405914343,4.921700741684988,-9999,437087.714207375,0.741455078125,0.3824310302734375,-0.066680908203125,1,0.81,5
2019-10-22 19:43:47.120 -0400,282,1571787826.00683,33.99276441722817,-81.03191606938708,72.0259,1.426178,337.1105466676162,3.098612405914343,4.921700741684988,-9999,437087.754188375,0.7114715576171875,0.333099365234375,-0.03973388671875,1,0.81,5
2019-10-22 19:43:47.160 -0400,283,1571787826.00683,33.99276441722817,-81.03191606938708,72.0259,1.426178,337.1105466676162,3.098612405914343,4.921700741684988,-9999,437087.794170375,0.665008544921875,0.2727813720703125,-0.0555572509765625,1,0.81,5
2019-10-22 19:43:47.199 -0400,284,1571787826.00683,33.99276441722817,-81.03191606938708,72.0259,1.426178,337.1105466676162,3.098612405914343,4.921700741684988,-9999,437087.834152375,0.6614227294921875,0.26104736328125,-0.056060791015625,1,0.81,5
2019-10-22 19:43:47.239 -0400,285,1571787826.00683,33.99276441722817,-81.03191606938708,72.0259,1.426178,337.1105466676162,3.098612405914343,4.921700741684988,-9999,437087.874134375,0.7366485595703125,0.270477294921875,-0.0911865234375,1,0.81,5
2019-10-22 19:43:47.280 -0400,286,1571787826.00683,33.99276441722817,-81.03191606938708,72.0259,1.426178,337.1105466676162,3.098612405914343,4.921700741684988,-9999,437087.914115375,0.8496551513671875,0.2997589111328125,-0.1091156005859375,1,0.81,5
2019-10-22 19:43:47.319 -0400,287,1571787826.00683,33.99276441722817,-81.03191606938708,72.0259,1.426178,337.1105466676162,3.098612405914343,4.921700741684988,-9999,437087.954097375,1.073074340820312,0.372100830078125,-0.160308837890625,1,0.81,5
2019-10-22 19:43:47.360 -0400,288,1571787827.006827,33.99278924479825,-81.0319189463747,72.40655,1.577046,342.3483019085356,3.146317335458565,4.891341764524511,-9999,437087.994079375,1.039947509765625,0.4047393798828125,-0.25604248046875,1,0.81,5
2019-10-22 19:43:47.399 -0400,289,1571787827.006827,33.99278924479825,-81.0319189463747,72.40655,1.577046,342.3483019085356,3.146317335458565,4.891341764524511,-9999,437088.034060375,1.242828369140625,0.482025146484375,-0.3563079833984375,1,0.81,5
2019-10-22 19:43:47.439 -0400,290,1571787827.006827,33.99278924479825,-81.0319189463747,72.40655,1.577046,342.3483019085356,3.146317335458565,4.891341764524511,-9999,437088.074042375,1.589859008789062,0.5269775390625,-0.39776611328125,1,0.81,5
2019-10-22 19:43:47.479 -0400,291,1571787827.006827,33.99278924479825,-81.0319189463747,72.40655,1.577046,342.3483019085356,3.146317335458565,4.891341764524511,-9999,437088.114024375,1.312576293945312,0.4746856689453125,-0.2743682861328125,1,0.81,5
2019-10-22 19:43:47.519 -0400,292,1571787827.006827,33.99278924479825,-81.0319189463747,72.40655,1.577046,342.3483019085356,3.146317335458565,4.891341764524511,-9999,437088.154006375,0.860198974609375,0.2671051025390625,-0.331207275390625,1,0.81,5
2019-10-22 19:43:47.559 -0400,293,1571787827.006827,33.99278924479825,-81.0319189463747,72.40655,1.577046,342.3483019085356,3.146317335458565,4.891341764524511,-9999,437088.193987375,0.711273193359375,0.362396240234375,-0.240142822265625,1,0.81,5
2019-10-22 19:43:47.599 -0400,294,1571787827.006827,33.99278924479825,-81.0319189463747,72.40655,1.577046,342.3483019085356,3.146317335458565,4.891341764524511,-9999,437088.233969375,0.6376190185546875,0.5039520263671875,-0.25335693359375,1,0.81,5
2019-10-22 19:43:47.639 -0400,295,1571787827.006827,33.99278924479825,-81.0319189463747,72.40655,1.577046,342.3483019085356,3.146317335458565,4.891341764524511,-9999,437088.273951375,0.659454345703125,0.562774658203125,-0.2783660888671875,1,0.81,5
2019-10-22 19:43:47.679 -0400,296,1571787827.006827,33.99278924479825,-81.0319189463747,72.40655,1.577046,342.3483019085356,3.146317335458565,4.891341764524511,-9999,437088.3139325,0.7531890869140625,0.6224212646484375,-0.3578643798828125,1,0.81,5
2019-10-22 19:43:47.719 -0400,297,1571787827.006827,33.99278924479825,-81.0319189463747,72.40655,1.577046,342.3483019085356,3.146317335458565,4.891341764524511,-9999,437088.3539145,0.80938720703125,0.564300537109375,-0.3748016357421875,1,0.81,5
2019-10-22 19:43:47.759 -0400,298,1571787827.006827,33.99278924479825,-81.0319189463747,72.40655,1.577046,342.3483019085356,3.146317335458565,4.891341764524511,-9999,437088.3938965,1.006179809570312,0.5445404052734375,-0.38287353515625,1,0.81,5
2019-10-22 19:43:47.799 -0400,299,1571787827.006827,33.99278924479825,-81.0319189463747,72.40655,1.577046,342.3483019085356,3.146317335458565,4.891341764524511,-9999,437088.4338785,1.128860473632812,0.617156982421875,-0.415496826171875,1,0.81,5
2019-10-22 19:43:47.839 -0400,300,1571787827.006827,33.99278924479825,-81.0319189463747,72.40655,1.577046,342.3483019085356,3.146317335458565,4.891341764524511,-9999,437088.4738595,1.461593627929688,0.68865966796875,-0.441680908203125,1,0.81,5
2019-10-22 19:43:47.879 -0400,301,1571787827.006827,33.99278924479825,-81.0319189463747,72.40655,1.577046,342.3483019085356,3.146317335458565,4.891341764524511,-9999,437088.5138415,1.014068603515625,0.55487060546875,-0.4860076904296875,1,0.81,5
2019-10-22 19:43:47.919 -0400,302,1571787827.006827,33.99278924479825,-81.0319189463747,72.40655,1.577046,342.3483019085356,3.146317335458565,4.891341764524511,-9999,437088.5538235,1.4737548828125,0.5362701416015625,-0.334716796875,1,0.81,5
2019-10-22 19:43:47.961 -0400,303,1571787827.006827,33.99278924479825,-81.0319189463747,72.40655,1.577046,342.3483019085356,3.146317335458565,4.891341764524511,-9999,437088.5938045,1.405609130859375,0.3589324951171875,-0.177154541015625,1,0.81,5
2019-10-22 19:43:47.999 -0400,304,1571787827.006827,33.99278924479825,-81.0319189463747,72.40655,1.577046,342.3483019085356,3.146317335458565,4.891341764524511,-9999,437088.6337865,1.121826171875,0.2856903076171875,-0.1337432861328125,1,0.81,5
2019-10-22 19:43:48.039 -0400,305,1571787827.006827,33.99278924479825,-81.0319189463747,72.40655,1.577046,342.3483019085356,3.146317335458565,4.891341764524511,-9999,437088.6737685,0.9459991455078125,0.3081207275390625,-0.116241455078125,1,0.81,5
2019-10-22 19:43:48.079 -0400,306,1571787827.006827,33.99278924479825,-81.0319189463747,72.40655,1.577046,342.3483019085356,3.146317335458565,4.891341764524511,-9999,437088.7137505,0.8376617431640625,0.385345458984375,-0.06060791015625,1,0.81,5
2019-10-22 19:43:48.119 -0400,307,1571787827.006827,33.99278924479825,-81.0319189463747,72.40655,1.577046,342.3483019085356,3.146317335458565,4.891341764524511,-9999,437088.7537315,0.7736968994140625,0.3593597412109375,-0.0339813232421875,1,0.81,5
2019-10-22 19:43:48.159 -0400,308,1571787827.006827,33.99278924479825,-81.0319189463747,72.40655,1.577046,342.3483019085356,3.146317335458565,4.891341764524511,-9999,437088.7937135,0.738006591796875,0.3116912841796875,-0.004302978515625,1,0.81,5
2019-10-22 19:43:48.199 -0400,309,1571787827.006827,33.99278924479825,-81.0319189463747,72.40655,1.577046,342.3483019085356,3.146317335458565,4.891341764524511,-9999,437088.8336955,0.6935577392578125,0.256195068359375,0.01080322265625,1,0.81,5
2019-10-22 19:43:48.239 -0400,310,1571787827.006827,33.99278924479825,-81.0319189463747,72.40655,1.577046,342.3483019085356,3.146317335458565,4.891341764524511,-9999,437088.8736775,0.6669158935546875,0.241729736328125,-0.0071563720703125,1,0.81,5
2019-10-22 19:43:48.279 -0400,311,1571787828.006825,33.99279973992244,-81.03192098059566,71.95469,1.27733,348.0306039921882,3.181630492823525,4.86844579305597,-9999,437088.9136585,0.751922607421875,0.29833984375,-0.0540008544921875,1,0.81,5
2019-10-22 19:43:48.319 -0400,312,1571787828.006825,33.99279973992244,-81.03192098059566,71.95469,1.27733,348.0306039921882,3.181630492823525,4.86844579305597,-9999,437088.9536405,0.8271636962890625,0.3241119384765625,-0.0903778076171875,1,0.81,5
2019-10-22 19:43:48.359 -0400,313,1571787828.006825,33.99279973992244,-81.03192098059566,71.95469,1.27733,348.0306039921882,3.181630492823525,4.86844579305597,-9999,437088.9936225,1.128753662109375,0.422210693359375,-0.15484619140625,1,0.81,5
2019-10-22 19:43:48.399 -0400,314,1571787828.006825,33.99279973992244,-81.03192098059566,71.95469,1.27733,348.0306039921882,3.181630492823525,4.86844579305597,-9999,437089.0336035001,1.073516845703125,0.4163360595703125,-0.269287109375,1,0.81,5
2019-10-22 19:43:48.439 -0400,315,1571787828.006825,33.99279973992244,-81.03192098059566,71.95469,1.27733,348.0306039921882,3.181630492823525,4.86844579305597,-9999,437089.0735855,1.321273803710938,0.5492401123046875,-0.4313812255859375,1,0.81,5
2019-10-22 19:43:48.479 -0400,316,1571787828.006825,33.99279973992244,-81.03192098059566,71.95469,1.27733,348.0306039921882,3.181630492823525,4.86844579305597,-9999,437089.1135675,1.457275390625,0.5132293701171875,-0.37152099609375,1,0.81,5
2019-10-22 19:43:48.519 -0400,317,1571787828.006825,33.99279973992244,-81.03192098059566,71.95469,1.27733,348.0306039921882,3.181630492823525,4.86844579305597,-9999,437089.1535485,1.161712646484375,0.3135986328125,-0.1954193115234375,1,0.81,5
2019-10-22 19:43:48.559 -0400,318,1571787828.006825,33.99279973992244,-81.03192098059566,71.95469,1.27733,348.0306039921882,3.181630492823525,4.86844579305597,-9999,437089.1935305001,0.8259124755859375,0.2135009765625,-0.3478851318359375,1,0.81,5
2019-10-22 19:43:48.599 -0400,319,1571787828.006825,33.99279973992244,-81.03192098059566,71.95469,1.27733,348.0306039921882,3.181630492823525,4.86844579305597,-9999,437089.2335125,0.6573638916015625,0.3614654541015625,-0.2883453369140625,1,0.81,5
2019-10-22 19:43:48.639 -0400,320,1571787828.006825,33.99279973992244,-81.03192098059566,71.95469,1.27733,348.0306039921882,3.181630492823525,4.86844579305597,-9999,437089.2734945,0.5782318115234375,0.5174713134765625,-0.2855377197265625,1,0.81,5
2019-10-22 19:43:48.679 -0400,321,1571787828.006825,33.99279973992244,-81.03192098059566,71.95469,1.27733,348.0306039921882,3.181630492823525,4.86844579305597,-9999,437089.31347475,0.5933380126953125,0.5807952880859375,-0.34051513671875,1,0.81,5
2019-10-22 19:43:48.719 -0400,322,1571787828.006825,33.99279973992244,-81.03192098059566,71.95469,1.27733,348.0306039921882,3.181630492823525,4.86844579305597,-9999,437089.35345675,0.7112579345703125,0.55511474609375,-0.4137115478515625,1,0.81,5
2019-10-22 19:43:48.759 -0400,323,1571787828.006825,33.99279973992244,-81.03192098059566,71.95469,1.27733,348.0306039921882,3.181630492823525,4.86844579305597,-9999,437089.39343875,0.8294219970703125,0.4992218017578125,-0.4474639892578125,1,0.81,5
2019-10-22 19:43:48.799 -0400,324,1571787828.006825,33.99279973992244,-81.03192098059566,71.95469,1.27733,348.0306039921882,3.181630492823525,4.86844579305597,-9999,437089.43341975,1.050323486328125,0.4862823486328125,-0.4531097412109375,1,0.81,5
2019-10-22 19:43:48.839 -0400,325,1571787828.006825,33.99279973992244,-81.03192098059566,71.95469,1.27733,348.0306039921882,3.181630492823525,4.86844579305597,-9999,437089.47340175,1.272857666015625,0.5482177734375,-0.5019073486328125,1,0.81,5
2019-10-22 19:43:48.879 -0400,326,1571787828.006825,33.99279973992244,-81.03192098059566,71.95469,1.27733,348.0306039921882,3.181630492823525,4.86844579305597,-9999,437089.51338375,1.524398803710938,0.54534912109375,-0.4380950927734375,1,0.81,5
2019-10-22 19:43:48.919 -0400,327,1571787828.006825,33.99279973992244,-81.03192098059566,71.95469,1.27733,348.0306039921882,3.181630492823525,4.86844579305597,-9999,437089.55336575,0.9085693359375,0.48724365234375,-0.4829559326171875,1,0.81,5
2019-10-22 19:43:48.965 -0400,328,1571787828.006825,33.99279973992244,-81.03192098059566,71.95469,1.27733,348.0306039921882,3.181630492823525,4.86844579305597,-9999,437089.59334675,1.467727661132812,0.6532440185546875,-0.410003662109375,1,0.81,5
2019-10-22 19:43:48.998 -0400,329,1571787828.006825,33.99279973992244,-81.03192098059566,71.95469,1.27733,348.0306039921882,3.181630492823525,4.86844579305597,-9999,437089.63332875,1.554290771484375,0.4554595947265625,-0.21356201171875,1,0.81,5
2019-10-22 19:43:49.039 -0400,330,1571787828.006825,33.99279973992244,-81.03192098059566,71.95469,1.27733,348.0306039921882,3.181630492823525,4.86844579305597,-9999,437089.67331075,1.296112060546875,0.2728424072265625,-0.1555938720703125,1,0.81,5
2019-10-22 19:43:49.079 -0400,331,1571787828.006825,33.99279973992244,-81.03192098059566,71.95469,1.27733,348.0306039921882,3.181630492823525,4.86844579305597,-9999,437089.71329175,1.004257202148438,0.2294158935546875,-0.1403961181640625,1,0.81,5
2019-10-22 19:43:49.119 -0400,332,1571787828.006825,33.99279973992244,-81.03192098059566,71.95469,1.27733,348.0306039921882,3.181630492823525,4.86844579305597,-9999,437089.75327375,0.85699462890625,0.336822509765625,-0.0840301513671875,1,0.81,5
2019-10-22 19:43:49.159 -0400,333,1571787828.006825,33.99279973992244,-81.03192098059566,71.95469,1.27733,348.0306039921882,3.181630492823525,4.86844579305597,-9999,437089.79325575,0.77508544921875,0.3800506591796875,-0.0531005859375,1,0.81,5
2019-10-22 19:43:49.199 -0400,334,1571787828.006825,33.99279973992244,-81.03192098059566,71.95469,1.27733,348.0306039921882,3.181630492823525,4.86844579305597,-9999,437089.83323675,0.7042388916015625,0.3359375,-0.0457611083984375,1,0.81,5
2019-10-22 19:43:49.239 -0400,335,1571787828.006825,33.99279973992244,-81.03192098059566,71.95469,1.27733,348.0306039921882,3.181630492823525,4.86844579305597,-9999,437089.87321875,0.6355743408203125,0.272430419921875,-0.0447540283203125,1,0.81,5
2019-10-22 19:43:49.278 -0400,336,1571787828.006825,33.99279973992244,-81.03192098059566,71.95469,1.27733,348.0306039921882,3.181630492823525,4.86844579305597,-9999,437089.91320075,0.6083984375,0.2325897216796875,-0.0450592041015625,1,0.81,5
2019-10-22 19:43:49.318 -0400,337,1571787828.006825,33.99279973992244,-81.03192098059566,71.95469,1.27733,348.0306039921882,3.181630492823525,4.86844579305597,-9999,437089.95318275,0.673614501953125,0.251495361328125,-0.0750732421875,1,0.81,5
2019-10-22 19:43:49.359 -0400,338,1571787828.006825,33.99279973992244,-81.03192098059566,71.95469,1.27733,348.0306039921882,3.181630492823525,4.86844579305597,-9999,437089.99316375,0.739959716796875,0.28253173828125,-0.1052703857421875,1,0.81,5
2019-10-22 19:43:49.398 -0400,339,1571787828.006825,33.99279973992244,-81.03192098059566,71.95469,1.27733,348.0306039921882,3.181630492823525,4.86844579305597,-9999,437090.03314575,1.004776000976562,0.3895721435546875,-0.1840057373046875,1,0.81,5
2019-10-22 19:43:49.439 -0400,340,1571787829.006823,33.99281123560882,-81.03193037035199,71.42423,1.296029,342.2943033926125,3.153775683841274,4.886536193337807,-9999,437090.07312775,1.08807373046875,0.4041290283203125,-0.2727203369140625,1,0.81,5
2019-10-22 19:43:49.479 -0400,341,1571787829.006823,33.99281123560882,-81.03193037035199,71.42423,1.296029,342.2943033926125,3.153775683841274,4.886536193337807,-9999,437090.11310875,1.192428588867188,0.4408721923828125,-0.4113616943359375,1,0.81,5
2019-10-22 19:43:49.519 -0400,342,1571787829.006823,33.99281123560882,-81.03193037035199,71.42423,1.296029,342.2943033926125,3.153775683841274,4.886536193337807,-9999,437090.15309075,1.553634643554688,0.4803924560546875,-0.3745574951171875,1,0.81,5
2019-10-22 19:43:49.559 -0400,343,1571787829.006823,33.99281123560882,-81.03193037035199,71.42423,1.296029,342.2943033926125,3.153775683841274,4.886536193337807,-9999,437090.19307275,1.414199829101562,0.416015625,-0.2109222412109375,1,0.81,5
2019-10-22 19:43:49.598 -0400,344,1571787829.006823,33.99281123560882,-81.03193037035199,71.42423,1.296029,342.2943033926125,3.153775683841274,4.886536193337807,-9999,437090.23305375,0.974761962890625,0.2872772216796875,-0.32269287109375,1,0.81,5
2019-10-22 19:43:49.638 -0400,345,1571787829.006823,33.99281123560882,-81.03193037035199,71.42423,1.296029,342.2943033926125,3.153775683841274,4.886536193337807,-9999,437090.27303575,0.8303985595703125,0.3841552734375,-0.273406982421875,1,0.81,5
2019-10-22 19:43:49.678 -0400,346,1571787829.006823,33.99281123560882,-81.03193037035199,71.42423,1.296029,342.2943033926125,3.153775683841274,4.886536193337807,-9999,437090.3130180417,0.6974029541015625,0.536224365234375,-0.2296905517578125,1,0.81,5
2019-10-22 19:43:49.718 -0400,347,1571787829.006823,33.99281123560882,-81.03193037035199,71.42423,1.296029,342.2943033926125,3.153775683841274,4.886536193337807,-9999,437090.3529990417,0.696624755859375,0.640960693359375,-0.2875518798828125,1,0.81,5
2019-10-22 19:43:49.758 -0400,348,1571787829.006823,33.99281123560882,-81.03193037035199,71.42423,1.296029,342.2943033926125,3.153775683841274,4.886536193337807,-9999,437090.3929810417,0.786346435546875,0.6653900146484375,-0.3919525146484375,1,0.81,5
2019-10-22 19:43:49.798 -0400,349,1571787829.006823,33.99281123560882,-81.03193037035199,71.42423,1.296029,342.2943033926125,3.153775683841274,4.886536193337807,-9999,437090.4329630417,0.827117919921875,0.564300537109375,-0.4239349365234375,1,0.81,5
2019-10-22 19:43:49.838 -0400,350,1571787829.006823,33.99281123560882,-81.03193037035199,71.42423,1.296029,342.2943033926125,3.153775683841274,4.886536193337807,-9999,437090.4729450417,1.00225830078125,0.54443359375,-0.469970703125,1,0.81,5
2019-10-22 19:43:49.878 -0400,351,1571787829.006823,33.99281123560882,-81.03193037035199,71.42423,1.296029,342.2943033926125,3.153775683841274,4.886536193337807,-9999,437090.5129260417,1.1373291015625,0.63494873046875,-0.476104736328125,1,0.81,5
2019-10-22 19:43:49.918 -0400,352,1571787829.006823,33.99281123560882,-81.03193037035199,71.42423,1.296029,342.2943033926125,3.153775683841274,4.886536193337807,-9999,437090.5529080417,1.421371459960938,0.6979217529296875,-0.471466064453125,1,0.81,5
2019-10-22 19:43:49.958 -0400,353,1571787829.006823,33.99281123560882,-81.03193037035199,71.42423,1.296029,342.2943033926125,3.153775683841274,4.886536193337807,-9999,437090.5928900417,0.8488922119140625,0.5513458251953125,-0.45635986328125,1,0.81,5
2019-10-22 19:43:49.998 -0400,354,1571787829.006823,33.99281123560882,-81.03193037035199,71.42423,1.296029,342.2943033926125,3.153775683841274,4.886536193337807,-9999,437090.6328710417,1.343948364257812,0.6278533935546875,-0.402313232421875,1,0.81,5
2019-10-22 19:43:50.038 -0400,355,1571787829.006823,33.99281123560882,-81.03193037035199,71.42423,1.296029,342.2943033926125,3.153775683841274,4.886536193337807,-9999,437090.6728530417,1.43487548828125,0.528167724609375,-0.2797698974609375,1,0.81,5
2019-10-22 19:43:50.078 -0400,356,1571787829.006823,33.99281123560882,-81.03193037035199,71.42423,1.296029,342.2943033926125,3.153775683841274,4.886536193337807,-9999,437090.7128350417,1.284515380859375,0.2955169677734375,-0.187225341796875,1,0.81,5
2019-10-22 19:43:50.118 -0400,357,1571787829.006823,33.99281123560882,-81.03193037035199,71.42423,1.296029,342.2943033926125,3.153775683841274,4.886536193337807,-9999,437090.7528160417,1.070236206054688,0.2245025634765625,-0.1670684814453125,1,0.81,5
2019-10-22 19:43:50.158 -0400,358,1571787829.006823,33.99281123560882,-81.03193037035199,71.42423,1.296029,342.2943033926125,3.153775683841274,4.886536193337807,-9999,437090.7927980417,0.96307373046875,0.3463897705078125,-0.1187286376953125,1,0.81,5
2019-10-22 19:43:50.198 -0400,359,1571787829.006823,33.99281123560882,-81.03193037035199,71.42423,1.296029,342.2943033926125,3.153775683841274,4.886536193337807,-9999,437090.8327800417,0.9155120849609375,0.4083099365234375,-0.09796142578125,1,0.81,5
2019-10-22 19:43:50.239 -0400,360,1571787830.00682,33.99282886438655,-81.03193782518086,71.45718,1.49385,342.1711802528069,3.15435293152522,4.886163588764409,-9999,437090.8727610417,0.8888092041015625,0.3889007568359375,-0.074462890625,1,0.81,5
2019-10-22 19:43:50.278 -0400,361,1571787830.00682,33.99282886438655,-81.03193782518086,71.45718,1.49385,342.1711802528069,3.15435293152522,4.886163588764409,-9999,437090.9127430417,0.792999267578125,0.2971038818359375,-0.05340576171875,1,0.81,5
2019-10-22 19:43:50.318 -0400,362,1571787830.00682,33.99282886438655,-81.03193782518086,71.45718,1.49385,342.1711802528069,3.15435293152522,4.886163588764409,-9999,437090.9527250417,0.7635955810546875,0.268157958984375,-0.0581512451171875,1,0.81,5
2019-10-22 19:43:50.358 -0400,363,1571787830.00682,33.99282886438655,-81.03193782518086,71.45718,1.49385,342.1711802528069,3.15435293152522,4.886163588764409,-9999,437090.9927070417,0.8184051513671875,0.266021728515625,-0.076019287109375,1,0.81,5
2019-10-22 19:43:50.398 -0400,364,1571787830.00682,33.99282886438655,-81.03193782518086,71.45718,1.49385,342.1711802528069,3.15435293152522,4.886163588764409,-9999,437091.0326880417,0.794219970703125,0.26605224609375,-0.0936431884765625,1,0.81,5
2019-10-22 19:43:50.438 -0400,365,1571787830.00682,33.99282886438655,-81.03193782518086,71.45718,1.49385,342.1711802528069,3.15435293152522,4.886163588764409,-9999,437091.0726700417,0.9716644287109375,0.3634033203125,-0.1431884765625,1,0.81,5
2019-10-22 19:43:50.478 -0400,366,1571787830.00682,33.99282886438655,-81.03193782518086,71.45718,1.49385,342.1711802528069,3.15435293152522,4.886163588764409,-9999,437091.1126520417,0.8583221435546875,0.33856201171875,-0.247711181640625,1,0.81,5
2019-10-22 19:43:50.518 -0400,367,1571787830.00682,33.99282886438655,-81.03193782518086,71.45718,1.49385,342.1711802528069,3.15435293152522,4.886163588764409,-9999,437091.1526330417,1.058349609375,0.4175262451171875,-0.3121490478515625,1,0.81,5
2019-10-22 19:43:50.558 -0400,368,1571787830.00682,33.99282886438655,-81.03193782518086,71.45718,1.49385,342.1711802528069,3.15435293152522,4.886163588764409,-9999,437091.1926150417,1.35455322265625,0.4437713623046875,-0.349945068359375,1,0.81,5
2019-10-22 19:43:50.598 -0400,369,1571787830.00682,33.99282886438655,-81.03193782518086,71.45718,1.49385,342.1711802528069,3.15435293152522,4.886163588764409,-9999,437091.2325970417,1.231658935546875,0.407196044921875,-0.25146484375,1,0.81,5
2019-10-22 19:43:50.638 -0400,370,1571787830.00682,33.99282886438655,-81.03193782518086,71.45718,1.49385,342.1711802528069,3.15435293152522,4.886163588764409,-9999,437091.2725780417,0.91424560546875,0.2710723876953125,-0.2740325927734375,1,0.81,5
2019-10-22 19:43:50.678 -0400,371,1571787830.00682,33.99282886438655,-81.03193782518086,71.45718,1.49385,342.1711802528069,3.15435293152522,4.886163588764409,-9999,437091.3125606667,0.787353515625,0.3578338623046875,-0.2558746337890625,1,0.81,5
2019-10-22 19:43:50.718 -0400,372,1571787830.00682,33.99282886438655,-81.03193782518086,71.45718,1.49385,342.1711802528069,3.15435293152522,4.886163588764409,-9999,437091.3525426667,0.77105712890625,0.5220794677734375,-0.2742919921875,1,0.81,5
2019-10-22 19:43:50.758 -0400,373,1571787830.00682,33.99282886438655,-81.03193782518086,71.45718,1.49385,342.1711802528069,3.15435293152522,4.886163588764409,-9999,437091.3925236667,0.8213348388671875,0.612579345703125,-0.341461181640625,1,0.81,5
2019-10-22 19:43:50.798 -0400,374,1571787830.00682,33.99282886438655,-81.03193782518086,71.45718,1.49385,342.1711802528069,3.15435293152522,4.886163588764409,-9999,437091.4325056667,0.87078857421875,0.6025238037109375,-0.437347412109375,1,0.81,5
2019-10-22 19:43:50.838 -0400,375,1571787830.00682,33.99282886438655,-81.03193782518086,71.45718,1.49385,342.1711802528069,3.15435293152522,4.886163588764409,-9999,437091.4724876667,0.8991851806640625,0.5504150390625,-0.5066680908203125,1,0.81,5
2019-10-22 19:43:50.878 -0400,376,1571787830.00682,33.99282886438655,-81.03193782518086,71.45718,1.49385,342.1711802528069,3.15435293152522,4.886163588764409,-9999,437091.5124686667,1.092391967773438,0.581939697265625,-0.5656585693359375,1,0.81,5
2019-10-22 19:43:50.918 -0400,377,1571787830.00682,33.99282886438655,-81.03193782518086,71.45718,1.49385,342.1711802528069,3.15435293152522,4.886163588764409,-9999,437091.5524506667,1.260025024414062,0.63006591796875,-0.5256805419921875,1,0.81,5
2019-10-22 19:43:50.966 -0400,378,1571787830.00682,33.99282886438655,-81.03193782518086,71.45718,1.49385,342.1711802528069,3.15435293152522,4.886163588764409,-9999,437091.5924326667,1.324172973632812,0.6468048095703125,-0.5498809814453125,1,0.81,5
2019-10-22 19:43:50.998 -0400,379,1571787830.00682,33.99282886438655,-81.03193782518086,71.45718,1.49385,342.1711802528069,3.15435293152522,4.886163588764409,-9999,437091.6324136667,0.9386749267578125,0.4709014892578125,-0.51080322265625,1,0.81,5
2019-10-22 19:43:51.038 -0400,380,1571787830.00682,33.99282886438655,-81.03193782518086,71.45718,1.49385,342.1711802528069,3.15435293152522,4.886163588764409,-9999,437091.6723956667,1.388580322265625,0.5392913818359375,-0.3627166748046875,1,0.81,5
2019-10-22 19:43:51.078 -0400,381,1571787830.00682,33.99282886438655,-81.03193782518086,71.45718,1.49385,342.1711802528069,3.15435293152522,4.886163588764409,-9999,437091.7123776667,1.301101684570312,0.4056549072265625,-0.2462615966796875,1,0.81,5
2019-10-22 19:43:51.118 -0400,382,1571787830.00682,33.99282886438655,-81.03193782518086,71.45718,1.49385,342.1711802528069,3.15435293152522,4.886163588764409,-9999,437091.7523586667,1.206253051757812,0.3189849853515625,-0.19915771484375,1,0.81,5
2019-10-22 19:43:51.158 -0400,383,1571787830.00682,33.99282886438655,-81.03193782518086,71.45718,1.49385,342.1711802528069,3.15435293152522,4.886163588764409,-9999,437091.7923406667,1.020538330078125,0.3064117431640625,-0.151397705078125,1,0.81,5
2019-10-22 19:43:51.198 -0400,384,1571787830.00682,33.99282886438655,-81.03193782518086,71.45718,1.49385,342.1711802528069,3.15435293152522,4.886163588764409,-9999,437091.8323226667,0.9022979736328125,0.383392333984375,-0.098480224609375,1,0.81,5
2019-10-22 19:43:51.238 -0400,385,1571787830.00682,33.99282886438655,-81.03193782518086,71.45718,1.49385,342.1711802528069,3.15435293152522,4.886163588764409,-9999,437091.8723036667,0.8532257080078125,0.377777099609375,-0.0532989501953125,1,0.81,5
2019-10-22 19:43:51.278 -0400,386,1571787830.00682,33.99282886438655,-81.03193782518086,71.45718,1.49385,342.1711802528069,3.15435293152522,4.886163588764409,-9999,437091.9122856667,0.8309783935546875,0.343841552734375,-0.0203094482421875,1,0.81,5
2019-10-22 19:43:51.318 -0400,387,1571787830.00682,33.99282886438655,-81.03193782518086,71.45718,1.49385,342.1711802528069,3.15435293152522,4.886163588764409,-9999,437091.9522676667,0.79644775390625,0.2880706787109375,-0.01226806640625,1,0.81,5
2019-10-22 19:43:51.358 -0400,388,1571787831.006818,33.99283538055048,-81.03194559770735,72.53519,1.424358,337.2992058169002,3.179404853868927,4.869899568572595,-9999,437091.9922486667,0.77783203125,0.264923095703125,-0.011322021484375,1,0.81,5
2019-10-22 19:43:51.398 -0400,389,1571787831.006818,33.99283538055048,-81.03194559770735,72.53519,1.424358,337.2992058169002,3.179404853868927,4.869899568572595,-9999,437092.0322306667,0.821319580078125,0.28778076171875,-0.038543701171875,1,0.81,5
2019-10-22 19:43:51.438 -0400,390,1571787831.006818,33.99283538055048,-81.03194559770735,72.53519,1.424358,337.2992058169002,3.179404853868927,4.869899568572595,-9999,437092.0722126667,0.829193115234375,0.307159423828125,-0.058685302734375,1,0.81,5
2019-10-22 19:43:51.478 -0400,391,1571787831.006818,33.99283538055048,-81.03194559770735,72.53519,1.424358,337.2992058169002,3.179404853868927,4.869899568572595,-9999,437092.1121936667,1.03082275390625,0.4103851318359375,-0.0904083251953125,1,0.81,5
2019-10-22 19:43:51.518 -0400,392,1571787831.006818,33.99283538055048,-81.03194559770735,72.53519,1.424358,337.2992058169002,3.179404853868927,4.869899568572595,-9999,437092.1521756667,0.8404083251953125,0.364532470703125,-0.2241363525390625,1,0.81,5
2019-10-22 19:43:51.557 -0400,393,1571787831.006818,33.99283538055048,-81.03194559770735,72.53519,1.424358,337.2992058169002,3.179404853868927,4.869899568572595,-9999,437092.1921576667,1.154205322265625,0.5217437744140625,-0.3932342529296875,1,0.81,5
2019-10-22 19:43:51.597 -0400,394,1571787831.006818,33.99283538055048,-81.03194559770735,72.53519,1.424358,337.2992058169002,3.179404853868927,4.869899568572595,-9999,437092.2321386667,1.3834228515625,0.4951171875,-0.4048004150390625,1,0.81,5
2019-10-22 19:43:51.637 -0400,395,1571787831.006818,33.99283538055048,-81.03194559770735,72.53519,1.424358,337.2992058169002,3.179404853868927,4.869899568572595,-9999,437092.2721206667,1.2005615234375,0.368804931640625,-0.268341064453125,1,0.81,5
2019-10-22 19:43:51.678 -0400,396,1571787831.006818,33.99283538055048,-81.03194559770735,72.53519,1.424358,337.2992058169002,3.179404853868927,4.869899568572595,-9999,437092.31210225,0.90240478515625,0.1793212890625,-0.2953643798828125,1,0.81,5
2019-10-22 19:43:51.717 -0400,397,1571787831.006818,33.99283538055048,-81.03194559770735,72.53519,1.424358,337.2992058169002,3.179404853868927,4.869899568572595,-9999,437092.35208325,0.7755889892578125,0.305206298828125,-0.3108978271484375,1,0.81,5
2019-10-22 19:43:51.757 -0400,398,1571787831.006818,33.99283538055048,-81.03194559770735,72.53519,1.424358,337.2992058169002,3.179404853868927,4.869899568572595,-9999,437092.39206525,0.7303314208984375,0.477874755859375,-0.3244476318359375,1,0.81,5
2019-10-22 19:43:51.797 -0400,399,1571787831.006818,33.99283538055048,-81.03194559770735,72.53519,1.424358,337.2992058169002,3.179404853868927,4.869899568572595,-9999,437092.43204725,0.740814208984375,0.5955963134765625,-0.382904052734375,1,0.81,5
2019-10-22 19:43:51.837 -0400,400,1571787831.006818,33.99283538055048,-81.03194559770735,72.53519,1.424358,337.2992058169002,3.179404853868927,4.869899568572595,-9999,437092.47202825,0.81829833984375,0.627899169921875,-0.461883544921875,1,0.81,5
2019-10-22 19:43:51.877 -0400,401,1571787831.006818,33.99283538055048,-81.03194559770735,72.53519,1.424358,337.2992058169002,3.179404853868927,4.869899568572595,-9999,437092.51201025,0.8672332763671875,0.5424041748046875,-0.4919281005859375,1,0.81,5
2019-10-22 19:43:51.917 -0400,402,1571787831.006818,33.99283538055048,-81.03194559770735,72.53519,1.424358,337.2992058169002,3.179404853868927,4.869899568572595,-9999,437092.55199225,1.027374267578125,0.512969970703125,-0.514312744140625,1,0.81,5
2019-10-22 19:43:51.964 -0400,403,1571787831.006818,33.99283538055048,-81.03194559770735,72.53519,1.424358,337.2992058169002,3.179404853868927,4.869899568572595,-9999,437092.59197325,1.229034423828125,0.6132659912109375,-0.531280517578125,1,0.81,5
2019-10-22 19:43:51.997 -0400,404,1571787831.006818,33.99283538055048,-81.03194559770735,72.53519,1.424358,337.2992058169002,3.179404853868927,4.869899568572595,-9999,437092.63195525,1.5849609375,0.6715545654296875,-0.4738616943359375,1,0.81,5
2019-10-22 19:43:52.037 -0400,405,1571787831.006818,33.99283538055048,-81.03194559770735,72.53519,1.424358,337.2992058169002,3.179404853868927,4.869899568572595,-9999,437092.67193725,0.979461669921875,0.470611572265625,-0.4441070556640625,1,0.81,5
2019-10-22 19:43:52.077 -0400,406,1571787831.006818,33.99283538055048,-81.03194559770735,72.53519,1.424358,337.2992058169002,3.179404853868927,4.869899568572595,-9999,437092.71191825,1.359878540039062,0.5761871337890625,-0.33221435546875,1,0.81,5
2019-10-22 19:43:52.117 -0400,407,1571787831.006818,33.99283538055048,-81.03194559770735,72.53519,1.424358,337.2992058169002,3.179404853868927,4.869899568572595,-9999,437092.75190025,1.4351806640625,0.4950408935546875,-0.1874847412109375,1,0.81,5
2019-10-22 19:43:52.157 -0400,408,1571787831.006818,33.99283538055048,-81.03194559770735,72.53519,1.424358,337.2992058169002,3.179404853868927,4.869899568572595,-9999,437092.7918822501,1.27032470703125,0.3267974853515625,-0.114532470703125,1,0.81,5
2019-10-22 19:43:52.197 -0400,409,1571787831.006818,33.99283538055048,-81.03194559770735,72.53519,1.424358,337.2992058169002,3.179404853868927,4.869899568572595,-9999,437092.83186325,1.046356201171875,0.2745361328125,-0.0916748046875,1,0.81,5
2019-10-22 19:43:52.237 -0400,410,1571787831.006818,33.99283538055048,-81.03194559770735,72.53519,1.424358,337.2992058169002,3.179404853868927,4.869899568572595,-9999,437092.87184525,0.902862548828125,0.3413238525390625,-0.0473785400390625,1,0.81,5
2019-10-22 19:43:52.277 -0400,411,1571787831.006818,33.99283538055048,-81.03194559770735,72.53519,1.424358,337.2992058169002,3.179404853868927,4.869899568572595,-9999,437092.91182725,0.8390350341796875,0.406280517578125,-0.01678466796875,1,0.81,5
2019-10-22 19:43:52.317 -0400,412,1571787831.006818,33.99283538055048,-81.03194559770735,72.53519,1.424358,337.2992058169002,3.179404853868927,4.869899568572595,-9999,437092.95180825,0.7949676513671875,0.375457763671875,-0.0124359130859375,1,0.81,5
2019-10-22 19:43:52.368 -0400,413,1571787831.006818,33.99283538055048,-81.03194559770735,72.53519,1.424358,337.2992058169002,3.179404853868927,4.869899568572595,-9999,437092.99179025,0.7344207763671875,0.2917327880859375,0.00439453125,1,0.81,5
2019-10-22 19:43:52.397 -0400,414,1571787832.006815,33.99284637257044,-81.03195443357191,72.53191,1.447537,334.3608182060661,3.188554143903342,4.863914010772154,-9999,437093.03177225,0.6652069091796875,0.2475433349609375,-0.0083770751953125,1,0.81,5
2019-10-22 19:43:52.437 -0400,415,1571787832.006815,33.99284637257044,-81.03195443357191,72.53191,1.447537,334.3608182060661,3.188554143903342,4.863914010772154,-9999,437093.07175325,0.6561279296875,0.246185302734375,-0.0480194091796875,1,0.81,5
2019-10-22 19:43:52.481 -0400,416,1571787832.006815,33.99284637257044,-81.03195443357191,72.53191,1.447537,334.3608182060661,3.188554143903342,4.863914010772154,-9999,437093.11173525,0.6855621337890625,0.26611328125,-0.0947265625,1,0.81,5
2019-10-22 19:43:52.517 -0400,417,1571787832.006815,33.99284637257044,-81.03195443357191,72.53191,1.447537,334.3608182060661,3.188554143903342,4.863914010772154,-9999,437093.15171725,0.873931884765625,0.3497772216796875,-0.1795806884765625,1,0.81,5
2019-10-22 19:43:52.557 -0400,418,1571787832.006815,33.99284637257044,-81.03195443357191,72.53191,1.447537,334.3608182060661,3.188554143903342,4.863914010772154,-9999,437093.19169825,1.126556396484375,0.4266510009765625,-0.293975830078125,1,0.81,5
2019-10-22 19:43:52.597 -0400,419,1571787832.006815,33.99284637257044,-81.03195443357191,72.53191,1.447537,334.3608182060661,3.188554143903342,4.863914010772154,-9999,437093.23168025,1.060333251953125,0.388397216796875,-0.3524017333984375,1,0.81,5
2019-10-22 19:43:52.637 -0400,420,1571787832.006815,33.99284637257044,-81.03195443357191,72.53191,1.447537,334.3608182060661,3.188554143903342,4.863914010772154,-9999,437093.27166225,1.468780517578125,0.36370849609375,-0.378570556640625,1,0.81,5
2019-10-22 19:43:52.677 -0400,421,1571787832.006815,33.99284637257044,-81.03195443357191,72.53191,1.447537,334.3608182060661,3.188554143903342,4.863914010772154,-9999,437093.311643625,1.611083984375,0.412750244140625,-0.2705078125,1,0.81,5
2019-10-22 19:43:52.717 -0400,422,1571787832.006815,33.99284637257044,-81.03195443357191,72.53191,1.447537,334.3608182060661,3.188554143903342,4.863914010772154,-9999,437093.351625625,1.221160888671875,0.3467559814453125,-0.2693023681640625,1,0.81,5
2019-10-22 19:43:52.757 -0400,423,1571787832.006815,33.99284637257044,-81.03195443357191,72.53191,1.447537,334.3608182060661,3.188554143903342,4.863914010772154,-9999,437093.3916066251,0.9622039794921875,0.4037322998046875,-0.3120880126953125,1,0.81,5
2019-10-22 19:43:52.797 -0400,424,1571787832.006815,33.99284637257044,-81.03195443357191,72.53191,1.447537,334.3608182060661,3.188554143903342,4.863914010772154,-9999,437093.431588625,0.8128814697265625,0.5182952880859375,-0.212646484375,1,0.81,5
2019-10-22 19:43:52.837 -0400,425,1571787832.006815,33.99284637257044,-81.03195443357191,72.53191,1.447537,334.3608182060661,3.188554143903342,4.863914010772154,-9999,437093.471570625,0.7387847900390625,0.6197967529296875,-0.2387542724609375,1,0.81,5
2019-10-22 19:43:52.877 -0400,426,1571787832.006815,33.99284637257044,-81.03195443357191,72.53191,1.447537,334.3608182060661,3.188554143903342,4.863914010772154,-9999,437093.511551625,0.7133941650390625,0.623748779296875,-0.276153564453125,1,0.81,5
2019-10-22 19:43:52.917 -0400,427,1571787832.006815,33.99284637257044,-81.03195443357191,72.53191,1.447537,334.3608182060661,3.188554143903342,4.863914010772154,-9999,437093.5515336251,0.7540435791015625,0.5449981689453125,-0.2891082763671875,1,0.81,5
2019-10-22 19:43:52.970 -0400,428,1571787832.006815,33.99284637257044,-81.03195443357191,72.53191,1.447537,334.3608182060661,3.188554143903342,4.863914010772154,-9999,437093.591515625,0.8100738525390625,0.5255889892578125,-0.3226165771484375,1,0.81,5
2019-10-22 19:43:52.997 -0400,429,1571787832.006815,33.99284637257044,-81.03195443357191,72.53191,1.447537,334.3608182060661,3.188554143903342,4.863914010772154,-9999,437093.631496625,0.9575042724609375,0.6502838134765625,-0.3931427001953125,1,0.81,5
2019-10-22 19:43:53.037 -0400,430,1571787832.006815,33.99284637257044,-81.03195443357191,72.53191,1.447537,334.3608182060661,3.188554143903342,4.863914010772154,-9999,437093.671478625,1.12359619140625,0.681488037109375,-0.358123779296875,1,0.81,5
2019-10-22 19:43:53.077 -0400,431,1571787832.006815,33.99284637257044,-81.03195443357191,72.53191,1.447537,334.3608182060661,3.188554143903342,4.863914010772154,-9999,437093.7114606251,1.096389770507812,0.7214202880859375,-0.4398956298828125,1,0.81,5
2019-10-22 19:43:53.117 -0400,432,1571787832.006815,33.99284637257044,-81.03195443357191,72.53191,1.447537,334.3608182060661,3.188554143903342,4.863914010772154,-9999,437093.751441625,0.8386383056640625,0.581085205078125,-0.4032745361328125,1,0.81,5
2019-10-22 19:43:53.157 -0400,433,1571787832.006815,33.99284637257044,-81.03195443357191,72.53191,1.447537,334.3608182060661,3.188554143903342,4.863914010772154,-9999,437093.791423625,1.364501953125,0.6688079833984375,-0.3592987060546875,1,0.81,5
2019-10-22 19:43:53.197 -0400,434,1571787832.006815,33.99284637257044,-81.03195443357191,72.53191,1.447537,334.3608182060661,3.188554143903342,4.863914010772154,-9999,437093.831405625,1.381301879882812,0.4213714599609375,-0.1651458740234375,1,0.81,5
2019-10-22 19:43:53.238 -0400,435,1571787832.006815,33.99284637257044,-81.03195443357191,72.53191,1.447537,334.3608182060661,3.188554143903342,4.863914010772154,-9999,437093.871386625,1.221466064453125,0.3088531494140625,-0.1901092529296875,1,0.81,5
2019-10-22 19:43:53.277 -0400,436,1571787833.006813,33.9928557205152,-81.03195828016072,72.60844,1.244475,336.7360298379559,3.211375264244342,4.84887677147898,-9999,437093.911368625,1.105911254882812,0.3052825927734375,-0.2170257568359375,1,0.81,5
2019-10-22 19:43:53.317 -0400,437,1571787833.006813,33.9928557205152,-81.03195828016072,72.60844,1.244475,336.7360298379559,3.211375264244342,4.84887677147898,-9999,437093.951350625,1.0318603515625,0.345184326171875,-0.139984130859375,1,0.81,5
2019-10-22 19:43:53.357 -0400,438,1571787833.006813,33.9928557205152,-81.03195828016072,72.60844,1.244475,336.7360298379559,3.211375264244342,4.84887677147898,-9999,437093.991331625,0.962860107421875,0.3464202880859375,-0.0766143798828125,1,0.81,5
2019-10-22 19:43:53.397 -0400,439,1571787833.006813,33.9928557205152,-81.03195828016072,72.60844,1.244475,336.7360298379559,3.211375264244342,4.84887677147898,-9999,437094.031313625,0.8944854736328125,0.3297119140625,-0.0803985595703125,1,0.81,5
2019-10-22 19:43:53.437 -0400,440,1571787833.006813,33.9928557205152,-81.03195828016072,72.60844,1.244475,336.7360298379559,3.211375264244342,4.84887677147898,-9999,437094.071294625,0.8160247802734375,0.2811431884765625,-0.08935546875,1,0.81,5
2019-10-22 19:43:53.477 -0400,441,1571787833.006813,33.9928557205152,-81.03195828016072,72.60844,1.244475,336.7360298379559,3.211375264244342,4.84887677147898,-9999,437094.111276625,0.730804443359375,0.1932830810546875,-0.061065673828125,1,0.81,5
2019-10-22 19:43:53.517 -0400,442,1571787833.006813,33.9928557205152,-81.03195828016072,72.60844,1.244475,336.7360298379559,3.211375264244342,4.84887677147898,-9999,437094.151258625,0.758087158203125,0.2034759521484375,-0.093841552734375,1,0.81,5
2019-10-22 19:43:53.557 -0400,443,1571787833.006813,33.9928557205152,-81.03195828016072,72.60844,1.244475,336.7360298379559,3.211375264244342,4.84887677147898,-9999,437094.191239625,0.7837371826171875,0.254302978515625,-0.105499267578125,1,0.81,5
2019-10-22 19:43:53.597 -0400,444,1571787833.006813,33.9928557205152,-81.03195828016072,72.60844,1.244475,336.7360298379559,3.211375264244342,4.84887677147898,-9999,437094.231221625,1.027587890625,0.371002197265625,-0.1484527587890625,1,0.81,5
2019-10-22 19:43:53.637 -0400,445,1571787833.006813,33.9928557205152,-81.03195828016072,72.60844,1.244475,336.7360298379559,3.211375264244342,4.84887677147898,-9999,437094.271203625,0.9329986572265625,0.34454345703125,-0.2102813720703125,1,0.81,5
2019-10-22 19:43:53.677 -0400,446,1571787833.006813,33.9928557205152,-81.03195828016072,72.60844,1.244475,336.7360298379559,3.211375264244342,4.84887677147898,-9999,437094.311183875,1.155136108398438,0.472808837890625,-0.3509674072265625,1,0.81,5
2019-10-22 19:43:53.717 -0400,447,1571787833.006813,33.9928557205152,-81.03195828016072,72.60844,1.244475,336.7360298379559,3.211375264244342,4.84887677147898,-9999,437094.351165875,1.527084350585938,0.530303955078125,-0.385833740234375,1,0.81,5
2019-10-22 19:43:53.756 -0400,448,1571787833.006813,33.9928557205152,-81.03195828016072,72.60844,1.244475,336.7360298379559,3.211375264244342,4.84887677147898,-9999,437094.3911478751,1.423919677734375,0.4597320556640625,-0.2429351806640625,1,0.81,5
2019-10-22 19:43:53.796 -0400,449,1571787833.006813,33.9928557205152,-81.03195828016072,72.60844,1.244475,336.7360298379559,3.211375264244342,4.84887677147898,-9999,437094.431128875,1.046249389648438,0.3022308349609375,-0.305419921875,1,0.81,5
2019-10-22 19:43:53.836 -0400,450,1571787833.006813,33.9928557205152,-81.03195828016072,72.60844,1.244475,336.7360298379559,3.211375264244342,4.84887677147898,-9999,437094.471110875,0.8358306884765625,0.3644561767578125,-0.2881622314453125,1,0.81,5
2019-10-22 19:43:53.877 -0400,451,1571787833.006813,33.9928557205152,-81.03195828016072,72.60844,1.244475,336.7360298379559,3.211375264244342,4.84887677147898,-9999,437094.511091875,0.7456512451171875,0.4968109130859375,-0.2392730712890625,1,0.81,5
2019-10-22 19:43:53.916 -0400,452,1571787833.006813,33.9928557205152,-81.03195828016072,72.60844,1.244475,336.7360298379559,3.211375264244342,4.84887677147898,-9999,437094.551073875,0.7472076416015625,0.6013336181640625,-0.2804412841796875,1,0.81,5
2019-10-22 19:43:53.964 -0400,453,1571787833.006813,33.9928557205152,-81.03195828016072,72.60844,1.244475,336.7360298379559,3.211375264244342,4.84887677147898,-9999,437094.591055875,0.8062896728515625,0.6551513671875,-0.3732757568359375,1,0.81,5
2019-10-22 19:43:53.996 -0400,454,1571787833.006813,33.9928557205152,-81.03195828016072,72.60844,1.244475,336.7360298379559,3.211375264244342,4.84887677147898,-9999,437094.631036875,0.859375,0.55255126953125,-0.3852996826171875,1,0.81,5
2019-10-22 19:43:54.036 -0400,455,1571787833.006813,33.9928557205152,-81.03195828016072,72.60844,1.244475,336.7360298379559,3.211375264244342,4.84887677147898,-9999,437094.671018875,0.967681884765625,0.525054931640625,-0.4132843017578125,1,0.81,5
2019-10-22 19:43:54.076 -0400,456,1571787833.006813,33.9928557205152,-81.03195828016072,72.60844,1.244475,336.7360298379559,3.211375264244342,4.84887677147898,-9999,437094.711000875,1.1026611328125,0.6406402587890625,-0.456573486328125,1,0.81,5
2019-10-22 19:43:54.116 -0400,457,1571787833.006813,33.9928557205152,-81.03195828016072,72.60844,1.244475,336.7360298379559,3.211375264244342,4.84887677147898,-9999,437094.7509818751,1.349014282226562,0.6703033447265625,-0.4669647216796875,1,0.81,5
2019-10-22 19:43:54.156 -0400,458,1571787833.006813,33.9928557205152,-81.03195828016072,72.60844,1.244475,336.7360298379559,3.211375264244342,4.84887677147898,-9999,437094.790963875,0.909423828125,0.5268402099609375,-0.4975128173828125,1,0.81,5
2019-10-22 19:43:54.196 -0400,459,1571787833.006813,33.9928557205152,-81.03195828016072,72.60844,1.244475,336.7360298379559,3.211375264244342,4.84887677147898,-9999,437094.830945875,1.185592651367188,0.504638671875,-0.398193359375,1,0.81,5
2019-10-22 19:43:54.236 -0400,460,1571787833.006813,33.9928557205152,-81.03195828016072,72.60844,1.244475,336.7360298379559,3.211375264244342,4.84887677147898,-9999,437094.870926875,1.584457397460938,0.58447265625,-0.305419921875,1,0.81,5
2019-10-22 19:43:54.276 -0400,461,1571787833.006813,33.9928557205152,-81.03195828016072,72.60844,1.244475,336.7360298379559,3.211375264244342,4.84887677147898,-9999,437094.910908875,1.386734008789062,0.289825439453125,-0.1175689697265625,1,0.81,5
2019-10-22 19:43:54.316 -0400,462,1571787833.006813,33.9928557205152,-81.03195828016072,72.60844,1.244475,336.7360298379559,3.211375264244342,4.84887677147898,-9999,437094.950889875,1.111740112304688,0.2109832763671875,-0.1372222900390625,1,0.81,5
2019-10-22 19:43:54.356 -0400,463,1571787834.00681,33.99286210662061,-81.031961309247,72.57386,0.9247386,341.9019744461412,3.239631505848307,4.830043968651203,-9999,437094.990871875,0.950286865234375,0.2904815673828125,-0.1047515869140625,1,0.81,5
2019-10-22 19:43:54.396 -0400,464,1571787834.00681,33.99286210662061,-81.031961309247,72.57386,0.9247386,341.9019744461412,3.239631505848307,4.830043968651203,-9999,437095.030853875,0.90594482421875,0.4078369140625,-0.08050537109375,1,0.81,5
2019-10-22 19:43:54.436 -0400,465,1571787834.00681,33.99286210662061,-81.031961309247,72.57386,0.9247386,341.9019744461412,3.239631505848307,4.830043968651203,-9999,437095.070834875,0.8968353271484375,0.4028778076171875,-0.034454345703125,1,0.81,5
2019-10-22 19:43:54.476 -0400,466,1571787834.00681,33.99286210662061,-81.031961309247,72.57386,0.9247386,341.9019744461412,3.239631505848307,4.830043968651203,-9999,437095.110816875,0.84197998046875,0.328216552734375,-0.0053253173828125,1,0.81,5
2019-10-22 19:43:54.516 -0400,467,1571787834.00681,33.99286210662061,-81.031961309247,72.57386,0.9247386,341.9019744461412,3.239631505848307,4.830043968651203,-9999,437095.150797875,0.778656005859375,0.2729949951171875,-0.0155792236328125,1,0.81,5
2019-10-22 19:43:54.556 -0400,468,1571787834.00681,33.99286210662061,-81.031961309247,72.57386,0.9247386,341.9019744461412,3.239631505848307,4.830043968651203,-9999,437095.190779875,0.754791259765625,0.245330810546875,-0.02386474609375,1,0.81,5
2019-10-22 19:43:54.596 -0400,469,1571787834.00681,33.99286210662061,-81.031961309247,72.57386,0.9247386,341.9019744461412,3.239631505848307,4.830043968651203,-9999,437095.230761875,0.782867431640625,0.2595367431640625,-0.0542144775390625,1,0.81,5
2019-10-22 19:43:54.636 -0400,470,1571787834.00681,33.99286210662061,-81.031961309247,72.57386,0.9247386,341.9019744461412,3.239631505848307,4.830043968651203,-9999,437095.270742875,0.881988525390625,0.3171234130859375,-0.0849151611328125,1,0.81,5
2019-10-22 19:43:54.676 -0400,471,1571787834.00681,33.99286210662061,-81.031961309247,72.57386,0.9247386,341.9019744461412,3.239631505848307,4.830043968651203,-9999,437095.310724375,0.951934814453125,0.406402587890625,-0.2130126953125,1,0.81,5
2019-10-22 19:43:54.716 -0400,472,1571787834.00681,33.99286210662061,-81.031961309247,72.57386,0.9247386,341.9019744461412,3.239631505848307,4.830043968651203,-9999,437095.350706375,1.004043579101562,0.4289398193359375,-0.3897552490234375,1,0.81,5
2019-10-22 19:43:54.756 -0400,473,1571787834.00681,33.99286210662061,-81.031961309247,72.57386,0.9247386,341.9019744461412,3.239631505848307,4.830043968651203,-9999,437095.390687375,1.358673095703125,0.4830474853515625,-0.503204345703125,1,0.81,5
2019-10-22 19:43:54.796 -0400,474,1571787834.00681,33.99286210662061,-81.031961309247,72.57386,0.9247386,341.9019744461412,3.239631505848307,4.830043968651203,-9999,437095.4306693751,1.397003173828125,0.3820343017578125,-0.3572845458984375,1,0.81,5
2019-10-22 19:43:54.836 -0400,475,1571787834.00681,33.99286210662061,-81.031961309247,72.57386,0.9247386,341.9019744461412,3.239631505848307,4.830043968651203,-9999,437095.470650375,1.14801025390625,0.2243194580078125,-0.322998046875,1,0.81,5
2019-10-22 19:43:54.876 -0400,476,1571787834.00681,33.99286210662061,-81.031961309247,72.57386,0.9247386,341.9019744461412,3.239631505848307,4.830043968651203,-9999,437095.510632375,0.89385986328125,0.247467041015625,-0.3877105712890625,1,0.81,5
2019-10-22 19:43:54.916 -0400,477,1571787834.00681,33.99286210662061,-81.031961309247,72.57386,0.9247386,341.9019744461412,3.239631505848307,4.830043968651203,-9999,437095.550614375,0.7810516357421875,0.360382080078125,-0.325927734375,1,0.81,5
2019-10-22 19:43:54.956 -0400,478,1571787834.00681,33.99286210662061,-81.031961309247,72.57386,0.9247386,341.9019744461412,3.239631505848307,4.830043968651203,-9999,437095.590595375,0.7342987060546875,0.578704833984375,-0.34259033203125,1,0.81,5
2019-10-22 19:43:54.996 -0400,479,1571787834.00681,33.99286210662061,-81.031961309247,72.57386,0.9247386,341.9019744461412,3.239631505848307,4.830043968651203,-9999,437095.630577375,0.6785888671875,0.6641693115234375,-0.4081268310546875,1,0.81,5
2019-10-22 19:43:55.036 -0400,480,1571787834.00681,33.99286210662061,-81.031961309247,72.57386,0.9247386,341.9019744461412,3.239631505848307,4.830043968651203,-9999,437095.670559375,0.73626708984375,0.6069183349609375,-0.4092559814453125,1,0.81,5
2019-10-22 19:43:55.076 -0400,481,1571787834.00681,33.99286210662061,-81.031961309247,72.57386,0.9247386,341.9019744461412,3.239631505848307,4.830043968651203,-9999,437095.710540375,0.8093109130859375,0.55828857421875,-0.4538421630859375,1,0.81,5
2019-10-22 19:43:55.116 -0400,482,1571787834.00681,33.99286210662061,-81.031961309247,72.57386,0.9247386,341.9019744461412,3.239631505848307,4.830043968651203,-9999,437095.750522375,1.019912719726562,0.632110595703125,-0.4666290283203125,1,0.81,5
2019-10-22 19:43:55.156 -0400,483,1571787834.00681,33.99286210662061,-81.031961309247,72.57386,0.9247386,341.9019744461412,3.239631505848307,4.830043968651203,-9999,437095.790503375,1.313201904296875,0.6969757080078125,-0.446380615234375,1,0.81,5
2019-10-22 19:43:55.196 -0400,484,1571787834.00681,33.99286210662061,-81.031961309247,72.57386,0.9247386,341.9019744461412,3.239631505848307,4.830043968651203,-9999,437095.830485375,1.349700927734375,0.6957244873046875,-0.494720458984375,1,0.81,5
