loggingTime(txt),loggingSample(N),locationTimestamp_since1970(s),locationLatitude(WGS84),locationLongitude(WGS84),locationAltitude(m),locationSpeed(m/s),locationCourse(°),locationVerticalAccuracy(m),locationHorizontalAccuracy(m),locationFloor(Z),accelerometerTimestamp_sinceReboot(s),accelerometerAccelerationX(G),accelerometerAccelerationY(G),accelerometerAccelerationZ(G),batteryState,batteryLevel,label
2019-10-23 10:35:32.096 -0400,1,1571841330.260161,33.99892919204518,-81.02415047635226,84.92884,-1,-1,10,65,-9999,445377.9500035417,0.1985015869140625,0.116912841796875,-0.6407623291015625,1,0.94,5
2019-10-23 10:35:32.126 -0400,2,1571841330.260161,33.99892919204518,-81.02415047635226,84.92884,-1,-1,10,65,-9999,445377.9899885417,0.176727294921875,-0.0413970947265625,-0.4987640380859375,1,0.94,5
2019-10-23 10:35:32.166 -0400,3,1571841330.260161,33.99892919204518,-81.02415047635226,84.92884,-1,-1,10,65,-9999,445378.0299735417,0.2261810302734375,0.0515899658203125,-0.4990081787109375,1,0.94,5
2019-10-23 10:35:32.206 -0400,4,1571841330.260161,33.99892919204518,-81.02415047635226,84.92884,-1,-1,10,65,-9999,445378.0699575417,0.14642333984375,0.0178375244140625,-0.5487518310546875,1,0.94,5
2019-10-23 10:35:32.246 -0400,5,1571841330.260161,33.99892919204518,-81.02415047635226,84.92884,-1,-1,10,65,-9999,445378.1099425417,0.3967437744140625,0.1356201171875,-0.6583251953125,1,0.94,5
2019-10-23 10:35:32.286 -0400,6,1571841330.260161,33.99892919204518,-81.02415047635226,84.92884,-1,-1,10,65,-9999,445378.1499275417,0.409454345703125,0.1984100341796875,-0.860107421875,1,0.94,5
2019-10-23 10:35:32.326 -0400,7,1571841330.260161,33.99892919204518,-81.02415047635226,84.92884,-1,-1,10,65,-9999,445378.1899115417,0.3614349365234375,0.195404052734375,-1.085418701171875,1,0.94,5
2019-10-23 10:35:32.366 -0400,8,1571841330.260161,33.99892919204518,-81.02415047635226,84.92884,-1,-1,10,65,-9999,445378.2298965417,0.53173828125,0.3233489990234375,-1.10821533203125,1,0.94,5
2019-10-23 10:35:32.406 -0400,9,1571841330.260161,33.99892919204518,-81.02415047635226,84.92884,-1,-1,10,65,-9999,445378.26988125,0.7834930419921875,0.4442138671875,-1.2109375,1,0.94,5
2019-10-23 10:35:32.446 -0400,10,1571841330.260161,33.99892919204518,-81.02415047635226,84.92884,-1,-1,10,65,-9999,445378.30986525,0.7486724853515625,0.486541748046875,-1.095016479492188,1,0.94,5
2019-10-23 10:35:32.486 -0400,11,1571841330.260161,33.99892919204518,-81.02415047635226,84.92884,-1,-1,10,65,-9999,445378.34985025,0.625213623046875,0.9987335205078125,-0.9330291748046875,1,0.94,5
2019-10-23 10:35:32.526 -0400,12,1571841330.260161,33.99892919204518,-81.02415047635226,84.92884,-1,-1,10,65,-9999,445378.38983525,0.7123260498046875,1.402420043945312,-1.102767944335938,1,0.94,5
2019-10-23 10:35:32.566 -0400,13,1571841330.260161,33.99892919204518,-81.02415047635226,84.92884,-1,-1,10,65,-9999,445378.42981925,0.64935302734375,1.027511596679688,-0.7424774169921875,1,0.94,5
2019-10-23 10:35:32.606 -0400,14,1571841330.260161,33.99892919204518,-81.02415047635226,84.92884,-1,-1,10,65,-9999,445378.4698042501,0.4338226318359375,0.69720458984375,-0.4731597900390625,1,0.94,5
2019-10-23 10:35:32.651 -0400,15,1571841330.260161,33.99892919204518,-81.02415047635226,84.92884,-1,-1,10,65,-9999,445378.50978925,0.2571563720703125,0.5683746337890625,-0.3621063232421875,1,0.94,5
2019-10-23 10:35:32.686 -0400,16,1571841330.260161,33.99892919204518,-81.02415047635226,84.92884,-1,-1,10,65,-9999,445378.54977325,0.2021026611328125,0.557830810546875,-0.32354736328125,1,0.94,5
2019-10-23 10:35:32.726 -0400,17,1571841330.260161,33.99892919204518,-81.02415047635226,84.92884,-1,-1,10,65,-9999,445378.58975825,0.3426513671875,0.6448516845703125,-0.281524658203125,1,0.94,5
2019-10-23 10:35:32.765 -0400,18,1571841330.260161,33.99892919204518,-81.02415047635226,84.92884,-1,-1,10,65,-9999,445378.62974325,0.5545806884765625,0.6303863525390625,-0.213836669921875,1,0.94,5
2019-10-23 10:35:32.806 -0400,19,1571841330.260161,33.99892919204518,-81.02415047635226,84.92884,-1,-1,10,65,-9999,445378.66972725,0.9161529541015625,0.5217437744140625,-0.236724853515625,1,0.94,5
2019-10-23 10:35:32.846 -0400,20,1571841330.260161,33.99892919204518,-81.02415047635226,84.92884,-1,-1,10,65,-9999,445378.70971225,1.157913208007812,0.38116455078125,-0.2332000732421875,1,0.94,5
2019-10-23 10:35:32.886 -0400,21,1571841330.260161,33.99892919204518,-81.02415047635226,84.92884,-1,-1,10,65,-9999,445378.74969725,1.194595336914062,0.312286376953125,-0.185272216796875,1,0.94,5
2019-10-23 10:35:32.926 -0400,22,1571841330.260161,33.99892919204518,-81.02415047635226,84.92884,-1,-1,10,65,-9999,445378.7896812501,1.236358642578125,0.4323577880859375,-0.21466064453125,1,0.94,5
2019-10-23 10:35:32.966 -0400,23,1571841330.260161,33.99892919204518,-81.02415047635226,84.92884,-1,-1,10,65,-9999,445378.82966625,0.9568634033203125,0.4987945556640625,-0.3068389892578125,1,0.94,5
2019-10-23 10:35:33.008 -0400,24,1571841330.260161,33.99892919204518,-81.02415047635226,84.92884,-1,-1,10,65,-9999,445378.86965125,1.064361572265625,0.50897216796875,-0.3712615966796875,1,0.94,5
2019-10-23 10:35:33.046 -0400,25,1571841330.260161,33.99892919204518,-81.02415047635226,84.92884,-1,-1,10,65,-9999,445378.90963525,1.3787841796875,0.5052642822265625,-0.2866668701171875,1,0.94,5
2019-10-23 10:35:33.085 -0400,26,1571841330.260161,33.99892919204518,-81.02415047635226,84.92884,-1,-1,10,65,-9999,445378.94962025,0.942840576171875,0.4373779296875,-0.299468994140625,1,0.94,5
2019-10-23 10:35:33.128 -0400,27,1571841330.260161,33.99892919204518,-81.02415047635226,84.92884,-1,-1,10,65,-9999,445378.98960525,0.556640625,0.339599609375,-0.3869476318359375,1,0.94,5
2019-10-23 10:35:33.165 -0400,28,1571841330.260161,33.99892919204518,-81.02415047635226,84.92884,-1,-1,10,65,-9999,445379.0295902501,0.466339111328125,0.3406219482421875,-0.2578887939453125,1,0.94,5
2019-10-23 10:35:33.205 -0400,29,1571841330.260161,33.99892919204518,-81.02415047635226,84.92884,-1,-1,10,65,-9999,445379.06957425,0.475433349609375,0.3513946533203125,-0.1812896728515625,1,0.94,5
2019-10-23 10:35:33.245 -0400,30,1571841330.260161,33.99892919204518,-81.02415047635226,84.92884,-1,-1,10,65,-9999,445379.10955925,0.6539306640625,0.48291015625,-0.2815704345703125,1,0.94,5
2019-10-23 10:35:33.478 -0400,31,1571841330.260161,33.99892919204518,-81.02415047635226,84.92884,-1,-1,10,65,-9999,445379.14954425,0.78631591796875,0.488372802734375,-0.2769317626953125,1,0.94,5
2019-10-23 10:35:33.481 -0400,32,1571841330.260161,33.99892919204518,-81.02415047635226,84.92884,-1,-1,10,65,-9999,445379.18952825,0.803497314453125,0.464111328125,-0.2616119384765625,1,0.94,5
2019-10-23 10:35:33.483 -0400,33,1571841330.260161,33.99892919204518,-81.02415047635226,84.92884,-1,-1,10,65,-9999,445379.22951325,0.9416046142578125,0.5460968017578125,-0.363128662109375,1,0.94,5
2019-10-23 10:35:33.485 -0400,34,1571841330.260161,33.99892919204518,-81.02415047635226,84.92884,-1,-1,10,65,-9999,445379.2694981667,1.049423217773438,0.6129913330078125,-0.3908233642578125,1,0.94,5
2019-10-23 10:35:33.488 -0400,35,1571841330.260161,33.99892919204518,-81.02415047635226,84.92884,-1,-1,10,65,-9999,445379.3094821667,1.391189575195312,0.656829833984375,-0.4153594970703125,1,0.94,5
2019-10-23 10:35:33.493 -0400,36,1571841330.260161,33.99892919204518,-81.02415047635226,84.92884,-1,-1,10,65,-9999,445379.3494671667,1.010971069335938,0.614654541015625,-0.4402618408203125,1,0.94,5
2019-10-23 10:35:33.526 -0400,37,1571841330.260161,33.99892919204518,-81.02415047635226,84.92884,-1,-1,10,65,-9999,445379.3894521667,1.665451049804688,0.654449462890625,-0.3347625732421875,1,0.94,5
2019-10-23 10:35:33.565 -0400,38,1571841330.260161,33.99892919204518,-81.02415047635226,84.92884,-1,-1,10,65,-9999,445379.4294361667,1.489883422851562,0.3745269775390625,-0.14947509765625,1,0.94,5
2019-10-23 10:35:33.605 -0400,39,1571841330.260161,33.99892919204518,-81.02415047635226,84.92884,-1,-1,10,65,-9999,445379.4694211667,1.004623413085938,0.27044677734375,-0.2671966552734375,1,0.94,5
2019-10-23 10:35:33.646 -0400,40,1571841330.260161,33.99892919204518,-81.02415047635226,84.92884,-1,-1,10,65,-9999,445379.5094061667,0.7268829345703125,0.2591094970703125,-0.25927734375,1,0.94,5
2019-10-23 10:35:33.685 -0400,41,1571841330.260161,33.99892919204518,-81.02415047635226,84.92884,-1,-1,10,65,-9999,445379.5493901667,0.6019287109375,0.3447265625,-0.15899658203125,1,0.94,5
2019-10-23 10:35:33.732 -0400,42,1571841330.260161,33.99892919204518,-81.02415047635226,84.92884,-1,-1,10,65,-9999,445379.5893751667,0.6429290771484375,0.341766357421875,-0.1157073974609375,1,0.94,5
2019-10-23 10:35:33.765 -0400,43,1571841330.260161,33.99892919204518,-81.02415047635226,84.92884,-1,-1,10,65,-9999,445379.6293601667,0.690673828125,0.3265380859375,-0.092529296875,1,0.94,5
2019-10-23 10:35:33.805 -0400,44,1571841330.260161,33.99892919204518,-81.02415047635226,84.92884,-1,-1,10,65,-9999,445379.6693441667,0.7066650390625,0.27239990234375,-0.1142425537109375,1,0.94,5
2019-10-23 10:35:33.846 -0400,45,1571841330.260161,33.99892919204518,-81.02415047635226,84.92884,-1,-1,10,65,-9999,445379.7093291667,0.8106231689453125,0.31170654296875,-0.1787261962890625,1,0.94,5
2019-10-23 10:35:33.885 -0400,46,1571841330.260161,33.99892919204518,-81.02415047635226,84.92884,-1,-1,10,65,-9999,445379.7493141667,0.9432373046875,0.3638153076171875,-0.1812591552734375,1,0.94,5
2019-10-23 10:35:33.925 -0400,47,1571841330.260161,33.99892919204518,-81.02415047635226,84.92884,-1,-1,10,65,-9999,445379.7892981667,0.87982177734375,0.3199920654296875,-0.229583740234375,1,0.94,5
2019-10-23 10:35:33.965 -0400,48,1571841330.260161,33.99892919204518,-81.02415047635226,84.92884,-1,-1,10,65,-9999,445379.8292831667,1.083999633789062,0.5680389404296875,-0.2957305908203125,1,0.94,5
2019-10-23 10:35:34.005 -0400,49,1571841330.260161,33.99892919204518,-81.02415047635226,84.92884,-1,-1,10,65,-9999,445379.8692681667,0.97564697265625,0.566680908203125,-0.2865447998046875,1,0.94,5
2019-10-23 10:35:34.067 -0400,50,1571841330.260161,33.99892919204518,-81.02415047635226,84.92884,-1,-1,10,65,-9999,445379.9092531667,1.313873291015625,0.704193115234375,-0.36016845703125,1,0.94,5
2019-10-23 10:35:34.085 -0400,51,1571841330.260161,33.99892919204518,-81.02415047635226,84.92884,-1,-1,10,65,-9999,445379.9492371667,1.335006713867188,0.6695404052734375,-0.3814544677734375,1,0.94,5
2019-10-23 10:35:34.128 -0400,52,1571841330.260161,33.99892919204518,-81.02415047635226,84.92884,-1,-1,10,65,-9999,445379.9892221667,0.73626708984375,0.5043182373046875,-0.1914520263671875,1,0.94,5
2019-10-23 10:35:34.165 -0400,53,1571841330.260161,33.99892919204518,-81.02415047635226,84.92884,-1,-1,10,65,-9999,445380.0292071667,0.38861083984375,0.4959716796875,-0.181640625,1,0.94,5
2019-10-23 10:35:34.205 -0400,54,1571841330.260161,33.99892919204518,-81.02415047635226,84.92884,-1,-1,10,65,-9999,445380.0691911667,0.4437713623046875,0.6798553466796875,-0.2657318115234375,1,0.94,5
2019-10-23 10:35:34.245 -0400,55,1571841330.260161,33.99892919204518,-81.02415047635226,84.92884,-1,-1,10,65,-9999,445380.1091761667,0.4973602294921875,0.53515625,-0.241668701171875,1,0.94,5
2019-10-23 10:35:34.285 -0400,56,1571841330.260161,33.99892919204518,-81.02415047635226,84.92884,-1,-1,10,65,-9999,445380.1491611667,0.4916839599609375,0.7186279296875,-0.2284698486328125,1,0.94,5
2019-10-23 10:35:34.325 -0400,57,1571841330.260161,33.99892919204518,-81.02415047635226,84.92884,-1,-1,10,65,-9999,445380.1891451667,0.6966094970703125,0.464569091796875,-0.1939849853515625,1,0.94,5
2019-10-23 10:35:34.365 -0400,58,1571841330.260161,33.99892919204518,-81.02415047635226,84.92884,-1,-1,10,65,-9999,445380.2291301667,1.013961791992188,0.4853973388671875,-0.1028594970703125,1,0.94,5
2019-10-23 10:35:34.405 -0400,59,1571841330.260161,33.99892919204518,-81.02415047635226,84.92884,-1,-1,10,65,-9999,445380.269116,1.251190185546875,0.7690277099609375,-0.2664642333984375,1,0.94,5
2019-10-23 10:35:34.449 -0400,60,1571841330.260161,33.99892919204518,-81.02415047635226,84.92884,-1,-1,10,65,-9999,445380.3091,1.2635498046875,0.6977081298828125,-0.3788604736328125,1,0.94,5
2019-10-23 10:35:34.485 -0400,61,1571841330.260161,33.99892919204518,-81.02415047635226,84.92884,-1,-1,10,65,-9999,445380.3490850001,1.357955932617188,0.9466705322265625,-0.732452392578125,1,0.94,5
2019-10-23 10:35:34.525 -0400,62,1571841330.260161,33.99892919204518,-81.02415047635226,84.92884,-1,-1,10,65,-9999,445380.38907,1.507125854492188,0.7905731201171875,-0.4566497802734375,1,0.94,5
2019-10-23 10:35:34.565 -0400,63,1571841330.260161,33.99892919204518,-81.02415047635226,84.92884,-1,-1,10,65,-9999,445380.429054,1.259124755859375,0.2613677978515625,-0.22515869140625,1,0.94,5
2019-10-23 10:35:34.637 -0400,64,1571841330.260161,33.99892919204518,-81.02415047635226,84.92884,-1,-1,10,65,-9999,445380.469039,1.583450317382812,0.297088623046875,-0.3694915771484375,1,0.94,5
2019-10-23 10:35:34.645 -0400,65,1571841330.260161,33.99892919204518,-81.02415047635226,84.92884,-1,-1,10,65,-9999,445380.509024,1.485275268554688,0.3325042724609375,-0.2975921630859375,1,0.94,5
2019-10-23 10:35:34.685 -0400,66,1571841330.260161,33.99892919204518,-81.02415047635226,84.92884,-1,-1,10,65,-9999,445380.549008,0.8441162109375,0.236175537109375,-0.1407470703125,1,0.94,5
2019-10-23 10:35:34.725 -0400,67,1571841330.260161,33.99892919204518,-81.02415047635226,84.92884,-1,-1,10,65,-9999,445380.588993,0.4790496826171875,0.2980499267578125,-0.268585205078125,1,0.94,5
2019-10-23 10:35:34.765 -0400,68,1571841330.260161,33.99892919204518,-81.02415047635226,84.92884,-1,-1,10,65,-9999,445380.628978,0.4159698486328125,0.27520751953125,-0.2134246826171875,1,0.94,5
2019-10-23 10:35:34.805 -0400,69,1571841330.260161,33.99892919204518,-81.02415047635226,84.92884,-1,-1,10,65,-9999,445380.668963,0.413970947265625,0.3843994140625,-0.1954803466796875,1,0.94,5
2019-10-23 10:35:34.845 -0400,70,1571841330.260161,33.99892919204518,-81.02415047635226,84.92884,-1,-1,10,65,-9999,445380.708947,0.4318084716796875,0.3563385009765625,-0.15545654296875,1,0.94,5
2019-10-23 10:35:34.885 -0400,71,1571841330.260161,33.99892919204518,-81.02415047635226,84.92884,-1,-1,10,65,-9999,445380.748932,0.45147705078125,0.319122314453125,-0.135772705078125,1,0.94,5
2019-10-23 10:35:34.925 -0400,72,1571841330.260161,33.99892919204518,-81.02415047635226,84.92884,-1,-1,10,65,-9999,445380.788917,0.5897979736328125,0.39166259765625,-0.1428070068359375,1,0.94,5
2019-10-23 10:35:34.965 -0400,73,1571841330.260161,33.99892919204518,-81.02415047635226,84.92884,-1,-1,10,65,-9999,445380.828901,0.764495849609375,0.446807861328125,-0.1354827880859375,1,0.94,5
2019-10-23 10:35:35.005 -0400,74,1571841330.260161,33.99892919204518,-81.02415047635226,84.92884,-1,-1,10,65,-9999,445380.868886,1.022872924804688,0.525054931640625,-0.100982666015625,1,0.94,5
2019-10-23 10:35:35.045 -0400,75,1571841330.260161,33.99892919204518,-81.02415047635226,84.92884,-1,-1,10,65,-9999,445380.9088710001,1.1099853515625,0.564056396484375,-0.3116302490234375,1,0.94,5
2019-10-23 10:35:35.085 -0400,76,1571841330.260161,33.99892919204518,-81.02415047635226,84.92884,-1,-1,10,65,-9999,445380.948855,1.465866088867188,0.5680084228515625,-0.4601593017578125,1,0.94,5
2019-10-23 10:35:35.125 -0400,77,1571841330.260161,33.99892919204518,-81.02415047635226,84.92884,-1,-1,10,65,-9999,445380.98884,1.359970092773438,0.4665069580078125,-0.251617431640625,1,0.94,5
2019-10-23 10:35:35.165 -0400,78,1571841330.260161,33.99892919204518,-81.02415047635226,84.92884,-1,-1,10,65,-9999,445381.028825,0.9435577392578125,0.403106689453125,-0.3584747314453125,1,0.94,5
2019-10-23 10:35:35.205 -0400,79,1571841330.260161,33.99892919204518,-81.02415047635226,84.92884,-1,-1,10,65,-9999,445381.068809,0.6603851318359375,0.3186187744140625,-0.3874969482421875,1,0.94,5
2019-10-23 10:35:35.244 -0400,80,1571841330.260161,33.99892919204518,-81.02415047635226,84.92884,-1,-1,10,65,-9999,445381.108794,0.5301055908203125,0.2999420166015625,-0.168670654296875,1,0.94,5
2019-10-23 10:35:35.284 -0400,81,1571841330.260161,33.99892919204518,-81.02415047635226,84.92884,-1,-1,10,65,-9999,445381.148779,0.621307373046875,0.333526611328125,-0.2136077880859375,1,0.94,5
2019-10-23 10:35:35.325 -0400,82,1571841330.260161,33.99892919204518,-81.02415047635226,84.92884,-1,-1,10,65,-9999,445381.188763,0.82147216796875,0.495452880859375,-0.30279541015625,1,0.94,5
2019-10-23 10:35:35.365 -0400,83,1571841330.260161,33.99892919204518,-81.02415047635226,84.92884,-1,-1,10,65,-9999,445381.2287480001,1.014450073242188,0.56866455078125,-0.3123626708984375,1,0.94,5
2019-10-23 10:35:35.405 -0400,84,1571841330.260161,33.99892919204518,-81.02415047635226,84.92884,-1,-1,10,65,-9999,445381.2687325,0.9717559814453125,0.591796875,-0.3827056884765625,1,0.94,5
2019-10-23 10:35:35.445 -0400,85,1571841330.260161,33.99892919204518,-81.02415047635226,84.92884,-1,-1,10,65,-9999,445381.3087165,1.04351806640625,0.620635986328125,-0.4696197509765625,1,0.94,5
2019-10-23 10:35:35.484 -0400,86,1571841330.260161,33.99892919204518,-81.02415047635226,84.92884,-1,-1,10,65,-9999,445381.3487015,1.340103149414062,0.676513671875,-0.4521484375,1,0.94,5
2019-10-23 10:35:35.524 -0400,87,1571841330.260161,33.99892919204518,-81.02415047635226,84.92884,-1,-1,10,65,-9999,445381.3886865,1.014892578125,0.63037109375,-0.5047760009765625,1,0.94,5
2019-10-23 10:35:35.564 -0400,88,1571841330.260161,33.99892919204518,-81.02415047635226,84.92884,-1,-1,10,65,-9999,445381.4286705001,1.36578369140625,0.540985107421875,-0.2427978515625,1,0.94,5
2019-10-23 10:35:35.604 -0400,89,1571841330.260161,33.99892919204518,-81.02415047635226,84.92884,-1,-1,10,65,-9999,445381.4686555,1.373260498046875,0.459014892578125,-0.1660308837890625,1,0.94,5
2019-10-23 10:35:35.653 -0400,90,1571841330.260161,33.99892919204518,-81.02415047635226,84.92884,-1,-1,10,65,-9999,445381.5086405,1.079437255859375,0.305145263671875,-0.1999359130859375,1,0.94,5
2019-10-23 10:35:35.684 -0400,91,1571841330.260161,33.99892919204518,-81.02415047635226,84.92884,-1,-1,10,65,-9999,445381.5486255,0.7588043212890625,0.382080078125,-0.2425537109375,1,0.94,5
2019-10-23 10:35:35.724 -0400,92,1571841330.260161,33.99892919204518,-81.02415047635226,84.92884,-1,-1,10,65,-9999,445381.5886095,0.632232666015625,0.4117431640625,-0.1690216064453125,1,0.94,5
2019-10-23 10:35:35.764 -0400,93,1571841330.260161,33.99892919204518,-81.02415047635226,84.92884,-1,-1,10,65,-9999,445381.6285945,0.667449951171875,0.445953369140625,-0.1136932373046875,1,0.94,5
2019-10-23 10:35:35.804 -0400,94,1571841330.260161,33.99892919204518,-81.02415047635226,84.92884,-1,-1,10,65,-9999,445381.6685795001,0.782745361328125,0.377685546875,-0.07025146484375,1,0.94,5
2019-10-23 10:35:35.844 -0400,95,1571841330.260161,33.99892919204518,-81.02415047635226,84.92884,-1,-1,10,65,-9999,445381.7085635,0.9066925048828125,0.296600341796875,-0.030731201171875,1,0.94,5
2019-10-23 10:35:35.884 -0400,96,1571841330.260161,33.99892919204518,-81.02415047635226,84.92884,-1,-1,10,65,-9999,445381.7485485,1.145782470703125,0.29193115234375,-0.0284423828125,1,0.94,5
2019-10-23 10:35:35.925 -0400,97,1571841330.260161,33.99892919204518,-81.02415047635226,84.92884,-1,-1,10,65,-9999,445381.7885335,1.165069580078125,0.3144683837890625,-0.0531463623046875,1,0.94,5
2019-10-23 10:35:35.964 -0400,98,1571841330.260161,33.99892919204518,-81.02415047635226,84.92884,-1,-1,10,65,-9999,445381.8285175,1.052383422851562,0.3845367431640625,-0.072601318359375,1,0.94,5
2019-10-23 10:35:36.004 -0400,99,1571841330.260161,33.99892919204518,-81.02415047635226,84.92884,-1,-1,10,65,-9999,445381.8685025,0.980316162109375,0.4333343505859375,-0.114013671875,1,0.94,5
2019-10-23 10:35:36.044 -0400,100,1571841330.260161,33.99892919204518,-81.02415047635226,84.92884,-1,-1,10,65,-9999,445381.9084875,0.758636474609375,0.4327392578125,-0.31536865234375,1,0.94,5
2019-10-23 10:35:36.084 -0400,101,1571841330.260161,33.99892919204518,-81.02415047635226,84.92884,-1,-1,10,65,-9999,445381.9484715,1.233108520507812,0.6080322265625,-0.4548187255859375,1,0.94,5
2019-10-23 10:35:36.124 -0400,102,1571841330.260161,33.99892919204518,-81.02415047635226,84.92884,-1,-1,10,65,-9999,445381.9884565001,1.119842529296875,0.4640960693359375,-0.4275970458984375,1,0.94,5
2019-10-23 10:35:36.164 -0400,103,1571841330.260161,33.99892919204518,-81.02415047635226,84.92884,-1,-1,10,65,-9999,445382.0284415,0.699737548828125,0.2683563232421875,-0.389984130859375,1,0.94,5
2019-10-23 10:35:36.204 -0400,104,1571841330.260161,33.99892919204518,-81.02415047635226,84.92884,-1,-1,10,65,-9999,445382.0684255,0.598541259765625,0.2140350341796875,-0.4073333740234375,1,0.94,5
2019-10-23 10:35:36.244 -0400,105,1571841330.260161,33.99892919204518,-81.02415047635226,84.92884,-1,-1,10,65,-9999,445382.1084105,0.7379608154296875,0.286834716796875,-0.3677825927734375,1,0.94,5
2019-10-23 10:35:36.284 -0400,106,1571841330.260161,33.99892919204518,-81.02415047635226,84.92884,-1,-1,10,65,-9999,445382.1483955,0.702972412109375,0.4100799560546875,-0.4423980712890625,1,0.94,5
2019-10-23 10:35:36.324 -0400,107,1571841330.260161,33.99892919204518,-81.02415047635226,84.92884,-1,-1,10,65,-9999,445382.1883805,0.68304443359375,0.45550537109375,-0.4755401611328125,1,0.94,5
2019-10-23 10:35:36.364 -0400,108,1571841330.260161,33.99892919204518,-81.02415047635226,84.92884,-1,-1,10,65,-9999,445382.2283645,0.781219482421875,0.396148681640625,-0.3778076171875,1,0.94,5
2019-10-23 10:35:36.404 -0400,109,1571841330.260161,33.99892919204518,-81.02415047635226,84.92884,-1,-1,10,65,-9999,445382.2683495,0.9937896728515625,0.475555419921875,-0.3737945556640625,1,0.94,5
2019-10-23 10:35:36.444 -0400,110,1571841330.260161,33.99892919204518,-81.02415047635226,84.92884,-1,-1,10,65,-9999,445382.3083345,1.0770263671875,0.5600128173828125,-0.3380279541015625,1,0.94,5
2019-10-23 10:35:36.484 -0400,111,1571841330.260161,33.99892919204518,-81.02415047635226,84.92884,-1,-1,10,65,-9999,445382.3483185,1.564926147460938,0.7501373291015625,-0.4351654052734375,1,0.94,5
2019-10-23 10:35:36.524 -0400,112,1571841330.260161,33.99892919204518,-81.02415047635226,84.92884,-1,-1,10,65,-9999,445382.3883035,1.094802856445312,0.7074127197265625,-0.2778167724609375,1,0.94,5
2019-10-23 10:35:36.564 -0400,113,1571841330.260161,33.99892919204518,-81.02415047635226,84.92884,-1,-1,10,65,-9999,445382.4282885,1.317092895507812,0.6147613525390625,-0.1575164794921875,1,0.94,5
2019-10-23 10:35:36.604 -0400,114,1571841330.260161,33.99892919204518,-81.02415047635226,84.92884,-1,-1,10,65,-9999,445382.4682725,1.152481079101562,0.5512237548828125,-0.1201324462890625,1,0.94,5
2019-10-23 10:35:36.644 -0400,115,1571841330.260161,33.99892919204518,-81.02415047635226,84.92884,-1,-1,10,65,-9999,445382.5082575,0.9022064208984375,0.4591217041015625,-0.1510772705078125,1,0.94,5
2019-10-23 10:35:36.687 -0400,116,1571841330.260161,33.99892919204518,-81.02415047635226,84.92884,-1,-1,10,65,-9999,445382.5482425001,0.7652740478515625,0.3711395263671875,-0.0685882568359375,1,0.94,5
2019-10-23 10:35:36.724 -0400,117,1571841330.260161,33.99892919204518,-81.02415047635226,84.92884,-1,-1,10,65,-9999,445382.5882265,0.708831787109375,0.3820343017578125,-0.0340576171875,1,0.94,5
2019-10-23 10:35:36.764 -0400,118,1571841330.260161,33.99892919204518,-81.02415047635226,84.92884,-1,-1,10,65,-9999,445382.6282115,0.7891845703125,0.4048004150390625,-0.0469970703125,1,0.94,5
2019-10-23 10:35:36.804 -0400,119,1571841330.260161,33.99892919204518,-81.02415047635226,84.92884,-1,-1,10,65,-9999,445382.6681965,1.022781372070312,0.337799072265625,-0.016998291015625,1,0.94,5
2019-10-23 10:35:36.844 -0400,120,1571841330.260161,33.99892919204518,-81.02415047635226,84.92884,-1,-1,10,65,-9999,445382.7081815,1.253677368164062,0.2766876220703125,0.031402587890625,1,0.94,5
2019-10-23 10:35:36.884 -0400,121,1571841330.260161,33.99892919204518,-81.02415047635226,84.92884,-1,-1,10,65,-9999,445382.7481655,1.380889892578125,0.272796630859375,0.019866943359375,1,0.94,5
2019-10-23 10:35:36.924 -0400,122,1571841330.260161,33.99892919204518,-81.02415047635226,84.92884,-1,-1,10,65,-9999,445382.7881505,1.103439331054688,0.3162994384765625,-0.0129241943359375,1,0.94,5
2019-10-23 10:35:36.965 -0400,123,1571841330.260161,33.99892919204518,-81.02415047635226,84.92884,-1,-1,10,65,-9999,445382.8281355,1.113128662109375,0.3747406005859375,-0.00994873046875,1,0.94,5
2019-10-23 10:35:37.004 -0400,124,1571841330.260161,33.99892919204518,-81.02415047635226,84.92884,-1,-1,10,65,-9999,445382.8681195001,0.743743896484375,0.3499603271484375,-0.15582275390625,1,0.94,5
2019-10-23 10:35:37.044 -0400,125,1571841330.260161,33.99892919204518,-81.02415047635226,84.92884,-1,-1,10,65,-9999,445382.9081045,1.021621704101562,0.504913330078125,-0.3458709716796875,1,0.94,5
2019-10-23 10:35:37.084 -0400,126,1571841330.260161,33.99892919204518,-81.02415047635226,84.92884,-1,-1,10,65,-9999,445382.9480895,1.068267822265625,0.4061126708984375,-0.3939208984375,1,0.94,5
2019-10-23 10:35:37.124 -0400,127,1571841330.260161,33.99892919204518,-81.02415047635226,84.92884,-1,-1,10,65,-9999,445382.9880735,0.739471435546875,0.3792572021484375,-0.3458251953125,1,0.94,5
2019-10-23 10:35:37.164 -0400,128,1571841330.260161,33.99892919204518,-81.02415047635226,84.92884,-1,-1,10,65,-9999,445383.0280585,0.5824127197265625,0.2426605224609375,-0.3515625,1,0.94,5
2019-10-23 10:35:37.204 -0400,129,1571841330.260161,33.99892919204518,-81.02415047635226,84.92884,-1,-1,10,65,-9999,445383.0680435,0.5774383544921875,0.2872314453125,-0.3265533447265625,1,0.94,5
2019-10-23 10:35:37.244 -0400,130,1571841330.260161,33.99892919204518,-81.02415047635226,84.92884,-1,-1,10,65,-9999,445383.1080275,0.6738433837890625,0.3467559814453125,-0.323211669921875,1,0.94,5
2019-10-23 10:35:37.284 -0400,131,1571841330.260161,33.99892919204518,-81.02415047635226,84.92884,-1,-1,10,65,-9999,445383.1480125,0.8496551513671875,0.423828125,-0.39971923828125,1,0.94,5
2019-10-23 10:35:37.324 -0400,132,1571841330.260161,33.99892919204518,-81.02415047635226,84.92884,-1,-1,10,65,-9999,445383.1879975,0.99267578125,0.47113037109375,-0.417388916015625,1,0.94,5
2019-10-23 10:35:37.364 -0400,133,1571841330.260161,33.99892919204518,-81.02415047635226,84.92884,-1,-1,10,65,-9999,445383.2279815,1.19915771484375,0.506072998046875,-0.38104248046875,1,0.94,5
2019-10-23 10:35:37.404 -0400,134,1571841330.260161,33.99892919204518,-81.02415047635226,84.92884,-1,-1,10,65,-9999,445383.267967,1.210220336914062,0.6157073974609375,-0.4725494384765625,1,0.94,5
2019-10-23 10:35:37.444 -0400,135,1571841330.260161,33.99892919204518,-81.02415047635226,84.92884,-1,-1,10,65,-9999,445383.307952,1.467803955078125,0.7791900634765625,-0.50360107421875,1,0.94,5
2019-10-23 10:35:37.484 -0400,136,1571841330.260161,33.99892919204518,-81.02415047635226,84.92884,-1,-1,10,65,-9999,445383.347936,0.9917755126953125,0.65576171875,-0.397186279296875,1,0.94,5
2019-10-23 10:35:37.524 -0400,137,1571841330.260161,33.99892919204518,-81.02415047635226,84.92884,-1,-1,10,65,-9999,445383.387921,1.43096923828125,0.671112060546875,-0.220489501953125,1,0.94,5
2019-10-23 10:35:37.564 -0400,138,1571841330.260161,33.99892919204518,-81.02415047635226,84.92884,-1,-1,10,65,-9999,445383.4279060001,1.365936279296875,0.4954833984375,-0.13922119140625,1,0.94,5
2019-10-23 10:35:37.604 -0400,139,1571841330.260161,33.99892919204518,-81.02415047635226,84.92884,-1,-1,10,65,-9999,445383.467891,1.022048950195312,0.2584075927734375,-0.137298583984375,1,0.94,5
2019-10-23 10:35:37.644 -0400,140,1571841330.260161,33.99892919204518,-81.02415047635226,84.92884,-1,-1,10,65,-9999,445383.507875,0.77935791015625,0.2411041259765625,-0.1442413330078125,1,0.94,5
2019-10-23 10:35:37.684 -0400,141,1571841330.260161,33.99892919204518,-81.02415047635226,84.92884,-1,-1,10,65,-9999,445383.54786,0.75103759765625,0.3274993896484375,-0.0774078369140625,1,0.94,5
2019-10-23 10:35:37.730 -0400,142,1571841330.260161,33.99892919204518,-81.02415047635226,84.92884,-1,-1,10,65,-9999,445383.587845,0.753204345703125,0.378265380859375,-0.0521392822265625,1,0.94,5
2019-10-23 10:35:37.764 -0400,143,1571841330.260161,33.99892919204518,-81.02415047635226,84.92884,-1,-1,10,65,-9999,445383.627829,0.948974609375,0.3770599365234375,-0.037322998046875,1,0.94,5
2019-10-23 10:35:37.804 -0400,144,1571841330.260161,33.99892919204518,-81.02415047635226,84.92884,-1,-1,10,65,-9999,445383.667814,1.057388305664062,0.3030242919921875,-0.0020599365234375,1,0.94,5
2019-10-23 10:35:37.844 -0400,145,1571841330.260161,33.99892919204518,-81.02415047635226,84.92884,-1,-1,10,65,-9999,445383.707799,1.15716552734375,0.3032073974609375,-0.01275634765625,1,0.94,5
2019-10-23 10:35:37.884 -0400,146,1571841330.260161,33.99892919204518,-81.02415047635226,84.92884,-1,-1,10,65,-9999,445383.747783,1.0303955078125,0.29937744140625,-0.0379486083984375,1,0.94,5
2019-10-23 10:35:37.924 -0400,147,1571841330.260161,33.99892919204518,-81.02415047635226,84.92884,-1,-1,10,65,-9999,445383.787768,1.084945678710938,0.35504150390625,-0.0543365478515625,1,0.94,5
2019-10-23 10:35:37.963 -0400,148,1571841330.260161,33.99892919204518,-81.02415047635226,84.92884,-1,-1,10,65,-9999,445383.827753,0.827911376953125,0.3278961181640625,-0.1668548583984375,1,0.94,5
2019-10-23 10:35:38.004 -0400,149,1571841330.260161,33.99892919204518,-81.02415047635226,84.92884,-1,-1,10,65,-9999,445383.8677370001,1.173843383789062,0.431182861328125,-0.3426513671875,1,0.94,5
2019-10-23 10:35:38.043 -0400,150,1571841330.260161,33.99892919204518,-81.02415047635226,84.92884,-1,-1,10,65,-9999,445383.907722,1.342193603515625,0.4504852294921875,-0.28790283203125,1,0.94,5
2019-10-23 10:35:38.084 -0400,151,1571841330.260161,33.99892919204518,-81.02415047635226,84.92884,-1,-1,10,65,-9999,445383.947707,0.923614501953125,0.4335174560546875,-0.34637451171875,1,0.94,5
2019-10-23 10:35:38.124 -0400,152,1571841330.260161,33.99892919204518,-81.02415047635226,84.92884,-1,-1,10,65,-9999,445383.987691,0.677825927734375,0.2863006591796875,-0.4020233154296875,1,0.94,5
2019-10-23 10:35:38.163 -0400,153,1571841330.260161,33.99892919204518,-81.02415047635226,84.92884,-1,-1,10,65,-9999,445384.027676,0.5774078369140625,0.3011627197265625,-0.293182373046875,1,0.94,5
2019-10-23 10:35:38.203 -0400,154,1571841330.260161,33.99892919204518,-81.02415047635226,84.92884,-1,-1,10,65,-9999,445384.067661,0.6668853759765625,0.3255157470703125,-0.248077392578125,1,0.94,5
2019-10-23 10:35:38.243 -0400,155,1571841330.260161,33.99892919204518,-81.02415047635226,84.92884,-1,-1,10,65,-9999,445384.107645,0.9546661376953125,0.5000762939453125,-0.3851165771484375,1,0.94,5
2019-10-23 10:35:38.284 -0400,156,1571841330.260161,33.99892919204518,-81.02415047635226,84.92884,-1,-1,10,65,-9999,445384.14763,1.073898315429688,0.55755615234375,-0.395904541015625,1,0.94,5
2019-10-23 10:35:38.323 -0400,157,1571841330.260161,33.99892919204518,-81.02415047635226,84.92884,-1,-1,10,65,-9999,445384.187615,1.042327880859375,0.53802490234375,-0.41986083984375,1,0.94,5
2019-10-23 10:35:38.363 -0400,158,1571841330.260161,33.99892919204518,-81.02415047635226,84.92884,-1,-1,10,65,-9999,445384.227599,1.12481689453125,0.586639404296875,-0.4684600830078125,1,0.94,5
2019-10-23 10:35:38.403 -0400,159,1571841330.260161,33.99892919204518,-81.02415047635226,84.92884,-1,-1,10,65,-9999,445384.267583625,1.397811889648438,0.6846160888671875,-0.393402099609375,1,0.94,5
2019-10-23 10:35:38.443 -0400,160,1571841330.260161,33.99892919204518,-81.02415047635226,84.92884,-1,-1,10,65,-9999,445384.307568625,1.020584106445312,0.6751861572265625,-0.421356201171875,1,0.94,5
2019-10-23 10:35:38.486 -0400,161,1571841330.260161,33.99892919204518,-81.02415047635226,84.92884,-1,-1,10,65,-9999,445384.3475526251,1.201522827148438,0.5994415283203125,-0.3237457275390625,1,0.94,5
2019-10-23 10:35:38.523 -0400,162,1571841330.260161,33.99892919204518,-81.02415047635226,84.92884,-1,-1,10,65,-9999,445384.387537625,1.36578369140625,0.496490478515625,-0.2398223876953125,1,0.94,5
2019-10-23 10:35:38.566 -0400,163,1571841330.260161,33.99892919204518,-81.02415047635226,84.92884,-1,-1,10,65,-9999,445384.427522625,1.097946166992188,0.2639923095703125,-0.137847900390625,1,0.94,5
2019-10-23 10:35:38.603 -0400,164,1571841330.260161,33.99892919204518,-81.02415047635226,84.92884,-1,-1,10,65,-9999,445384.467506625,0.8048858642578125,0.267974853515625,-0.1754150390625,1,0.94,5
2019-10-23 10:35:38.643 -0400,165,1571841330.260161,33.99892919204518,-81.02415047635226,84.92884,-1,-1,10,65,-9999,445384.507491625,0.7430877685546875,0.3227691650390625,-0.1484527587890625,1,0.94,5
2019-10-23 10:35:38.683 -0400,166,1571841330.260161,33.99892919204518,-81.02415047635226,84.92884,-1,-1,10,65,-9999,445384.547476625,0.7582855224609375,0.3535614013671875,-0.0956573486328125,1,0.94,5
2019-10-23 10:35:38.723 -0400,167,1571841330.260161,33.99892919204518,-81.02415047635226,84.92884,-1,-1,10,65,-9999,445384.587460625,0.8534088134765625,0.329193115234375,-0.077911376953125,1,0.94,5
2019-10-23 10:35:38.763 -0400,168,1571841330.260161,33.99892919204518,-81.02415047635226,84.92884,-1,-1,10,65,-9999,445384.627445625,1.011749267578125,0.3092498779296875,-0.068389892578125,1,0.94,5
2019-10-23 10:35:38.803 -0400,169,1571841330.260161,33.99892919204518,-81.02415047635226,84.92884,-1,-1,10,65,-9999,445384.667430625,1.077224731445312,0.278564453125,-0.0788726806640625,1,0.94,5
2019-10-23 10:35:38.843 -0400,170,1571841330.260161,33.99892919204518,-81.02415047635226,84.92884,-1,-1,10,65,-9999,445384.707414625,1.130844116210938,0.3104095458984375,-0.0918121337890625,1,0.94,5
2019-10-23 10:35:38.883 -0400,171,1571841330.260161,33.99892919204518,-81.02415047635226,84.92884,-1,-1,10,65,-9999,445384.747399625,1.082534790039062,0.3302154541015625,-0.1080322265625,1,0.94,5
2019-10-23 10:35:38.923 -0400,172,1571841330.260161,33.99892919204518,-81.02415047635226,84.92884,-1,-1,10,65,-9999,445384.787384625,0.8881072998046875,0.4046783447265625,-0.1911468505859375,1,0.94,5
2019-10-23 10:35:38.963 -0400,173,1571841330.260161,33.99892919204518,-81.02415047635226,84.92884,-1,-1,10,65,-9999,445384.827368625,0.9649200439453125,0.381805419921875,-0.330169677734375,1,0.94,5
2019-10-23 10:35:39.003 -0400,174,1571841330.260161,33.99892919204518,-81.02415047635226,84.92884,-1,-1,10,65,-9999,445384.867353625,1.338409423828125,0.4387664794921875,-0.3119049072265625,1,0.94,5
2019-10-23 10:35:39.043 -0400,175,1571841330.260161,33.99892919204518,-81.02415047635226,84.92884,-1,-1,10,65,-9999,445384.9073386251,1.074661254882812,0.421630859375,-0.317962646484375,1,0.94,5
2019-10-23 10:35:39.083 -0400,176,1571841330.260161,33.99892919204518,-81.02415047635226,84.92884,-1,-1,10,65,-9999,445384.947322625,0.696990966796875,0.3209228515625,-0.351531982421875,1,0.94,5
2019-10-23 10:35:39.125 -0400,177,1571841330.260161,33.99892919204518,-81.02415047635226,84.92884,-1,-1,10,65,-9999,445384.987307625,0.5701446533203125,0.3148040771484375,-0.2904815673828125,1,0.94,5
2019-10-23 10:35:39.217 -0400,178,1571841330.260161,33.99892919204518,-81.02415047635226,84.92884,-1,-1,10,65,-9999,445385.027292625,0.646728515625,0.3520660400390625,-0.2546234130859375,1,0.94,5
2019-10-23 10:35:39.220 -0400,179,1571841330.260161,33.99892919204518,-81.02415047635226,84.92884,-1,-1,10,65,-9999,445385.067276625,0.8245391845703125,0.4361114501953125,-0.323699951171875,1,0.94,5
2019-10-23 10:35:39.243 -0400,180,1571841330.260161,33.99892919204518,-81.02415047635226,84.92884,-1,-1,10,65,-9999,445385.107261625,1.05780029296875,0.502593994140625,-0.40142822265625,1,0.94,5
2019-10-23 10:35:39.283 -0400,181,1571841330.260161,33.99892919204518,-81.02415047635226,84.92884,-1,-1,10,65,-9999,445385.147246625,1.00433349609375,0.4881439208984375,-0.3819427490234375,1,0.94,5
2019-10-23 10:35:39.323 -0400,182,1571841330.260161,33.99892919204518,-81.02415047635226,84.92884,-1,-1,10,65,-9999,445385.187230625,1.052047729492188,0.57257080078125,-0.4522552490234375,1,0.94,5
2019-10-23 10:35:39.363 -0400,183,1571841330.260161,33.99892919204518,-81.02415047635226,84.92884,-1,-1,10,65,-9999,445385.2272156251,1.31378173828125,0.6859893798828125,-0.424285888671875,1,0.94,5
2019-10-23 10:35:39.403 -0400,184,1571841330.260161,33.99892919204518,-81.02415047635226,84.92884,-1,-1,10,65,-9999,445385.2672000417,1.194595336914062,0.7373809814453125,-0.4950103759765625,1,0.94,5
2019-10-23 10:35:39.443 -0400,185,1571841330.260161,33.99892919204518,-81.02415047635226,84.92884,-1,-1,10,65,-9999,445385.3071840417,1.15155029296875,0.622711181640625,-0.3511505126953125,1,0.94,5
2019-10-23 10:35:39.486 -0400,186,1571841330.260161,33.99892919204518,-81.02415047635226,84.92884,-1,-1,10,65,-9999,445385.3471690417,1.395187377929688,0.4912109375,-0.2801055908203125,1,0.94,5
2019-10-23 10:35:39.523 -0400,187,1571841330.260161,33.99892919204518,-81.02415047635226,84.92884,-1,-1,10,65,-9999,445385.3871540417,1.112442016601562,0.3056793212890625,-0.21710205078125,1,0.94,5
2019-10-23 10:35:39.572 -0400,188,1571841330.260161,33.99892919204518,-81.02415047635226,84.92884,-1,-1,10,65,-9999,445385.4271380417,0.75714111328125,0.3117523193359375,-0.245391845703125,1,0.94,5
2019-10-23 10:35:39.603 -0400,189,1571841339.484284,33.99924127708721,-81.02440151574943,79.988,-1,-1,17.12361717224121,65,-9999,445385.4671230417,0.6288299560546875,0.3441162109375,-0.1945343017578125,1,0.94,5
2019-10-23 10:35:39.648 -0400,190,1571841339.484284,33.99924127708721,-81.02440151574943,79.988,-1,-1,17.12361717224121,65,-9999,445385.5071080417,0.6607208251953125,0.3667755126953125,-0.1124267578125,1,0.94,5
2019-10-23 10:35:39.683 -0400,191,1571841339.484284,33.99924127708721,-81.02440151574943,79.988,-1,-1,17.12361717224121,65,-9999,445385.5470920417,0.8538970947265625,0.3616943359375,-0.09075927734375,1,0.94,5
2019-10-23 10:35:39.723 -0400,192,1571841339.484284,33.99924127708721,-81.02440151574943,79.988,-1,-1,17.12361717224121,65,-9999,445385.5870770417,1.106033325195312,0.3005828857421875,-0.0672149658203125,1,0.94,5
2019-10-23 10:35:39.763 -0400,193,1571841339.484284,33.99924127708721,-81.02440151574943,79.988,-1,-1,17.12361717224121,65,-9999,445385.6270620417,1.267242431640625,0.2761383056640625,-0.069580078125,1,0.94,5
2019-10-23 10:35:39.803 -0400,194,1571841339.484284,33.99924127708721,-81.02440151574943,79.988,-1,-1,17.12361717224121,65,-9999,445385.6670460417,1.360748291015625,0.26812744140625,-0.0460357666015625,1,0.94,5
2019-10-23 10:35:39.843 -0400,195,1571841339.484284,33.99924127708721,-81.02440151574943,79.988,-1,-1,17.12361717224121,65,-9999,445385.7070310417,1.111328125,0.2333526611328125,-0.10101318359375,1,0.94,5
2019-10-23 10:35:39.883 -0400,196,1571841339.484284,33.99924127708721,-81.02440151574943,79.988,-1,-1,17.12361717224121,65,-9999,445385.7470160417,0.9400177001953125,0.253143310546875,-0.099884033203125,1,0.94,5
2019-10-23 10:35:39.923 -0400,197,1571841339.484284,33.99924127708721,-81.02440151574943,79.988,-1,-1,17.12361717224121,65,-9999,445385.7870000417,0.785369873046875,0.2787322998046875,-0.2682647705078125,1,0.94,5
2019-10-23 10:35:39.963 -0400,198,1571841339.484284,33.99924127708721,-81.02440151574943,79.988,-1,-1,17.12361717224121,65,-9999,445385.8269850417,1.14862060546875,0.4710693359375,-0.2981109619140625,1,0.94,5
2019-10-23 10:35:40.003 -0400,199,1571841339.484284,33.99924127708721,-81.02440151574943,79.988,-1,-1,17.12361717224121,65,-9999,445385.8669700417,1.129379272460938,0.4400177001953125,-0.35858154296875,1,0.94,5
2019-10-23 10:35:40.043 -0400,200,1571841339.484284,33.99924127708721,-81.02440151574943,79.988,-1,-1,17.12361717224121,65,-9999,445385.9069540417,0.7901763916015625,0.4022979736328125,-0.49481201171875,1,0.94,5
2019-10-23 10:35:40.083 -0400,201,1571841339.484284,33.99924127708721,-81.02440151574943,79.988,-1,-1,17.12361717224121,65,-9999,445385.9469390417,0.56646728515625,0.2562255859375,-0.366455078125,1,0.94,5
2019-10-23 10:35:40.123 -0400,202,1571841339.484284,33.99924127708721,-81.02440151574943,79.988,-1,-1,17.12361717224121,65,-9999,445385.9869240417,0.5672760009765625,0.25775146484375,-0.2923431396484375,1,0.94,5
2019-10-23 10:35:40.173 -0400,203,1571841339.484284,33.99924127708721,-81.02440151574943,79.988,-1,-1,17.12361717224121,65,-9999,445386.0269080417,0.843292236328125,0.388397216796875,-0.3750457763671875,1,0.94,5
2019-10-23 10:35:40.203 -0400,204,1571841339.484284,33.99924127708721,-81.02440151574943,79.988,-1,-1,17.12361717224121,65,-9999,445386.0668930417,0.9863128662109375,0.4640655517578125,-0.4000701904296875,1,0.94,5
2019-10-23 10:35:40.243 -0400,205,1571841339.484284,33.99924127708721,-81.02440151574943,79.988,-1,-1,17.12361717224121,65,-9999,445386.1068780417,0.9232940673828125,0.484649658203125,-0.4098968505859375,1,0.94,5
2019-10-23 10:35:40.283 -0400,206,1571841339.484284,33.99924127708721,-81.02440151574943,79.988,-1,-1,17.12361717224121,65,-9999,445386.1468620417,0.9669952392578125,0.5923614501953125,-0.4471588134765625,1,0.94,5
2019-10-23 10:35:40.323 -0400,207,1571841339.484284,33.99924127708721,-81.02440151574943,79.988,-1,-1,17.12361717224121,65,-9999,445386.1868470417,1.134628295898438,0.79443359375,-0.4522705078125,1,0.94,5
2019-10-23 10:35:40.363 -0400,208,1571841339.484284,33.99924127708721,-81.02440151574943,79.988,-1,-1,17.12361717224121,65,-9999,445386.2268320417,1.212326049804688,0.8898468017578125,-0.4970550537109375,1,0.94,5
2019-10-23 10:35:40.403 -0400,209,1571841339.484284,33.99924127708721,-81.02440151574943,79.988,-1,-1,17.12361717224121,65,-9999,445386.2668169167,1.303314208984375,0.6685791015625,-0.29443359375,1,0.94,5
2019-10-23 10:35:40.443 -0400,210,1571841339.484284,33.99924127708721,-81.02440151574943,79.988,-1,-1,17.12361717224121,65,-9999,445386.3068019167,1.688522338867188,0.4789276123046875,-0.17535400390625,1,0.94,5
2019-10-23 10:35:40.483 -0400,211,1571841339.484284,33.99924127708721,-81.02440151574943,79.988,-1,-1,17.12361717224121,65,-9999,445386.3467869167,1.2779541015625,0.2410430908203125,-0.1311798095703125,1,0.94,5
2019-10-23 10:35:40.523 -0400,212,1571841339.484284,33.99924127708721,-81.02440151574943,79.988,-1,-1,17.12361717224121,65,-9999,445386.3867709167,0.885528564453125,0.273101806640625,-0.2075653076171875,1,0.94,5
2019-10-23 10:35:40.563 -0400,213,1571841339.484284,33.99924127708721,-81.02440151574943,79.988,-1,-1,17.12361717224121,65,-9999,445386.4267559167,0.713958740234375,0.354583740234375,-0.1587371826171875,1,0.94,5
2019-10-23 10:35:40.603 -0400,214,1571841339.484284,33.99924127708721,-81.02440151574943,79.988,-1,-1,17.12361717224121,65,-9999,445386.4667409167,0.7360992431640625,0.4092254638671875,-0.0983123779296875,1,0.94,5
2019-10-23 10:35:40.645 -0400,215,1571841339.484284,33.99924127708721,-81.02440151574943,79.988,-1,-1,17.12361717224121,65,-9999,445386.5067249167,0.8948822021484375,0.376953125,-0.0535125732421875,1,0.94,5
2019-10-23 10:35:40.683 -0400,216,1571841339.484284,33.99924127708721,-81.02440151574943,79.988,-1,-1,17.12361717224121,65,-9999,445386.5467099167,1.107147216796875,0.3175048828125,-0.05560302734375,1,0.94,5
2019-10-23 10:35:40.723 -0400,217,1571841339.484284,33.99924127708721,-81.02440151574943,79.988,-1,-1,17.12361717224121,65,-9999,445386.5866949167,1.29388427734375,0.275909423828125,-0.038604736328125,1,0.94,5
2019-10-23 10:35:40.763 -0400,218,1571841339.484284,33.99924127708721,-81.02440151574943,79.988,-1,-1,17.12361717224121,65,-9999,445386.6266789167,1.246414184570312,0.2317962646484375,-0.047698974609375,1,0.94,5
2019-10-23 10:35:40.803 -0400,219,1571841339.484284,33.99924127708721,-81.02440151574943,79.988,-1,-1,17.12361717224121,65,-9999,445386.6666639167,0.9671630859375,0.1510467529296875,-0.0956573486328125,1,0.94,5
2019-10-23 10:35:40.842 -0400,220,1571841339.484284,33.99924127708721,-81.02440151574943,79.988,-1,-1,17.12361717224121,65,-9999,445386.7066489167,1.00347900390625,0.2730712890625,-0.1169891357421875,1,0.94,5
2019-10-23 10:35:40.882 -0400,221,1571841339.484284,33.99924127708721,-81.02440151574943,79.988,-1,-1,17.12361717224121,65,-9999,445386.7466329167,0.8357086181640625,0.3110198974609375,-0.2576904296875,1,0.94,5
2019-10-23 10:35:40.923 -0400,222,1571841339.484284,33.99924127708721,-81.02440151574943,79.988,-1,-1,17.12361717224121,65,-9999,445386.7866179167,1.160614013671875,0.407318115234375,-0.3009033203125,1,0.94,5
2019-10-23 10:35:40.962 -0400,223,1571841339.484284,33.99924127708721,-81.02440151574943,79.988,-1,-1,17.12361717224121,65,-9999,445386.8266019167,1.358001708984375,0.41986083984375,-0.2823028564453125,1,0.94,5
2019-10-23 10:35:41.002 -0400,224,1571841339.484284,33.99924127708721,-81.02440151574943,79.988,-1,-1,17.12361717224121,65,-9999,445386.8665869167,1.025772094726562,0.4457550048828125,-0.3452606201171875,1,0.94,5
2019-10-23 10:35:41.042 -0400,225,1571841339.484284,33.99924127708721,-81.02440151574943,79.988,-1,-1,17.12361717224121,65,-9999,445386.9065719167,0.7408294677734375,0.3659515380859375,-0.3243255615234375,1,0.94,5
2019-10-23 10:35:41.082 -0400,226,1571841339.484284,33.99924127708721,-81.02440151574943,79.988,-1,-1,17.12361717224121,65,-9999,445386.9465559167,0.735809326171875,0.4217376708984375,-0.278228759765625,1,0.94,5
2019-10-23 10:35:41.122 -0400,227,1571841339.484284,33.99924127708721,-81.02440151574943,79.988,-1,-1,17.12361717224121,65,-9999,445386.9865409167,0.831329345703125,0.4884796142578125,-0.2672271728515625,1,0.94,5
2019-10-23 10:35:41.163 -0400,228,1571841339.484284,33.99924127708721,-81.02440151574943,79.988,-1,-1,17.12361717224121,65,-9999,445387.0265259167,0.946990966796875,0.55987548828125,-0.31512451171875,1,0.94,5
2019-10-23 10:35:41.206 -0400,229,1571841339.484284,33.99924127708721,-81.02440151574943,79.988,-1,-1,17.12361717224121,65,-9999,445387.0665099167,0.9560394287109375,0.5619354248046875,-0.2914886474609375,1,0.94,5
2019-10-23 10:35:41.252 -0400,230,1571841341.213786,33.99924023217147,-81.02440102921962,80.22744,-1,-1,12.23291778564453,65,-9999,445387.1064949167,0.9864044189453125,0.6848907470703125,-0.375579833984375,1,0.94,5
2019-10-23 10:35:41.282 -0400,231,1571841341.213786,33.99924023217147,-81.02440102921962,80.22744,-1,-1,12.23291778564453,65,-9999,445387.1464799167,1.0582275390625,0.8142547607421875,-0.4076995849609375,1,0.94,5
2019-10-23 10:35:41.322 -0400,232,1571841341.213786,33.99924023217147,-81.02440102921962,80.22744,-1,-1,12.23291778564453,65,-9999,445387.1864639167,1.384506225585938,0.9778289794921875,-0.543212890625,1,0.94,5
2019-10-23 10:35:41.362 -0400,233,1571841341.213786,33.99924023217147,-81.02440102921962,80.22744,-1,-1,12.23291778564453,65,-9999,445387.2264489167,0.8941192626953125,0.5791473388671875,-0.38055419921875,1,0.94,5
2019-10-23 10:35:41.402 -0400,234,1571841341.213786,33.99924023217147,-81.02440102921962,80.22744,-1,-1,12.23291778564453,65,-9999,445387.2664335417,1.777481079101562,0.7440338134765625,-0.4354095458984375,1,0.94,5
2019-10-23 10:35:41.442 -0400,235,1571841341.213786,33.99924023217147,-81.02440102921962,80.22744,-1,-1,12.23291778564453,65,-9999,445387.3064175417,1.585418701171875,0.2998504638671875,-0.15399169921875,1,0.94,5
2019-10-23 10:35:41.482 -0400,236,1571841341.213786,33.99924023217147,-81.02440102921962,80.22744,-1,-1,12.23291778564453,65,-9999,445387.3464025417,1.02972412109375,0.2409210205078125,-0.2501983642578125,1,0.94,5
2019-10-23 10:35:41.522 -0400,237,1571841341.213786,33.99924023217147,-81.02440102921962,80.22744,-1,-1,12.23291778564453,65,-9999,445387.3863875417,0.8838043212890625,0.2548675537109375,-0.2436981201171875,1,0.94,5
2019-10-23 10:35:41.562 -0400,238,1571841341.213786,33.99924023217147,-81.02440102921962,80.22744,-1,-1,12.23291778564453,65,-9999,445387.4263715417,0.822357177734375,0.3438262939453125,-0.1268310546875,1,0.94,5
2019-10-23 10:35:41.602 -0400,239,1571841341.213786,33.99924023217147,-81.02440102921962,80.22744,-1,-1,12.23291778564453,65,-9999,445387.4663565417,0.9119720458984375,0.347808837890625,-0.076934814453125,1,0.94,5
2019-10-23 10:35:41.642 -0400,240,1571841341.213786,33.99924023217147,-81.02440102921962,80.22744,-1,-1,12.23291778564453,65,-9999,445387.5063415417,1.045181274414062,0.2979278564453125,-0.0258331298828125,1,0.94,5
2019-10-23 10:35:41.682 -0400,241,1571841341.213786,33.99924023217147,-81.02440102921962,80.22744,-1,-1,12.23291778564453,65,-9999,445387.5463255417,1.035659790039062,0.249359130859375,-0.008453369140625,1,0.94,5
2019-10-23 10:35:41.722 -0400,242,1571841341.213786,33.99924023217147,-81.02440102921962,80.22744,-1,-1,12.23291778564453,65,-9999,445387.5863105417,0.9828033447265625,0.234375,-0.0032196044921875,1,0.94,5
2019-10-23 10:35:41.767 -0400,243,1571841341.213786,33.99924023217147,-81.02440102921962,80.22744,-1,-1,12.23291778564453,65,-9999,445387.6262955417,0.8464508056640625,0.2620086669921875,-0.007659912109375,1,0.94,5
2019-10-23 10:35:41.802 -0400,244,1571841341.505861,33.99898735950098,-81.0241700128074,82.54092,1.419338,327.4733203279895,35.95642183152665,35.51408338087177,-9999,445387.6662795417,0.9112396240234375,0.3520050048828125,-0.069183349609375,1,0.94,5
2019-10-23 10:35:41.842 -0400,245,1571841341.505861,33.99898735950098,-81.0241700128074,82.54092,1.419338,327.4733203279895,35.95642183152665,35.51408338087177,-9999,445387.7062645417,0.77978515625,0.3157196044921875,-0.1344146728515625,1,0.94,5
2019-10-23 10:35:41.882 -0400,246,1571841341.505861,33.99898735950098,-81.0241700128074,82.54092,1.419338,327.4733203279895,35.95642183152665,35.51408338087177,-9999,445387.7462495417,1.154678344726562,0.4365997314453125,-0.2185821533203125,1,0.94,5
2019-10-23 10:35:41.922 -0400,247,1571841341.505861,33.99898735950098,-81.0241700128074,82.54092,1.419338,327.4733203279895,35.95642183152665,35.51408338087177,-9999,445387.7862335417,1.480255126953125,0.4638824462890625,-0.2774505615234375,1,0.94,5
2019-10-23 10:35:41.962 -0400,248,1571841341.505861,33.99898735950098,-81.0241700128074,82.54092,1.419338,327.4733203279895,35.95642183152665,35.51408338087177,-9999,445387.8262185417,1.11785888671875,0.5547637939453125,-0.48291015625,1,0.94,5
2019-10-23 10:35:42.002 -0400,249,1571841341.505861,33.99898735950098,-81.0241700128074,82.54092,1.419338,327.4733203279895,35.95642183152665,35.51408338087177,-9999,445387.8662035417,0.73883056640625,0.2911834716796875,-0.4207000732421875,1,0.94,5
2019-10-23 10:35:42.042 -0400,250,1571841341.505861,33.99898735950098,-81.0241700128074,82.54092,1.419338,327.4733203279895,35.95642183152665,35.51408338087177,-9999,445387.9061875417,0.6661376953125,0.3299102783203125,-0.3446502685546875,1,0.94,5
2019-10-23 10:35:42.082 -0400,251,1571841341.505861,33.99898735950098,-81.0241700128074,82.54092,1.419338,327.4733203279895,35.95642183152665,35.51408338087177,-9999,445387.9461725417,0.7290496826171875,0.3553466796875,-0.3729095458984375,1,0.94,5
2019-10-23 10:35:42.122 -0400,252,1571841341.505861,33.99898735950098,-81.0241700128074,82.54092,1.419338,327.4733203279895,35.95642183152665,35.51408338087177,-9999,445387.9861565417,0.853759765625,0.5130462646484375,-0.448150634765625,1,0.94,5
2019-10-23 10:35:42.174 -0400,253,1571841341.505861,33.99898735950098,-81.0241700128074,82.54092,1.419338,327.4733203279895,35.95642183152665,35.51408338087177,-9999,445388.0261415417,0.9606781005859375,0.589935302734375,-0.4611968994140625,1,0.94,5
2019-10-23 10:35:42.202 -0400,254,1571841341.505861,33.99898735950098,-81.0241700128074,82.54092,1.419338,327.4733203279895,35.95642183152665,35.51408338087177,-9999,445388.0661265417,1.132553100585938,0.57421875,-0.50494384765625,1,0.94,5
2019-10-23 10:35:42.242 -0400,255,1571841341.505861,33.99898735950098,-81.0241700128074,82.54092,1.419338,327.4733203279895,35.95642183152665,35.51408338087177,-9999,445388.1061105417,1.137786865234375,0.6738128662109375,-0.51788330078125,1,0.94,5
2019-10-23 10:35:42.282 -0400,256,1571841341.505861,33.99898735950098,-81.0241700128074,82.54092,1.419338,327.4733203279895,35.95642183152665,35.51408338087177,-9999,445388.1460955417,1.503921508789062,0.806304931640625,-0.5179443359375,1,0.94,5
2019-10-23 10:35:42.322 -0400,257,1571841341.505861,33.99898735950098,-81.0241700128074,82.54092,1.419338,327.4733203279895,35.95642183152665,35.51408338087177,-9999,445388.1860805417,0.974761962890625,0.5563507080078125,-0.4192962646484375,1,0.94,5
2019-10-23 10:35:42.362 -0400,258,1571841341.505861,33.99898735950098,-81.0241700128074,82.54092,1.419338,327.4733203279895,35.95642183152665,35.51408338087177,-9999,445388.2260645417,1.540374755859375,0.6016082763671875,-0.3797607421875,1,0.94,5
2019-10-23 10:35:42.402 -0400,259,1571841341.505861,33.99898735950098,-81.0241700128074,82.54092,1.419338,327.4733203279895,35.95642183152665,35.51408338087177,-9999,445388.26604925,1.680343627929688,0.387603759765625,-0.127685546875,1,0.94,5
2019-10-23 10:35:42.442 -0400,260,1571841341.505861,33.99898735950098,-81.0241700128074,82.54092,1.419338,327.4733203279895,35.95642183152665,35.51408338087177,-9999,445388.30603425,1.162551879882812,0.277374267578125,-0.1017913818359375,1,0.94,5
2019-10-23 10:35:42.482 -0400,261,1571841341.505861,33.99898735950098,-81.0241700128074,82.54092,1.419338,327.4733203279895,35.95642183152665,35.51408338087177,-9999,445388.34601825,0.922149658203125,0.2366485595703125,-0.1707916259765625,1,0.94,5
2019-10-23 10:35:42.522 -0400,262,1571841341.505861,33.99898735950098,-81.0241700128074,82.54092,1.419338,327.4733203279895,35.95642183152665,35.51408338087177,-9999,445388.38600325,0.7180633544921875,0.2796630859375,-0.075775146484375,1,0.94,5
2019-10-23 10:35:42.562 -0400,263,1571841341.505861,33.99898735950098,-81.0241700128074,82.54092,1.419338,327.4733203279895,35.95642183152665,35.51408338087177,-9999,445388.42598825,0.6814422607421875,0.3184967041015625,-0.019317626953125,1,0.94,5
2019-10-23 10:35:42.602 -0400,264,1571841341.505861,33.99898735950098,-81.0241700128074,82.54092,1.419338,327.4733203279895,35.95642183152665,35.51408338087177,-9999,445388.46597225,0.6873321533203125,0.30029296875,0.0003662109375,1,0.94,5
2019-10-23 10:35:42.642 -0400,265,1571841341.505861,33.99898735950098,-81.0241700128074,82.54092,1.419338,327.4733203279895,35.95642183152665,35.51408338087177,-9999,445388.50595725,0.7421722412109375,0.270233154296875,0.006072998046875,1,0.94,5
2019-10-23 10:35:42.682 -0400,266,1571841341.505861,33.99898735950098,-81.0241700128074,82.54092,1.419338,327.4733203279895,35.95642183152665,35.51408338087177,-9999,445388.54594225,0.8981781005859375,0.2488250732421875,0.024810791015625,1,0.94,5
2019-10-23 10:35:42.722 -0400,267,1571841341.505861,33.99898735950098,-81.0241700128074,82.54092,1.419338,327.4733203279895,35.95642183152665,35.51408338087177,-9999,445388.58592625,0.9081573486328125,0.2899322509765625,0.0037689208984375,1,0.94,5
2019-10-23 10:35:42.762 -0400,268,1571841342.50586,33.99901601050045,-81.02421546508353,90.61718,1.419338,319.3130343973041,7.260911264906592,28.00758566462995,-9999,445388.62591125,1.039016723632812,0.382080078125,-0.07147216796875,1,0.94,5
2019-10-23 10:35:42.802 -0400,269,1571841342.50586,33.99901601050045,-81.02421546508353,90.61718,1.419338,319.3130343973041,7.260911264906592,28.00758566462995,-9999,445388.6658962501,0.9153900146484375,0.4055328369140625,-0.0972137451171875,1,0.94,5
2019-10-23 10:35:42.842 -0400,270,1571841342.50586,33.99901601050045,-81.02421546508353,90.61718,1.419338,319.3130343973041,7.260911264906592,28.00758566462995,-9999,445388.70588025,1.122116088867188,0.464569091796875,-0.2772064208984375,1,0.94,5
2019-10-23 10:35:42.882 -0400,271,1571841342.50586,33.99901601050045,-81.02421546508353,90.61718,1.419338,319.3130343973041,7.260911264906592,28.00758566462995,-9999,445388.74586525,1.512557983398438,0.5376434326171875,-0.3530731201171875,1,0.94,5
2019-10-23 10:35:42.922 -0400,272,1571841342.50586,33.99901601050045,-81.02421546508353,90.61718,1.419338,319.3130343973041,7.260911264906592,28.00758566462995,-9999,445388.78585025,1.210739135742188,0.543121337890625,-0.44537353515625,1,0.94,5
2019-10-23 10:35:42.962 -0400,273,1571841342.50586,33.99901601050045,-81.02421546508353,90.61718,1.419338,319.3130343973041,7.260911264906592,28.00758566462995,-9999,445388.82583425,0.7419281005859375,0.2621307373046875,-0.4031829833984375,1,0.94,5
2019-10-23 10:35:43.002 -0400,274,1571841342.50586,33.99901601050045,-81.02421546508353,90.61718,1.419338,319.3130343973041,7.260911264906592,28.00758566462995,-9999,445388.86581925,0.6736907958984375,0.295318603515625,-0.377593994140625,1,0.94,5
2019-10-23 10:35:43.042 -0400,275,1571841342.50586,33.99901601050045,-81.02421546508353,90.61718,1.419338,319.3130343973041,7.260911264906592,28.00758566462995,-9999,445388.90580425,0.7185516357421875,0.371856689453125,-0.397735595703125,1,0.94,5
2019-10-23 10:35:43.082 -0400,276,1571841342.50586,33.99901601050045,-81.02421546508353,90.61718,1.419338,319.3130343973041,7.260911264906592,28.00758566462995,-9999,445388.94578825,0.7951202392578125,0.5666961669921875,-0.4434051513671875,1,0.94,5
2019-10-23 10:35:43.122 -0400,277,1571841342.50586,33.99901601050045,-81.02421546508353,90.61718,1.419338,319.3130343973041,7.260911264906592,28.00758566462995,-9999,445388.9857732501,0.8402099609375,0.574127197265625,-0.4526824951171875,1,0.94,5
2019-10-23 10:35:43.164 -0400,278,1571841342.50586,33.99901601050045,-81.02421546508353,90.61718,1.419338,319.3130343973041,7.260911264906592,28.00758566462995,-9999,445389.02575825,0.9517059326171875,0.53350830078125,-0.4806976318359375,1,0.94,5
2019-10-23 10:35:43.217 -0400,279,1571841342.50586,33.99901601050045,-81.02421546508353,90.61718,1.419338,319.3130343973041,7.260911264906592,28.00758566462995,-9999,445389.06574225,1.145797729492188,0.615966796875,-0.4654693603515625,1,0.94,5
2019-10-23 10:35:43.244 -0400,280,1571841342.50586,33.99901601050045,-81.02421546508353,90.61718,1.419338,319.3130343973041,7.260911264906592,28.00758566462995,-9999,445389.10572725,1.5064697265625,0.7189788818359375,-0.4306793212890625,1,0.94,5
2019-10-23 10:35:43.281 -0400,281,1571841342.50586,33.99901601050045,-81.02421546508353,90.61718,1.419338,319.3130343973041,7.260911264906592,28.00758566462995,-9999,445389.14571225,1.093093872070312,0.637664794921875,-0.4638519287109375,1,0.94,5
2019-10-23 10:35:43.321 -0400,282,1571841342.50586,33.99901601050045,-81.02421546508353,90.61718,1.419338,319.3130343973041,7.260911264906592,28.00758566462995,-9999,445389.18569625,1.260177612304688,0.5149078369140625,-0.321563720703125,1,0.94,5
2019-10-23 10:35:43.361 -0400,283,1571841342.50586,33.99901601050045,-81.02421546508353,90.61718,1.419338,319.3130343973041,7.260911264906592,28.00758566462995,-9999,445389.22568125,1.47393798828125,0.509613037109375,-0.21099853515625,1,0.94,5
2019-10-23 10:35:43.402 -0400,284,1571841342.50586,33.99901601050045,-81.02421546508353,90.61718,1.419338,319.3130343973041,7.260911264906592,28.00758566462995,-9999,445389.2656649167,1.252700805664062,0.2822265625,-0.0618743896484375,1,0.94,5
2019-10-23 10:35:43.441 -0400,285,1571841342.50586,33.99901601050045,-81.02421546508353,90.61718,1.419338,319.3130343973041,7.260911264906592,28.00758566462995,-9999,445389.3056499167,0.9203338623046875,0.2695159912109375,-0.1437835693359375,1,0.94,5
2019-10-23 10:35:43.482 -0400,286,1571841342.50586,33.99901601050045,-81.02421546508353,90.61718,1.419338,319.3130343973041,7.260911264906592,28.00758566462995,-9999,445389.3456349167,0.798675537109375,0.2661285400390625,-0.0777435302734375,1,0.94,5
2019-10-23 10:35:43.521 -0400,287,1571841342.50586,33.99901601050045,-81.02421546508353,90.61718,1.419338,319.3130343973041,7.260911264906592,28.00758566462995,-9999,445389.3856189167,0.746185302734375,0.329833984375,-0.0265960693359375,1,0.94,5
2019-10-23 10:35:43.561 -0400,288,1571841342.50586,33.99901601050045,-81.02421546508353,90.61718,1.419338,319.3130343973041,7.260911264906592,28.00758566462995,-9999,445389.4256039167,0.7609100341796875,0.3152313232421875,-0.0125885009765625,1,0.94,5
2019-10-23 10:35:43.601 -0400,289,1571841342.50586,33.99901601050045,-81.02421546508353,90.61718,1.419338,319.3130343973041,7.260911264906592,28.00758566462995,-9999,445389.4655889167,0.8203887939453125,0.3082427978515625,-0.023101806640625,1,0.94,5
2019-10-23 10:35:43.641 -0400,290,1571841342.50586,33.99901601050045,-81.02421546508353,90.61718,1.419338,319.3130343973041,7.260911264906592,28.00758566462995,-9999,445389.5055729167,0.9119110107421875,0.2804107666015625,-0.0295867919921875,1,0.94,5
2019-10-23 10:35:43.691 -0400,291,1571841342.50586,33.99901601050045,-81.02421546508353,90.61718,1.419338,319.3130343973041,7.260911264906592,28.00758566462995,-9999,445389.5455579167,0.995391845703125,0.2647857666015625,-0.010528564453125,1,0.94,5
2019-10-23 10:35:43.721 -0400,292,1571841342.50586,33.99901601050045,-81.02421546508353,90.61718,1.419338,319.3130343973041,7.260911264906592,28.00758566462995,-9999,445389.5855429167,0.96417236328125,0.289703369140625,-0.0601043701171875,1,0.94,5
2019-10-23 10:35:43.762 -0400,293,1571841342.50586,33.99901601050045,-81.02421546508353,90.61718,1.419338,319.3130343973041,7.260911264906592,28.00758566462995,-9999,445389.6255269167,1.018035888671875,0.42340087890625,-0.1101531982421875,1,0.94,5
2019-10-23 10:35:43.801 -0400,294,1571841343.505859,33.99902068101545,-81.02421713723871,90.77206,1.375574,319.2577861486799,7.127481434272177,18.7877659909444,-9999,445389.6655119167,1.08782958984375,0.39483642578125,-0.2798309326171875,1,0.94,5
2019-10-23 10:35:43.841 -0400,295,1571841343.505859,33.99902068101545,-81.02421713723871,90.77206,1.375574,319.2577861486799,7.127481434272177,18.7877659909444,-9999,445389.7054969167,1.488372802734375,0.5518798828125,-0.3788299560546875,1,0.94,5
2019-10-23 10:35:43.881 -0400,296,1571841343.505859,33.99902068101545,-81.02421713723871,90.77206,1.375574,319.2577861486799,7.127481434272177,18.7877659909444,-9999,445389.7454809167,1.299362182617188,0.46697998046875,-0.42718505859375,1,0.94,5
2019-10-23 10:35:43.921 -0400,297,1571841343.505859,33.99902068101545,-81.02421713723871,90.77206,1.375574,319.2577861486799,7.127481434272177,18.7877659909444,-9999,445389.7854659167,0.8185882568359375,0.3063507080078125,-0.448272705078125,1,0.94,5
2019-10-23 10:35:43.961 -0400,298,1571841343.505859,33.99902068101545,-81.02421713723871,90.77206,1.375574,319.2577861486799,7.127481434272177,18.7877659909444,-9999,445389.8254509167,0.690643310546875,0.248809814453125,-0.36456298828125,1,0.94,5
2019-10-23 10:35:44.001 -0400,299,1571841343.505859,33.99902068101545,-81.02421713723871,90.77206,1.375574,319.2577861486799,7.127481434272177,18.7877659909444,-9999,445389.8654349167,0.7056732177734375,0.3278045654296875,-0.2660369873046875,1,0.94,5
2019-10-23 10:35:44.041 -0400,300,1571841343.505859,33.99902068101545,-81.02421713723871,90.77206,1.375574,319.2577861486799,7.127481434272177,18.7877659909444,-9999,445389.9054199167,0.7921295166015625,0.52984619140625,-0.3487091064453125,1,0.94,5
2019-10-23 10:35:44.081 -0400,301,1571841343.505859,33.99902068101545,-81.02421713723871,90.77206,1.375574,319.2577861486799,7.127481434272177,18.7877659909444,-9999,445389.9454049167,0.938079833984375,0.6536407470703125,-0.381500244140625,1,0.94,5
2019-10-23 10:35:44.121 -0400,302,1571841343.505859,33.99902068101545,-81.02421713723871,90.77206,1.375574,319.2577861486799,7.127481434272177,18.7877659909444,-9999,445389.9853889167,0.97100830078125,0.629852294921875,-0.3773345947265625,1,0.94,5
2019-10-23 10:35:44.161 -0400,303,1571841343.505859,33.99902068101545,-81.02421713723871,90.77206,1.375574,319.2577861486799,7.127481434272177,18.7877659909444,-9999,445390.0253739167,1.047958374023438,0.68878173828125,-0.41522216796875,1,0.94,5
2019-10-23 10:35:44.201 -0400,304,1571841343.505859,33.99902068101545,-81.02421713723871,90.77206,1.375574,319.2577861486799,7.127481434272177,18.7877659909444,-9999,445390.0653589167,1.274459838867188,0.7776336669921875,-0.3880615234375,1,0.94,5
2019-10-23 10:35:44.245 -0400,305,1571841343.505859,33.99902068101545,-81.02421713723871,90.77206,1.375574,319.2577861486799,7.127481434272177,18.7877659909444,-9999,445390.1053429167,1.174575805664062,0.7759857177734375,-0.44659423828125,1,0.94,5
2019-10-23 10:35:44.281 -0400,306,1571841343.505859,33.99902068101545,-81.02421713723871,90.77206,1.375574,319.2577861486799,7.127481434272177,18.7877659909444,-9999,445390.1453279167,1.058609008789062,0.5946807861328125,-0.3859100341796875,1,0.94,5
2019-10-23 10:35:44.321 -0400,307,1571841343.505859,33.99902068101545,-81.02421713723871,90.77206,1.375574,319.2577861486799,7.127481434272177,18.7877659909444,-9999,445390.1853129167,1.57818603515625,0.6196136474609375,-0.2931365966796875,1,0.94,5
2019-10-23 10:35:44.361 -0400,308,1571841343.505859,33.99902068101545,-81.02421713723871,90.77206,1.375574,319.2577861486799,7.127481434272177,18.7877659909444,-9999,445390.2252969167,1.416488647460938,0.2812042236328125,-0.0922393798828125,1,0.94,5
2019-10-23 10:35:44.401 -0400,309,1571841343.505859,33.99902068101545,-81.02421713723871,90.77206,1.375574,319.2577861486799,7.127481434272177,18.7877659909444,-9999,445390.2652825,1.008712768554688,0.21197509765625,-0.181121826171875,1,0.94,5
2019-10-23 10:35:44.441 -0400,310,1571841343.505859,33.99902068101545,-81.02421713723871,90.77206,1.375574,319.2577861486799,7.127481434272177,18.7877659909444,-9999,445390.3052675001,0.8671722412109375,0.2831268310546875,-0.2104034423828125,1,0.94,5
2019-10-23 10:35:44.481 -0400,311,1571841343.505859,33.99902068101545,-81.02421713723871,90.77206,1.375574,319.2577861486799,7.127481434272177,18.7877659909444,-9999,445390.3452515,0.8369598388671875,0.3654327392578125,-0.126373291015625,1,0.94,5
2019-10-23 10:35:44.521 -0400,312,1571841343.505859,33.99902068101545,-81.02421713723871,90.77206,1.375574,319.2577861486799,7.127481434272177,18.7877659909444,-9999,445390.3852365,0.8513031005859375,0.3473052978515625,-0.07574462890625,1,0.94,5
2019-10-23 10:35:44.561 -0400,313,1571841343.505859,33.99902068101545,-81.02421713723871,90.77206,1.375574,319.2577861486799,7.127481434272177,18.7877659909444,-9999,445390.4252215,0.9210052490234375,0.3060760498046875,-0.0599212646484375,1,0.94,5
2019-10-23 10:35:44.601 -0400,314,1571841343.505859,33.99902068101545,-81.02421713723871,90.77206,1.375574,319.2577861486799,7.127481434272177,18.7877659909444,-9999,445390.4652055,0.977203369140625,0.247314453125,-0.044647216796875,1,0.94,5
2019-10-23 10:35:44.641 -0400,315,1571841343.505859,33.99902068101545,-81.02421713723871,90.77206,1.375574,319.2577861486799,7.127481434272177,18.7877659909444,-9999,445390.5051905,1.078582763671875,0.225799560546875,-0.0240020751953125,1,0.94,5
2019-10-23 10:35:44.684 -0400,316,1571841343.505859,33.99902068101545,-81.02421713723871,90.77206,1.375574,319.2577861486799,7.127481434272177,18.7877659909444,-9999,445390.5451755,0.9325408935546875,0.2166290283203125,-0.0231781005859375,1,0.94,5
2019-10-23 10:35:44.721 -0400,317,1571841343.505859,33.99902068101545,-81.02421713723871,90.77206,1.375574,319.2577861486799,7.127481434272177,18.7877659909444,-9999,445390.5851595,1.0762939453125,0.3841705322265625,-0.051971435546875,1,0.94,5
2019-10-23 10:35:44.761 -0400,318,1571841344.455857,33.99902437189184,-81.02423768762459,90.83687,1.364625,332.1793610138273,10.91552167489101,22.9254870716379,-9999,445390.6251445001,0.86328125,0.3470458984375,-0.217987060546875,1,0.94,5
2019-10-23 10:35:44.801 -0400,319,1571841344.455857,33.99902437189184,-81.02423768762459,90.83687,1.364625,332.1793610138273,10.91552167489101,22.9254870716379,-9999,445390.6651295,1.171279907226562,0.530487060546875,-0.3645172119140625,1,0.94,5
2019-10-23 10:35:44.841 -0400,320,1571841344.455857,33.99902437189184,-81.02423768762459,90.83687,1.364625,332.1793610138273,10.91552167489101,22.9254870716379,-9999,445390.7051135,1.373321533203125,0.4404449462890625,-0.381011962890625,1,0.94,5
2019-10-23 10:35:44.881 -0400,321,1571841344.455857,33.99902437189184,-81.02423768762459,90.83687,1.364625,332.1793610138273,10.91552167489101,22.9254870716379,-9999,445390.7450985,1.0955810546875,0.4866180419921875,-0.4223175048828125,1,0.94,5
2019-10-23 10:35:44.921 -0400,322,1571841344.455857,33.99902437189184,-81.02423768762459,90.83687,1.364625,332.1793610138273,10.91552167489101,22.9254870716379,-9999,445390.7850835,0.8668670654296875,0.2598724365234375,-0.4177093505859375,1,0.94,5
2019-10-23 10:35:44.961 -0400,323,1571841344.455857,33.99902437189184,-81.02423768762459,90.83687,1.364625,332.1793610138273,10.91552167489101,22.9254870716379,-9999,445390.8250675,0.8406219482421875,0.363677978515625,-0.337432861328125,1,0.94,5
2019-10-23 10:35:45.001 -0400,324,1571841344.455857,33.99902437189184,-81.02423768762459,90.83687,1.364625,332.1793610138273,10.91552167489101,22.9254870716379,-9999,445390.8650525,0.8506622314453125,0.4840850830078125,-0.3655853271484375,1,0.94,5
2019-10-23 10:35:45.041 -0400,325,1571841344.455857,33.99902437189184,-81.02423768762459,90.83687,1.364625,332.1793610138273,10.91552167489101,22.9254870716379,-9999,445390.9050375,0.8428955078125,0.627593994140625,-0.3943634033203125,1,0.94,5
2019-10-23 10:35:45.081 -0400,326,1571841344.455857,33.99902437189184,-81.02423768762459,90.83687,1.364625,332.1793610138273,10.91552167489101,22.9254870716379,-9999,445390.9450215001,0.8606109619140625,0.6458892822265625,-0.3831329345703125,1,0.94,5
2019-10-23 10:35:45.121 -0400,327,1571841344.455857,33.99902437189184,-81.02423768762459,90.83687,1.364625,332.1793610138273,10.91552167489101,22.9254870716379,-9999,445390.9850065,0.96490478515625,0.695343017578125,-0.4373779296875,1,0.94,5
2019-10-23 10:35:45.161 -0400,328,1571841344.455857,33.99902437189184,-81.02423768762459,90.83687,1.364625,332.1793610138273,10.91552167489101,22.9254870716379,-9999,445391.0249915,1.071517944335938,0.801483154296875,-0.4071502685546875,1,0.94,5
2019-10-23 10:35:45.201 -0400,329,1571841344.455857,33.99902437189184,-81.02423768762459,90.83687,1.364625,332.1793610138273,10.91552167489101,22.9254870716379,-9999,445391.0649755,1.577789306640625,0.9345245361328125,-0.4704742431640625,1,0.94,5
2019-10-23 10:35:45.240 -0400,330,1571841344.455857,33.99902437189184,-81.02423768762459,90.83687,1.364625,332.1793610138273,10.91552167489101,22.9254870716379,-9999,445391.1049605,0.885406494140625,0.5467529296875,-0.419647216796875,1,0.94,5
2019-10-23 10:35:45.281 -0400,331,1571841344.455857,33.99902437189184,-81.02423768762459,90.83687,1.364625,332.1793610138273,10.91552167489101,22.9254870716379,-9999,445391.1449455,1.503402709960938,0.627044677734375,-0.3828125,1,0.94,5
2019-10-23 10:35:45.321 -0400,332,1571841344.455857,33.99902437189184,-81.02423768762459,90.83687,1.364625,332.1793610138273,10.91552167489101,22.9254870716379,-9999,445391.1849295,1.612136840820312,0.3897552490234375,-0.146209716796875,1,0.94,5
2019-10-23 10:35:45.361 -0400,333,1571841344.455857,33.99902437189184,-81.02423768762459,90.83687,1.364625,332.1793610138273,10.91552167489101,22.9254870716379,-9999,445391.2249145,1.259796142578125,0.2705841064453125,-0.2066650390625,1,0.94,5
2019-10-23 10:35:45.401 -0400,334,1571841344.455857,33.99902437189184,-81.02423768762459,90.83687,1.364625,332.1793610138273,10.91552167489101,22.9254870716379,-9999,445391.26489975,1.042709350585938,0.26708984375,-0.2187347412109375,1,0.94,5
2019-10-23 10:35:45.441 -0400,335,1571841344.455857,33.99902437189184,-81.02423768762459,90.83687,1.364625,332.1793610138273,10.91552167489101,22.9254870716379,-9999,445391.30488375,0.9580535888671875,0.335968017578125,-0.1312713623046875,1,0.94,5
2019-10-23 10:35:45.480 -0400,336,1571841344.455857,33.99902437189184,-81.02423768762459,90.83687,1.364625,332.1793610138273,10.91552167489101,22.9254870716379,-9999,445391.34486875,0.9521331787109375,0.3276214599609375,-0.0757293701171875,1,0.94,5
2019-10-23 10:35:45.520 -0400,337,1571841344.455857,33.99902437189184,-81.02423768762459,90.83687,1.364625,332.1793610138273,10.91552167489101,22.9254870716379,-9999,445391.38485375,0.939453125,0.3109130859375,-0.0518035888671875,1,0.94,5
2019-10-23 10:35:45.560 -0400,338,1571841344.455857,33.99902437189184,-81.02423768762459,90.83687,1.364625,332.1793610138273,10.91552167489101,22.9254870716379,-9999,445391.42483775,0.897674560546875,0.223358154296875,-0.0410614013671875,1,0.94,5
2019-10-23 10:35:45.601 -0400,339,1571841344.455857,33.99902437189184,-81.02423768762459,90.83687,1.364625,332.1793610138273,10.91552167489101,22.9254870716379,-9999,445391.46482275,0.907440185546875,0.183135986328125,-0.0205230712890625,1,0.94,5
2019-10-23 10:35:45.646 -0400,340,1571841345.405856,33.99904879086542,-81.0242440249795,90.89767,1.351472,348.8756339783723,9.597172514885981,17.72260906126631,-9999,445391.5048077501,0.9011383056640625,0.1844940185546875,0.0109710693359375,1,0.94,5
2019-10-23 10:35:45.681 -0400,341,1571841345.405856,33.99904879086542,-81.0242440249795,90.89767,1.351472,348.8756339783723,9.597172514885981,17.72260906126631,-9999,445391.54479175,0.9619293212890625,0.2720947265625,-0.0274810791015625,1,0.94,5
2019-10-23 10:35:45.720 -0400,342,1571841345.405856,33.99904879086542,-81.0242440249795,90.89767,1.351472,348.8756339783723,9.597172514885981,17.72260906126631,-9999,445391.58477675,0.8538818359375,0.34600830078125,-0.0945892333984375,1,0.94,5
2019-10-23 10:35:45.761 -0400,343,1571841345.405856,33.99904879086542,-81.0242440249795,90.89767,1.351472,348.8756339783723,9.597172514885981,17.72260906126631,-9999,445391.62476175,1.087631225585938,0.456634521484375,-0.29010009765625,1,0.94,5
2019-10-23 10:35:45.801 -0400,344,1571841345.405856,33.99904879086542,-81.0242440249795,90.89767,1.351472,348.8756339783723,9.597172514885981,17.72260906126631,-9999,445391.66474575,1.509780883789062,0.5810394287109375,-0.4047698974609375,1,0.94,5
2019-10-23 10:35:45.841 -0400,345,1571841345.405856,33.99904879086542,-81.0242440249795,90.89767,1.351472,348.8756339783723,9.597172514885981,17.72260906126631,-9999,445391.70473075,1.325408935546875,0.5311279296875,-0.42584228515625,1,0.94,5
2019-10-23 10:35:45.881 -0400,346,1571841345.405856,33.99904879086542,-81.0242440249795,90.89767,1.351472,348.8756339783723,9.597172514885981,17.72260906126631,-9999,445391.74471575,0.9718475341796875,0.3661956787109375,-0.4237823486328125,1,0.94,5
2019-10-23 10:35:45.921 -0400,347,1571841345.405856,33.99904879086542,-81.0242440249795,90.89767,1.351472,348.8756339783723,9.597172514885981,17.72260906126631,-9999,445391.78469975,0.8799285888671875,0.3873443603515625,-0.367584228515625,1,0.94,5
2019-10-23 10:35:45.961 -0400,348,1571841345.405856,33.99904879086542,-81.0242440249795,90.89767,1.351472,348.8756339783723,9.597172514885981,17.72260906126631,-9999,445391.8246847501,0.882904052734375,0.4886322021484375,-0.30413818359375,1,0.94,5
2019-10-23 10:35:46.000 -0400,349,1571841345.405856,33.99904879086542,-81.0242440249795,90.89767,1.351472,348.8756339783723,9.597172514885981,17.72260906126631,-9999,445391.86466975,0.9157867431640625,0.6910552978515625,-0.37103271484375,1,0.94,5
2019-10-23 10:35:46.041 -0400,350,1571841345.405856,33.99904879086542,-81.0242440249795,90.89767,1.351472,348.8756339783723,9.597172514885981,17.72260906126631,-9999,445391.90465375,0.9353485107421875,0.7381591796875,-0.3420562744140625,1,0.94,5
2019-10-23 10:35:46.091 -0400,351,1571841345.405856,33.99904879086542,-81.0242440249795,90.89767,1.351472,348.8756339783723,9.597172514885981,17.72260906126631,-9999,445391.9446387501,0.8889312744140625,0.6829833984375,-0.3941802978515625,1,0.94,5
2019-10-23 10:35:46.120 -0400,352,1571841345.405856,33.99904879086542,-81.0242440249795,90.89767,1.351472,348.8756339783723,9.597172514885981,17.72260906126631,-9999,445391.98462375,0.9708709716796875,0.80078125,-0.422332763671875,1,0.94,5
2019-10-23 10:35:46.160 -0400,353,1571841345.405856,33.99904879086542,-81.0242440249795,90.89767,1.351472,348.8756339783723,9.597172514885981,17.72260906126631,-9999,445392.02460875,1.41143798828125,0.93438720703125,-0.423553466796875,1,0.94,5
2019-10-23 10:35:46.200 -0400,354,1571841345.405856,33.99904879086542,-81.0242440249795,90.89767,1.351472,348.8756339783723,9.597172514885981,17.72260906126631,-9999,445392.06459275,1.129837036132812,0.7161865234375,-0.5166778564453125,1,0.94,5
2019-10-23 10:35:46.240 -0400,355,1571841345.405856,33.99904879086542,-81.0242440249795,90.89767,1.351472,348.8756339783723,9.597172514885981,17.72260906126631,-9999,445392.10457775,1.251251220703125,0.5518035888671875,-0.426422119140625,1,0.94,5
2019-10-23 10:35:46.280 -0400,356,1571841345.405856,33.99904879086542,-81.0242440249795,90.89767,1.351472,348.8756339783723,9.597172514885981,17.72260906126631,-9999,445392.14456275,1.607330322265625,0.4891357421875,-0.3201141357421875,1,0.94,5
2019-10-23 10:35:46.320 -0400,357,1571841345.405856,33.99904879086542,-81.0242440249795,90.89767,1.351472,348.8756339783723,9.597172514885981,17.72260906126631,-9999,445392.18454675,1.496780395507812,0.2897796630859375,-0.204376220703125,1,0.94,5
2019-10-23 10:35:46.360 -0400,358,1571841345.405856,33.99904879086542,-81.0242440249795,90.89767,1.351472,348.8756339783723,9.597172514885981,17.72260906126631,-9999,445392.22453175,1.08563232421875,0.1923065185546875,-0.1988372802734375,1,0.94,5
2019-10-23 10:35:46.400 -0400,359,1571841345.405856,33.99904879086542,-81.0242440249795,90.89767,1.351472,348.8756339783723,9.597172514885981,17.72260906126631,-9999,445392.264517,0.8336029052734375,0.240478515625,-0.166839599609375,1,0.94,5
2019-10-23 10:35:46.440 -0400,360,1571841345.405856,33.99904879086542,-81.0242440249795,90.89767,1.351472,348.8756339783723,9.597172514885981,17.72260906126631,-9999,445392.304501,0.8377685546875,0.359130859375,-0.1598358154296875,1,0.94,5
2019-10-23 10:35:46.480 -0400,361,1571841345.405856,33.99904879086542,-81.0242440249795,90.89767,1.351472,348.8756339783723,9.597172514885981,17.72260906126631,-9999,445392.344486,0.7777557373046875,0.3114166259765625,-0.0641021728515625,1,0.94,5
2019-10-23 10:35:46.520 -0400,362,1571841345.405856,33.99904879086542,-81.0242440249795,90.89767,1.351472,348.8756339783723,9.597172514885981,17.72260906126631,-9999,445392.3844710001,0.7568206787109375,0.238800048828125,-0.023193359375,1,0.94,5
2019-10-23 10:35:46.560 -0400,363,1571841345.405856,33.99904879086542,-81.0242440249795,90.89767,1.351472,348.8756339783723,9.597172514885981,17.72260906126631,-9999,445392.424455,0.8128814697265625,0.207244873046875,-0.02789306640625,1,0.94,5
2019-10-23 10:35:46.600 -0400,364,1571841346.355855,33.99908446639311,-81.02424948521721,90.95486,1.33898,356.1430530879616,7.203216164954688,12.2471823517369,-9999,445392.46444,0.926361083984375,0.24591064453125,-0.040985107421875,1,0.94,5
2019-10-23 10:35:46.640 -0400,365,1571841346.355855,33.99908446639311,-81.02424948521721,90.95486,1.33898,356.1430530879616,7.203216164954688,12.2471823517369,-9999,445392.5044250001,0.9047088623046875,0.29168701171875,-0.0635986328125,1,0.94,5
2019-10-23 10:35:46.680 -0400,366,1571841346.355855,33.99908446639311,-81.02424948521721,90.95486,1.33898,356.1430530879616,7.203216164954688,12.2471823517369,-9999,445392.544409,1.100830078125,0.3972015380859375,-0.0889434814453125,1,0.94,5
2019-10-23 10:35:46.731 -0400,367,1571841346.355855,33.99908446639311,-81.02424948521721,90.95486,1.33898,356.1430530879616,7.203216164954688,12.2471823517369,-9999,445392.584394,0.973358154296875,0.36993408203125,-0.199310302734375,1,0.94,5
2019-10-23 10:35:46.760 -0400,368,1571841346.355855,33.99908446639311,-81.02424948521721,90.95486,1.33898,356.1430530879616,7.203216164954688,12.2471823517369,-9999,445392.624379,1.331924438476562,0.507080078125,-0.3612060546875,1,0.94,5
2019-10-23 10:35:46.800 -0400,369,1571841346.355855,33.99908446639311,-81.02424948521721,90.95486,1.33898,356.1430530879616,7.203216164954688,12.2471823517369,-9999,445392.664363,1.506973266601562,0.4803466796875,-0.3676910400390625,1,0.94,5
2019-10-23 10:35:46.840 -0400,370,1571841346.355855,33.99908446639311,-81.02424948521721,90.95486,1.33898,356.1430530879616,7.203216164954688,12.2471823517369,-9999,445392.704348,1.15814208984375,0.482879638671875,-0.3427581787109375,1,0.94,5
2019-10-23 10:35:46.880 -0400,371,1571841346.355855,33.99908446639311,-81.02424948521721,90.95486,1.33898,356.1430530879616,7.203216164954688,12.2471823517369,-9999,445392.744333,0.9399566650390625,0.3369903564453125,-0.31536865234375,1,0.94,5
2019-10-23 10:35:46.920 -0400,372,1571841346.355855,33.99908446639311,-81.02424948521721,90.95486,1.33898,356.1430530879616,7.203216164954688,12.2471823517369,-9999,445392.784317,0.884674072265625,0.475677490234375,-0.2441253662109375,1,0.94,5
2019-10-23 10:35:46.960 -0400,373,1571841346.355855,33.99908446639311,-81.02424948521721,90.95486,1.33898,356.1430530879616,7.203216164954688,12.2471823517369,-9999,445392.8243020001,0.8811492919921875,0.628875732421875,-0.3022003173828125,1,0.94,5
2019-10-23 10:35:47.000 -0400,374,1571841346.355855,33.99908446639311,-81.02424948521721,90.95486,1.33898,356.1430530879616,7.203216164954688,12.2471823517369,-9999,445392.864287,0.851776123046875,0.68658447265625,-0.3412017822265625,1,0.94,5
2019-10-23 10:35:47.040 -0400,375,1571841346.355855,33.99908446639311,-81.02424948521721,90.95486,1.33898,356.1430530879616,7.203216164954688,12.2471823517369,-9999,445392.904271,0.8734588623046875,0.6870880126953125,-0.3242645263671875,1,0.94,5
2019-10-23 10:35:47.080 -0400,376,1571841346.355855,33.99908446639311,-81.02424948521721,90.95486,1.33898,356.1430530879616,7.203216164954688,12.2471823517369,-9999,445392.944256,0.8517608642578125,0.7472381591796875,-0.4129180908203125,1,0.94,5
2019-10-23 10:35:47.120 -0400,377,1571841346.355855,33.99908446639311,-81.02424948521721,90.95486,1.33898,356.1430530879616,7.203216164954688,12.2471823517369,-9999,445392.984241,0.9705963134765625,0.8322906494140625,-0.3824615478515625,1,0.94,5
2019-10-23 10:35:47.160 -0400,378,1571841346.355855,33.99908446639311,-81.02424948521721,90.95486,1.33898,356.1430530879616,7.203216164954688,12.2471823517369,-9999,445393.024226,1.5775146484375,1.019210815429688,-0.4622650146484375,1,0.94,5
2019-10-23 10:35:47.203 -0400,379,1571841346.355855,33.99908446639311,-81.02424948521721,90.95486,1.33898,356.1430530879616,7.203216164954688,12.2471823517369,-9999,445393.06421,0.9141845703125,0.6143341064453125,-0.3570404052734375,1,0.94,5
2019-10-23 10:35:47.240 -0400,380,1571841346.355855,33.99908446639311,-81.02424948521721,90.95486,1.33898,356.1430530879616,7.203216164954688,12.2471823517369,-9999,445393.104195,1.498428344726562,0.5763702392578125,-0.2632598876953125,1,0.94,5
2019-10-23 10:35:47.280 -0400,381,1571841346.355855,33.99908446639311,-81.02424948521721,90.95486,1.33898,356.1430530879616,7.203216164954688,12.2471823517369,-9999,445393.14418,1.551055908203125,0.40869140625,-0.1350555419921875,1,0.94,5
2019-10-23 10:35:47.320 -0400,382,1571841346.355855,33.99908446639311,-81.02424948521721,90.95486,1.33898,356.1430530879616,7.203216164954688,12.2471823517369,-9999,445393.184164,1.269500732421875,0.353515625,-0.1465301513671875,1,0.94,5
2019-10-23 10:35:47.360 -0400,383,1571841346.355855,33.99908446639311,-81.02424948521721,90.95486,1.33898,356.1430530879616,7.203216164954688,12.2471823517369,-9999,445393.224149,1.064163208007812,0.3370513916015625,-0.1981048583984375,1,0.94,5
2019-10-23 10:35:47.400 -0400,384,1571841346.355855,33.99908446639311,-81.02424948521721,90.95486,1.33898,356.1430530879616,7.203216164954688,12.2471823517369,-9999,445393.264133125,0.964691162109375,0.41766357421875,-0.1541595458984375,1,0.94,5
2019-10-23 10:35:47.440 -0400,385,1571841346.355855,33.99908446639311,-81.02424948521721,90.95486,1.33898,356.1430530879616,7.203216164954688,12.2471823517369,-9999,445393.3041171251,0.853424072265625,0.3711395263671875,-0.0695648193359375,1,0.94,5
2019-10-23 10:35:47.482 -0400,386,1571841346.355855,33.99908446639311,-81.02424948521721,90.95486,1.33898,356.1430530879616,7.203216164954688,12.2471823517369,-9999,445393.344102125,0.82049560546875,0.319580078125,-0.0686492919921875,1,0.94,5
2019-10-23 10:35:47.520 -0400,387,1571841347.305617,33.99910591958633,-81.02426609325732,91.0325,1.755689,350.8015901964213,9.243963774692602,15.03297857307656,-9999,445393.384087125,0.85369873046875,0.2940521240234375,-0.079345703125,1,0.94,5
2019-10-23 10:35:47.560 -0400,388,1571841347.305617,33.99910591958633,-81.02426609325732,91.0325,1.755689,350.8015901964213,9.243963774692602,15.03297857307656,-9999,445393.4240721251,0.8953704833984375,0.242950439453125,-0.0565643310546875,1,0.94,5
2019-10-23 10:35:47.600 -0400,389,1571841347.305617,33.99910591958633,-81.02426609325732,91.0325,1.755689,350.8015901964213,9.243963774692602,15.03297857307656,-9999,445393.464056125,0.9517669677734375,0.2183074951171875,-0.0879669189453125,1,0.94,5
2019-10-23 10:35:47.640 -0400,390,1571841347.305617,33.99910591958633,-81.02426609325732,91.0325,1.755689,350.8015901964213,9.243963774692602,15.03297857307656,-9999,445393.504041125,0.8931732177734375,0.200042724609375,-0.0641937255859375,1,0.94,5
2019-10-23 10:35:47.680 -0400,391,1571841347.305617,33.99910591958633,-81.02426609325732,91.0325,1.755689,350.8015901964213,9.243963774692602,15.03297857307656,-9999,445393.544026125,1.065750122070312,0.2995452880859375,-0.1024322509765625,1,0.94,5
2019-10-23 10:35:47.720 -0400,392,1571841347.305617,33.99910591958633,-81.02426609325732,91.0325,1.755689,350.8015901964213,9.243963774692602,15.03297857307656,-9999,445393.584010125,0.8690643310546875,0.37579345703125,-0.1596832275390625,1,0.94,5
2019-10-23 10:35:47.760 -0400,393,1571841347.305617,33.99910591958633,-81.02426609325732,91.0325,1.755689,350.8015901964213,9.243963774692602,15.03297857307656,-9999,445393.623995125,1.068557739257812,0.51629638671875,-0.28485107421875,1,0.94,5
2019-10-23 10:35:47.800 -0400,394,1571841347.305617,33.99910591958633,-81.02426609325732,91.0325,1.755689,350.8015901964213,9.243963774692602,15.03297857307656,-9999,445393.663980125,1.501251220703125,0.508514404296875,-0.3575286865234375,1,0.94,5
2019-10-23 10:35:47.840 -0400,395,1571841347.305617,33.99910591958633,-81.02426609325732,91.0325,1.755689,350.8015901964213,9.243963774692602,15.03297857307656,-9999,445393.703964125,1.3631591796875,0.5786590576171875,-0.3236083984375,1,0.94,5
2019-10-23 10:35:47.880 -0400,396,1571841347.305617,33.99910591958633,-81.02426609325732,91.0325,1.755689,350.8015901964213,9.243963774692602,15.03297857307656,-9999,445393.7439491251,1.101470947265625,0.4273681640625,-0.4859466552734375,1,0.94,5
2019-10-23 10:35:47.920 -0400,397,1571841347.305617,33.99910591958633,-81.02426609325732,91.0325,1.755689,350.8015901964213,9.243963774692602,15.03297857307656,-9999,445393.783934125,0.9406890869140625,0.438690185546875,-0.3875885009765625,1,0.94,5
2019-10-23 10:35:47.960 -0400,398,1571841347.305617,33.99910591958633,-81.02426609325732,91.0325,1.755689,350.8015901964213,9.243963774692602,15.03297857307656,-9999,445393.823918125,0.8080902099609375,0.5410614013671875,-0.32421875,1,0.94,5
2019-10-23 10:35:48.000 -0400,399,1571841347.305617,33.99910591958633,-81.02426609325732,91.0325,1.755689,350.8015901964213,9.243963774692602,15.03297857307656,-9999,445393.863903125,0.7655029296875,0.5489044189453125,-0.310028076171875,1,0.94,5
2019-10-23 10:35:48.040 -0400,400,1571841347.305617,33.99910591958633,-81.02426609325732,91.0325,1.755689,350.8015901964213,9.243963774692602,15.03297857307656,-9999,445393.903888125,0.756195068359375,0.65545654296875,-0.3251495361328125,1,0.94,5
2019-10-23 10:35:48.080 -0400,401,1571841347.305617,33.99910591958633,-81.02426609325732,91.0325,1.755689,350.8015901964213,9.243963774692602,15.03297857307656,-9999,445393.943873125,0.7544708251953125,0.690948486328125,-0.344970703125,1,0.94,5
2019-10-23 10:35:48.120 -0400,402,1571841347.305617,33.99910591958633,-81.02426609325732,91.0325,1.755689,350.8015901964213,9.243963774692602,15.03297857307656,-9999,445393.983857125,0.846435546875,0.752410888671875,-0.38262939453125,1,0.94,5
2019-10-23 10:35:48.160 -0400,403,1571841347.305617,33.99910591958633,-81.02426609325732,91.0325,1.755689,350.8015901964213,9.243963774692602,15.03297857307656,-9999,445394.023842125,1.014205932617188,0.7865753173828125,-0.355499267578125,1,0.94,5
2019-10-23 10:35:48.200 -0400,404,1571841347.305617,33.99910591958633,-81.02426609325732,91.0325,1.755689,350.8015901964213,9.243963774692602,15.03297857307656,-9999,445394.063827125,1.51873779296875,0.9166259765625,-0.40008544921875,1,0.94,5
2019-10-23 10:35:48.240 -0400,405,1571841347.305617,33.99910591958633,-81.02426609325732,91.0325,1.755689,350.8015901964213,9.243963774692602,15.03297857307656,-9999,445394.103811125,1.053863525390625,0.5874481201171875,-0.4139862060546875,1,0.94,5
2019-10-23 10:35:48.280 -0400,406,1571841347.305617,33.99910591958633,-81.02426609325732,91.0325,1.755689,350.8015901964213,9.243963774692602,15.03297857307656,-9999,445394.143796125,1.53314208984375,0.5808258056640625,-0.3211517333984375,1,0.94,5
2019-10-23 10:35:48.320 -0400,407,1571841347.305617,33.99910591958633,-81.02426609325732,91.0325,1.755689,350.8015901964213,9.243963774692602,15.03297857307656,-9999,445394.183781125,1.93768310546875,0.3565673828125,-0.0593109130859375,1,0.94,5
2019-10-23 10:35:48.359 -0400,408,1571841347.305617,33.99910591958633,-81.02426609325732,91.0325,1.755689,350.8015901964213,9.243963774692602,15.03297857307656,-9999,445394.223765125,1.528671264648438,0.2547607421875,-0.061187744140625,1,0.94,5
2019-10-23 10:35:48.399 -0400,409,1571841347.305617,33.99910591958633,-81.02426609325732,91.0325,1.755689,350.8015901964213,9.243963774692602,15.03297857307656,-9999,445394.263750375,1.222396850585938,0.2214202880859375,-0.087921142578125,1,0.94,5
2019-10-23 10:35:48.440 -0400,410,1571841347.305617,33.99910591958633,-81.02426609325732,91.0325,1.755689,350.8015901964213,9.243963774692602,15.03297857307656,-9999,445394.3037353751,0.98095703125,0.2942962646484375,-0.0354766845703125,1,0.94,5
2019-10-23 10:35:48.480 -0400,411,1571841347.305617,33.99910591958633,-81.02426609325732,91.0325,1.755689,350.8015901964213,9.243963774692602,15.03297857307656,-9999,445394.343720375,0.7854156494140625,0.3281097412109375,-0.0054779052734375,1,0.94,5
2019-10-23 10:35:48.520 -0400,412,1571841348.255615,33.99910967629209,-81.02428280057588,91.13168,1.33898,348.666505691978,9.600916323747724,14.72904071679338,-9999,445394.383704375,0.6933746337890625,0.2728271484375,0.017547607421875,1,0.94,5
2019-10-23 10:35:48.560 -0400,413,1571841348.255615,33.99910967629209,-81.02428280057588,91.13168,1.33898,348.666505691978,9.600916323747724,14.72904071679338,-9999,445394.423689375,0.5735015869140625,0.15570068359375,0.0323638916015625,1,0.94,5
2019-10-23 10:35:48.599 -0400,414,1571841348.255615,33.99910967629209,-81.02428280057588,91.13168,1.33898,348.666505691978,9.600916323747724,14.72904071679338,-9999,445394.463674375,0.440155029296875,0.0997161865234375,0.017852783203125,1,0.94,5
2019-10-23 10:35:48.639 -0400,415,1571841348.255615,33.99910967629209,-81.02428280057588,91.13168,1.33898,348.666505691978,9.600916323747724,14.72904071679338,-9999,445394.503658375,0.3921966552734375,0.1104736328125,-0.0074920654296875,1,0.94,5
2019-10-23 10:35:48.679 -0400,416,1571841348.255615,33.99910967629209,-81.02428280057588,91.13168,1.33898,348.666505691978,9.600916323747724,14.72904071679338,-9999,445394.543643375,0.386322021484375,0.1740875244140625,-0.022247314453125,1,0.94,5
2019-10-23 10:35:48.730 -0400,417,1571841348.255615,33.99910967629209,-81.02428280057588,91.13168,1.33898,348.666505691978,9.600916323747724,14.72904071679338,-9999,445394.583628375,0.412689208984375,0.2852325439453125,-0.142181396484375,1,0.94,5
2019-10-23 10:35:48.759 -0400,418,1571841348.255615,33.99910967629209,-81.02428280057588,91.13168,1.33898,348.666505691978,9.600916323747724,14.72904071679338,-9999,445394.623612375,0.5773162841796875,0.51092529296875,-0.2766265869140625,1,0.94,5
2019-10-23 10:35:48.799 -0400,419,1571841348.255615,33.99910967629209,-81.02428280057588,91.13168,1.33898,348.666505691978,9.600916323747724,14.72904071679338,-9999,445394.663597375,1.084121704101562,0.6788787841796875,-0.2923126220703125,1,0.94,5
2019-10-23 10:35:48.839 -0400,420,1571841348.255615,33.99910967629209,-81.02428280057588,91.13168,1.33898,348.666505691978,9.600916323747724,14.72904071679338,-9999,445394.703582375,1.66363525390625,0.822021484375,-0.3863983154296875,1,0.94,5
2019-10-23 10:35:48.879 -0400,421,1571841348.255615,33.99910967629209,-81.02428280057588,91.13168,1.33898,348.666505691978,9.600916323747724,14.72904071679338,-9999,445394.743567375,1.740615844726562,0.8182220458984375,-0.6324615478515625,1,0.94,5
2019-10-23 10:35:48.919 -0400,422,1571841348.255615,33.99910967629209,-81.02428280057588,91.13168,1.33898,348.666505691978,9.600916323747724,14.72904071679338,-9999,445394.783551375,1.630355834960938,0.6968536376953125,-0.5472564697265625,1,0.94,5
2019-10-23 10:35:48.959 -0400,423,1571841348.255615,33.99910967629209,-81.02428280057588,91.13168,1.33898,348.666505691978,9.600916323747724,14.72904071679338,-9999,445394.823536375,1.323654174804688,0.5947113037109375,-0.5014801025390625,1,0.94,5
2019-10-23 10:35:48.999 -0400,424,1571841348.255615,33.99910967629209,-81.02428280057588,91.13168,1.33898,348.666505691978,9.600916323747724,14.72904071679338,-9999,445394.8635213751,0.9786224365234375,0.573486328125,-0.439056396484375,1,0.94,5
2019-10-23 10:35:49.039 -0400,425,1571841348.255615,33.99910967629209,-81.02428280057588,91.13168,1.33898,348.666505691978,9.600916323747724,14.72904071679338,-9999,445394.903505375,0.723907470703125,0.426849365234375,-0.354644775390625,1,0.94,5
2019-10-23 10:35:49.079 -0400,426,1571841348.255615,33.99910967629209,-81.02428280057588,91.13168,1.33898,348.666505691978,9.600916323747724,14.72904071679338,-9999,445394.943490375,0.6108245849609375,0.4183349609375,-0.2863006591796875,1,0.94,5
2019-10-23 10:35:49.119 -0400,427,1571841348.255615,33.99910967629209,-81.02428280057588,91.13168,1.33898,348.666505691978,9.600916323747724,14.72904071679338,-9999,445394.983475375,0.4412994384765625,0.4324493408203125,-0.2523956298828125,1,0.94,5
2019-10-23 10:35:49.159 -0400,428,1571841348.255615,33.99910967629209,-81.02428280057588,91.13168,1.33898,348.666505691978,9.600916323747724,14.72904071679338,-9999,445395.023460375,0.475341796875,0.5689239501953125,-0.2406768798828125,1,0.94,5
2019-10-23 10:35:49.203 -0400,429,1571841348.255615,33.99910967629209,-81.02428280057588,91.13168,1.33898,348.666505691978,9.600916323747724,14.72904071679338,-9999,445395.063444375,0.6443023681640625,0.693603515625,-0.2689361572265625,1,0.94,5
2019-10-23 10:35:49.243 -0400,430,1571841348.255615,33.99910967629209,-81.02428280057588,91.13168,1.33898,348.666505691978,9.600916323747724,14.72904071679338,-9999,445395.103429375,0.854644775390625,0.6655120849609375,-0.202606201171875,1,0.94,5
2019-10-23 10:35:49.280 -0400,431,1571841348.255615,33.99910967629209,-81.02428280057588,91.13168,1.33898,348.666505691978,9.600916323747724,14.72904071679338,-9999,445395.143414375,1.475845336914062,0.7600555419921875,-0.246185302734375,1,0.94,5
2019-10-23 10:35:49.319 -0400,432,1571841348.255615,33.99910967629209,-81.02428280057588,91.13168,1.33898,348.666505691978,9.600916323747724,14.72904071679338,-9999,445395.1833983751,1.715057373046875,0.847869873046875,-0.3149261474609375,1,0.94,5
2019-10-23 10:35:49.359 -0400,433,1571841348.255615,33.99910967629209,-81.02428280057588,91.13168,1.33898,348.666505691978,9.600916323747724,14.72904071679338,-9999,445395.223383375,1.585723876953125,0.495513916015625,-0.199432373046875,1,0.94,5
2019-10-23 10:35:49.399 -0400,434,1571841348.255615,33.99910967629209,-81.02428280057588,91.13168,1.33898,348.666505691978,9.600916323747724,14.72904071679338,-9999,445395.2633684167,1.733978271484375,0.400146484375,-0.2477569580078125,1,0.94,5
2019-10-23 10:35:49.444 -0400,435,1571841348.255615,33.99910967629209,-81.02428280057588,91.13168,1.33898,348.666505691978,9.600916323747724,14.72904071679338,-9999,445395.3033534167,1.26971435546875,0.40478515625,-0.130859375,1,0.94,5
2019-10-23 10:35:49.479 -0400,436,1571841349.205388,33.99911366689676,-81.02429667547976,91.21152,1.179529,331.9723477144271,9.822759056169044,14.31932910821067,-9999,445395.3433374167,1.1861572265625,0.3521881103515625,-0.1295928955078125,1,0.94,5
2019-10-23 10:35:49.519 -0400,437,1571841349.205388,33.99911366689676,-81.02429667547976,91.21152,1.179529,331.9723477144271,9.822759056169044,14.31932910821067,-9999,445395.3833224167,0.802886962890625,0.2606048583984375,-0.084564208984375,1,0.94,5
2019-10-23 10:35:49.559 -0400,438,1571841349.205388,33.99911366689676,-81.02429667547976,91.21152,1.179529,331.9723477144271,9.822759056169044,14.31932910821067,-9999,445395.4233074167,0.68597412109375,0.2590179443359375,-0.058624267578125,1,0.94,5
2019-10-23 10:35:49.599 -0400,439,1571841349.205388,33.99911366689676,-81.02429667547976,91.21152,1.179529,331.9723477144271,9.822759056169044,14.31932910821067,-9999,445395.4632914167,0.5802764892578125,0.195770263671875,-0.05816650390625,1,0.94,5
2019-10-23 10:35:49.639 -0400,440,1571841349.205388,33.99911366689676,-81.02429667547976,91.21152,1.179529,331.9723477144271,9.822759056169044,14.31932910821067,-9999,445395.5032764167,0.56201171875,0.1577911376953125,-0.0474395751953125,1,0.94,5
2019-10-23 10:35:49.679 -0400,441,1571841349.205388,33.99911366689676,-81.02429667547976,91.21152,1.179529,331.9723477144271,9.822759056169044,14.31932910821067,-9999,445395.5432614167,0.5682373046875,0.1564483642578125,-0.0510101318359375,1,0.94,5
2019-10-23 10:35:49.721 -0400,442,1571841349.205388,33.99911366689676,-81.02429667547976,91.21152,1.179529,331.9723477144271,9.822759056169044,14.31932910821067,-9999,445395.5832454167,0.5732269287109375,0.2238616943359375,-0.057373046875,1,0.94,5
2019-10-23 10:35:49.759 -0400,443,1571841349.205388,33.99911366689676,-81.02429667547976,91.21152,1.179529,331.9723477144271,9.822759056169044,14.31932910821067,-9999,445395.6232304167,0.730926513671875,0.44488525390625,-0.1807098388671875,1,0.94,5
2019-10-23 10:35:49.799 -0400,444,1571841349.205388,33.99911366689676,-81.02429667547976,91.21152,1.179529,331.9723477144271,9.822759056169044,14.31932910821067,-9999,445395.6632154167,1.105682373046875,0.5618896484375,-0.244598388671875,1,0.94,5
2019-10-23 10:35:49.839 -0400,445,1571841349.205388,33.99911366689676,-81.02429667547976,91.21152,1.179529,331.9723477144271,9.822759056169044,14.31932910821067,-9999,445395.7032004167,1.446929931640625,0.8250885009765625,-0.2597808837890625,1,0.94,5
2019-10-23 10:35:49.879 -0400,446,1571841349.205388,33.99911366689676,-81.02429667547976,91.21152,1.179529,331.9723477144271,9.822759056169044,14.31932910821067,-9999,445395.7431844167,1.36846923828125,0.7697296142578125,-0.3678436279296875,1,0.94,5
2019-10-23 10:35:49.919 -0400,447,1571841349.205388,33.99911366689676,-81.02429667547976,91.21152,1.179529,331.9723477144271,9.822759056169044,14.31932910821067,-9999,445395.7831694167,1.465850830078125,0.8008270263671875,-0.3685302734375,1,0.94,5
2019-10-23 10:35:49.959 -0400,448,1571841349.205388,33.99911366689676,-81.02429667547976,91.21152,1.179529,331.9723477144271,9.822759056169044,14.31932910821067,-9999,445395.8231544167,1.279937744140625,0.7067108154296875,-0.354278564453125,1,0.94,5
2019-10-23 10:35:49.999 -0400,449,1571841349.205388,33.99911366689676,-81.02429667547976,91.21152,1.179529,331.9723477144271,9.822759056169044,14.31932910821067,-9999,445395.8631384167,0.9662017822265625,0.7139129638671875,-0.3542938232421875,1,0.94,5
2019-10-23 10:35:50.039 -0400,450,1571841349.205388,33.99911366689676,-81.02429667547976,91.21152,1.179529,331.9723477144271,9.822759056169044,14.31932910821067,-9999,445395.9031234167,0.791015625,0.559356689453125,-0.2307281494140625,1,0.94,5
2019-10-23 10:35:50.079 -0400,451,1571841349.205388,33.99911366689676,-81.02429667547976,91.21152,1.179529,331.9723477144271,9.822759056169044,14.31932910821067,-9999,445395.9431084167,0.680755615234375,0.4712677001953125,-0.200408935546875,1,0.94,5
2019-10-23 10:35:50.119 -0400,452,1571841349.205388,33.99911366689676,-81.02429667547976,91.21152,1.179529,331.9723477144271,9.822759056169044,14.31932910821067,-9999,445395.9830934167,0.589874267578125,0.4884185791015625,-0.1347503662109375,1,0.94,5
2019-10-23 10:35:50.159 -0400,453,1571841349.205388,33.99911366689676,-81.02429667547976,91.21152,1.179529,331.9723477144271,9.822759056169044,14.31932910821067,-9999,445396.0230774167,0.6506195068359375,0.5926971435546875,-0.1856842041015625,1,0.94,5
2019-10-23 10:35:50.200 -0400,454,1571841349.205388,33.99911366689676,-81.02429667547976,91.21152,1.179529,331.9723477144271,9.822759056169044,14.31932910821067,-9999,445396.0630624167,0.75738525390625,0.70391845703125,-0.1824493408203125,1,0.94,5
2019-10-23 10:35:50.239 -0400,455,1571841349.205388,33.99911366689676,-81.02429667547976,91.21152,1.179529,331.9723477144271,9.822759056169044,14.31932910821067,-9999,445396.1030474167,0.7352752685546875,0.6480712890625,-0.1363372802734375,1,0.94,5
2019-10-23 10:35:50.279 -0400,456,1571841349.205388,33.99911366689676,-81.02429667547976,91.21152,1.179529,331.9723477144271,9.822759056169044,14.31932910821067,-9999,445396.1430324167,1.062850952148438,0.7498321533203125,-0.2531585693359375,1,0.94,5
2019-10-23 10:35:50.319 -0400,457,1571841349.205388,33.99911366689676,-81.02429667547976,91.21152,1.179529,331.9723477144271,9.822759056169044,14.31932910821067,-9999,445396.1830164167,1.802154541015625,0.905609130859375,-0.3557891845703125,1,0.94,5
2019-10-23 10:35:50.359 -0400,458,1571841350.155385,33.9991231283563,-81.02428844685427,91.27696,1.179529,338.8658508784624,15.88530369948284,21.91184415778462,-9999,445396.2230014167,1.457794189453125,0.5377349853515625,-0.2332305908203125,1,0.94,5
2019-10-23 10:35:50.399 -0400,459,1571841350.155385,33.9991231283563,-81.02428844685427,91.27696,1.179529,338.8658508784624,15.88530369948284,21.91184415778462,-9999,445396.262986875,1.614364624023438,0.4024200439453125,-0.258697509765625,1,0.94,5
2019-10-23 10:35:50.439 -0400,460,1571841350.155385,33.9991231283563,-81.02428844685427,91.27696,1.179529,338.8658508784624,15.88530369948284,21.91184415778462,-9999,445396.3029708751,1.823745727539062,0.30340576171875,-0.217620849609375,1,0.94,5
2019-10-23 10:35:50.479 -0400,461,1571841350.155385,33.9991231283563,-81.02428844685427,91.27696,1.179529,338.8658508784624,15.88530369948284,21.91184415778462,-9999,445396.342955875,1.386428833007812,0.336212158203125,-0.1844482421875,1,0.94,5
2019-10-23 10:35:50.519 -0400,462,1571841350.155385,33.9991231283563,-81.02428844685427,91.27696,1.179529,338.8658508784624,15.88530369948284,21.91184415778462,-9999,445396.382940875,1.028945922851562,0.22747802734375,-0.11700439453125,1,0.94,5
2019-10-23 10:35:50.559 -0400,463,1571841350.155385,33.9991231283563,-81.02428844685427,91.27696,1.179529,338.8658508784624,15.88530369948284,21.91184415778462,-9999,445396.422925875,0.797271728515625,0.2063446044921875,-0.0780487060546875,1,0.94,5
2019-10-23 10:35:50.599 -0400,464,1571841350.155385,33.9991231283563,-81.02428844685427,91.27696,1.179529,338.8658508784624,15.88530369948284,21.91184415778462,-9999,445396.462909875,0.6533660888671875,0.086090087890625,-0.06658935546875,1,0.94,5
2019-10-23 10:35:50.639 -0400,465,1571841350.155385,33.9991231283563,-81.02428844685427,91.27696,1.179529,338.8658508784624,15.88530369948284,21.91184415778462,-9999,445396.502894875,0.45452880859375,-0.0542449951171875,-0.0538177490234375,1,0.94,5
2019-10-23 10:35:50.688 -0400,466,1571841350.155385,33.9991231283563,-81.02428844685427,91.27696,1.179529,338.8658508784624,15.88530369948284,21.91184415778462,-9999,445396.5428798751,0.450958251953125,0.0392608642578125,-0.0599365234375,1,0.94,5
2019-10-23 10:35:50.719 -0400,467,1571841350.155385,33.9991231283563,-81.02428844685427,91.27696,1.179529,338.8658508784624,15.88530369948284,21.91184415778462,-9999,445396.582863875,0.420013427734375,0.0418243408203125,-0.0430450439453125,1,0.94,5
2019-10-23 10:35:50.759 -0400,468,1571841350.155385,33.9991231283563,-81.02428844685427,91.27696,1.179529,338.8658508784624,15.88530369948284,21.91184415778462,-9999,445396.622848875,0.297821044921875,0.097900390625,-0.0123138427734375,1,0.94,5
2019-10-23 10:35:50.799 -0400,469,1571841350.155385,33.9991231283563,-81.02428844685427,91.27696,1.179529,338.8658508784624,15.88530369948284,21.91184415778462,-9999,445396.662833875,0.4643707275390625,0.47491455078125,-0.11260986328125,1,0.94,5
2019-10-23 10:35:50.839 -0400,470,1571841350.155385,33.9991231283563,-81.02428844685427,91.27696,1.179529,338.8658508784624,15.88530369948284,21.91184415778462,-9999,445396.702818875,1.1649169921875,0.9073028564453125,-0.1465911865234375,1,0.94,5
2019-10-23 10:35:50.879 -0400,471,1571841350.155385,33.9991231283563,-81.02428844685427,91.27696,1.179529,338.8658508784624,15.88530369948284,21.91184415778462,-9999,445396.742802875,1.806976318359375,0.7090301513671875,-0.22088623046875,1,0.94,5
2019-10-23 10:35:50.919 -0400,472,1571841350.155385,33.9991231283563,-81.02428844685427,91.27696,1.179529,338.8658508784624,15.88530369948284,21.91184415778462,-9999,445396.782787875,1.938018798828125,0.953460693359375,-0.5523681640625,1,0.94,5
2019-10-23 10:35:50.959 -0400,473,1571841350.155385,33.9991231283563,-81.02428844685427,91.27696,1.179529,338.8658508784624,15.88530369948284,21.91184415778462,-9999,445396.822772875,1.704864501953125,0.766693115234375,-0.2708587646484375,1,0.94,5
2019-10-23 10:35:50.999 -0400,474,1571841350.155385,33.9991231283563,-81.02428844685427,91.27696,1.179529,338.8658508784624,15.88530369948284,21.91184415778462,-9999,445396.8627568751,1.330795288085938,0.6209869384765625,-0.1466522216796875,1,0.94,5
2019-10-23 10:35:51.038 -0400,475,1571841350.155385,33.9991231283563,-81.02428844685427,91.27696,1.179529,338.8658508784624,15.88530369948284,21.91184415778462,-9999,445396.902741875,0.991363525390625,0.62060546875,-0.24896240234375,1,0.94,5
2019-10-23 10:35:51.079 -0400,476,1571841350.155385,33.9991231283563,-81.02428844685427,91.27696,1.179529,338.8658508784624,15.88530369948284,21.91184415778462,-9999,445396.942726875,0.7039794921875,0.5289459228515625,-0.2360076904296875,1,0.94,5
2019-10-23 10:35:51.118 -0400,477,1571841350.155385,33.9991231283563,-81.02428844685427,91.27696,1.179529,338.8658508784624,15.88530369948284,21.91184415778462,-9999,445396.9827118751,0.6393280029296875,0.46533203125,-0.2313079833984375,1,0.94,5
2019-10-23 10:35:51.158 -0400,478,1571841350.155385,33.9991231283563,-81.02428844685427,91.27696,1.179529,338.8658508784624,15.88530369948284,21.91184415778462,-9999,445397.022695875,0.45977783203125,0.4916839599609375,-0.2167816162109375,1,0.94,5
2019-10-23 10:35:51.198 -0400,479,1571841350.155385,33.9991231283563,-81.02428844685427,91.27696,1.179529,338.8658508784624,15.88530369948284,21.91184415778462,-9999,445397.062680875,0.432342529296875,0.5390167236328125,-0.2131195068359375,1,0.94,5
2019-10-23 10:35:51.239 -0400,480,1571841350.155385,33.9991231283563,-81.02428844685427,91.27696,1.179529,338.8658508784624,15.88530369948284,21.91184415778462,-9999,445397.102665875,0.5554962158203125,0.559112548828125,-0.1907806396484375,1,0.94,5
2019-10-23 10:35:51.279 -0400,481,1571841350.155385,33.9991231283563,-81.02428844685427,91.27696,1.179529,338.8658508784624,15.88530369948284,21.91184415778462,-9999,445397.142650875,0.76318359375,0.6190948486328125,-0.179656982421875,1,0.94,5
2019-10-23 10:35:51.319 -0400,482,1571841350.155385,33.9991231283563,-81.02428844685427,91.27696,1.179529,338.8658508784624,15.88530369948284,21.91184415778462,-9999,445397.182634875,1.392196655273438,0.7041473388671875,-0.203338623046875,1,0.94,5
2019-10-23 10:35:51.358 -0400,483,1571841350.155385,33.9991231283563,-81.02428844685427,91.27696,1.179529,338.8658508784624,15.88530369948284,21.91184415778462,-9999,445397.222619875,1.933380126953125,0.7395782470703125,-0.164093017578125,1,0.94,5
2019-10-23 10:35:51.399 -0400,484,1571841351.105841,33.99912079745595,-81.02429523049038,91.34032,1.109077,334.6779830078126,18.45381141630226,24.33403117459911,-9999,445397.262604875,1.553314208984375,0.5676422119140625,-0.203643798828125,1,0.94,5
2019-10-23 10:35:51.440 -0400,485,1571841351.105841,33.99912079745595,-81.02429523049038,91.34032,1.109077,334.6779830078126,18.45381141630226,24.33403117459911,-9999,445397.3025885,1.609756469726562,0.443359375,-0.17132568359375,1,0.94,5
2019-10-23 10:35:51.478 -0400,486,1571841351.105841,33.99912079745595,-81.02429523049038,91.34032,1.109077,334.6779830078126,18.45381141630226,24.33403117459911,-9999,445397.3425735,1.703277587890625,0.5335235595703125,-0.21990966796875,1,0.94,5
2019-10-23 10:35:51.518 -0400,487,1571841351.105841,33.99912079745595,-81.02429523049038,91.34032,1.109077,334.6779830078126,18.45381141630226,24.33403117459911,-9999,445397.3825585,1.330841064453125,0.398468017578125,-0.0623931884765625,1,0.94,5
2019-10-23 10:35:51.558 -0400,488,1571841351.105841,33.99912079745595,-81.02429523049038,91.34032,1.109077,334.6779830078126,18.45381141630226,24.33403117459911,-9999,445397.4225435,1.10443115234375,0.2354736328125,-0.0203857421875,1,0.94,5
2019-10-23 10:35:51.598 -0400,489,1571841351.105841,33.99912079745595,-81.02429523049038,91.34032,1.109077,334.6779830078126,18.45381141630226,24.33403117459911,-9999,445397.4625275,0.8587493896484375,0.2023468017578125,-0.0213165283203125,1,0.94,5
2019-10-23 10:35:51.638 -0400,490,1571841351.105841,33.99912079745595,-81.02429523049038,91.34032,1.109077,334.6779830078126,18.45381141630226,24.33403117459911,-9999,445397.5025125,0.7242584228515625,0.132293701171875,-0.0138397216796875,1,0.94,5
2019-10-23 10:35:51.678 -0400,491,1571841351.105841,33.99912079745595,-81.02429523049038,91.34032,1.109077,334.6779830078126,18.45381141630226,24.33403117459911,-9999,445397.5424975,0.5999603271484375,0.0681610107421875,-0.0342254638671875,1,0.94,5
2019-10-23 10:35:51.719 -0400,492,1571841351.105841,33.99912079745595,-81.02429523049038,91.34032,1.109077,334.6779830078126,18.45381141630226,24.33403117459911,-9999,445397.5824825,0.6169586181640625,0.0069427490234375,-0.03460693359375,1,0.94,5
2019-10-23 10:35:51.758 -0400,493,1571841351.105841,33.99912079745595,-81.02429523049038,91.34032,1.109077,334.6779830078126,18.45381141630226,24.33403117459911,-9999,445397.6224665,0.5511322021484375,0.065216064453125,-0.0356292724609375,1,0.94,5
2019-10-23 10:35:51.798 -0400,494,1571841351.105841,33.99912079745595,-81.02429523049038,91.34032,1.109077,334.6779830078126,18.45381141630226,24.33403117459911,-9999,445397.6624515,0.4621429443359375,0.1457672119140625,-0.113922119140625,1,0.94,5
2019-10-23 10:35:51.838 -0400,495,1571841351.105841,33.99912079745595,-81.02429523049038,91.34032,1.109077,334.6779830078126,18.45381141630226,24.33403117459911,-9999,445397.7024365001,0.69207763671875,0.4209442138671875,-0.1577911376953125,1,0.94,5
2019-10-23 10:35:51.878 -0400,496,1571841351.105841,33.99912079745595,-81.02429523049038,91.34032,1.109077,334.6779830078126,18.45381141630226,24.33403117459911,-9999,445397.7424205,1.127517700195312,0.7858734130859375,-0.234893798828125,1,0.94,5
2019-10-23 10:35:51.918 -0400,497,1571841351.105841,33.99912079745595,-81.02429523049038,91.34032,1.109077,334.6779830078126,18.45381141630226,24.33403117459911,-9999,445397.7824055,1.695999145507812,0.8693695068359375,-0.311767578125,1,0.94,5
2019-10-23 10:35:51.958 -0400,498,1571841351.105841,33.99912079745595,-81.02429523049038,91.34032,1.109077,334.6779830078126,18.45381141630226,24.33403117459911,-9999,445397.8223905,1.795455932617188,0.9390869140625,-0.577728271484375,1,0.94,5
2019-10-23 10:35:51.998 -0400,499,1571841351.105841,33.99912079745595,-81.02429523049038,91.34032,1.109077,334.6779830078126,18.45381141630226,24.33403117459911,-9999,445397.8623755,1.451797485351562,0.723846435546875,-0.4283294677734375,1,0.94,5
2019-10-23 10:35:52.038 -0400,500,1571841351.105841,33.99912079745595,-81.02429523049038,91.34032,1.109077,334.6779830078126,18.45381141630226,24.33403117459911,-9999,445397.9023595,1.152587890625,0.6348419189453125,-0.284576416015625,1,0.94,5
2019-10-23 10:35:52.078 -0400,501,1571841351.105841,33.99912079745595,-81.02429523049038,91.34032,1.109077,334.6779830078126,18.45381141630226,24.33403117459911,-9999,445397.9423445,0.80535888671875,0.5164031982421875,-0.251373291015625,1,0.94,5
2019-10-23 10:35:52.118 -0400,502,1571841351.105841,33.99912079745595,-81.02429523049038,91.34032,1.109077,334.6779830078126,18.45381141630226,24.33403117459911,-9999,445397.9823295,0.5478668212890625,0.4611968994140625,-0.270843505859375,1,0.94,5
2019-10-23 10:35:52.158 -0400,503,1571841351.105841,33.99912079745595,-81.02429523049038,91.34032,1.109077,334.6779830078126,18.45381141630226,24.33403117459911,-9999,445398.0223145,0.42340087890625,0.43988037109375,-0.2136688232421875,1,0.94,5
2019-10-23 10:35:52.198 -0400,504,1571841351.105841,33.99912079745595,-81.02429523049038,91.34032,1.109077,334.6779830078126,18.45381141630226,24.33403117459911,-9999,445398.0622985,0.4645233154296875,0.5418548583984375,-0.1977691650390625,1,0.94,5
2019-10-23 10:35:52.238 -0400,505,1571841351.105841,33.99912079745595,-81.02429523049038,91.34032,1.109077,334.6779830078126,18.45381141630226,24.33403117459911,-9999,445398.1022835,0.53192138671875,0.633056640625,-0.1757049560546875,1,0.94,5
2019-10-23 10:35:52.278 -0400,506,1571841351.105841,33.99912079745595,-81.02429523049038,91.34032,1.109077,334.6779830078126,18.45381141630226,24.33403117459911,-9999,445398.1422685,0.7730255126953125,0.6908721923828125,-0.14080810546875,1,0.94,5
2019-10-23 10:35:52.318 -0400,507,1571841352.055839,33.99911927669129,-81.02430086356546,91.38915,1.109077,328.3023865309914,13.88535614768826,17.72704450762426,-9999,445398.1822535,1.3699951171875,0.8175506591796875,-0.14007568359375,1,0.94,5
2019-10-23 10:35:52.358 -0400,508,1571841352.055839,33.99911927669129,-81.02430086356546,91.38915,1.109077,328.3023865309914,13.88535614768826,17.72704450762426,-9999,445398.2222375,1.974838256835938,0.9403228759765625,-0.24041748046875,1,0.94,5
2019-10-23 10:35:52.398 -0400,509,1571841352.055839,33.99911927669129,-81.02430086356546,91.38915,1.109077,328.3023865309914,13.88535614768826,17.72704450762426,-9999,445398.2622225001,1.58087158203125,0.48419189453125,-0.22308349609375,1,0.94,5
2019-10-23 10:35:52.438 -0400,510,1571841352.055839,33.99911927669129,-81.02430086356546,91.38915,1.109077,328.3023865309914,13.88535614768826,17.72704450762426,-9999,445398.3022077917,1.56884765625,0.4661865234375,-0.3033905029296875,1,0.94,5
2019-10-23 10:35:52.478 -0400,511,1571841352.055839,33.99911927669129,-81.02430086356546,91.38915,1.109077,328.3023865309914,13.88535614768826,17.72704450762426,-9999,445398.3421917917,1.582168579101562,0.518951416015625,-0.2819366455078125,1,0.94,5
2019-10-23 10:35:52.518 -0400,512,1571841352.055839,33.99911927669129,-81.02430086356546,91.38915,1.109077,328.3023865309914,13.88535614768826,17.72704450762426,-9999,445398.3821767917,1.137954711914062,0.421295166015625,-0.225341796875,1,0.94,5
2019-10-23 10:35:52.559 -0400,513,1571841352.055839,33.99911927669129,-81.02430086356546,91.38915,1.109077,328.3023865309914,13.88535614768826,17.72704450762426,-9999,445398.4221617917,0.82183837890625,0.2357025146484375,-0.1989288330078125,1,0.94,5
2019-10-23 10:35:52.598 -0400,514,1571841352.055839,33.99911927669129,-81.02430086356546,91.38915,1.109077,328.3023865309914,13.88535614768826,17.72704450762426,-9999,445398.4621467917,0.70196533203125,0.1812591552734375,-0.16925048828125,1,0.94,5
2019-10-23 10:35:52.638 -0400,515,1571841352.055839,33.99911927669129,-81.02430086356546,91.38915,1.109077,328.3023865309914,13.88535614768826,17.72704450762426,-9999,445398.5021307917,0.5546722412109375,0.1209259033203125,-0.1385955810546875,1,0.94,5
2019-10-23 10:35:52.678 -0400,516,1571841352.055839,33.99911927669129,-81.02430086356546,91.38915,1.109077,328.3023865309914,13.88535614768826,17.72704450762426,-9999,445398.5421157917,0.4900970458984375,0.0488433837890625,-0.12750244140625,1,0.94,5
2019-10-23 10:35:52.718 -0400,517,1571841352.055839,33.99911927669129,-81.02430086356546,91.38915,1.109077,328.3023865309914,13.88535614768826,17.72704450762426,-9999,445398.5821007917,0.586029052734375,0.0281524658203125,-0.1396942138671875,1,0.94,5
2019-10-23 10:35:52.758 -0400,518,1571841352.055839,33.99911927669129,-81.02430086356546,91.38915,1.109077,328.3023865309914,13.88535614768826,17.72704450762426,-9999,445398.6220857917,0.683837890625,0.123748779296875,-0.1377410888671875,1,0.94,5
2019-10-23 10:35:52.798 -0400,519,1571841352.055839,33.99911927669129,-81.02430086356546,91.38915,1.109077,328.3023865309914,13.88535614768826,17.72704450762426,-9999,445398.6620697917,0.81243896484375,0.2617645263671875,-0.140167236328125,1,0.94,5
2019-10-23 10:35:52.838 -0400,520,1571841352.055839,33.99911927669129,-81.02430086356546,91.38915,1.109077,328.3023865309914,13.88535614768826,17.72704450762426,-9999,445398.7020547917,1.312332153320312,0.813873291015625,-0.2459259033203125,1,0.94,5
2019-10-23 10:35:52.878 -0400,521,1571841352.055839,33.99911927669129,-81.02430086356546,91.38915,1.109077,328.3023865309914,13.88535614768826,17.72704450762426,-9999,445398.7420397917,1.786529541015625,0.74365234375,-0.2655487060546875,1,0.94,5
2019-10-23 10:35:52.918 -0400,522,1571841352.055839,33.99911927669129,-81.02430086356546,91.38915,1.109077,328.3023865309914,13.88535614768826,17.72704450762426,-9999,445398.7820247917,1.965347290039062,0.5667877197265625,-0.6309661865234375,1,0.94,5
2019-10-23 10:35:52.958 -0400,523,1571841352.055839,33.99911927669129,-81.02430086356546,91.38915,1.109077,328.3023865309914,13.88535614768826,17.72704450762426,-9999,445398.8220087917,1.707077026367188,0.590972900390625,-0.54156494140625,1,0.94,5
2019-10-23 10:35:52.998 -0400,524,1571841352.055839,33.99911927669129,-81.02430086356546,91.38915,1.109077,328.3023865309914,13.88535614768826,17.72704450762426,-9999,445398.8619937917,1.304977416992188,0.656158447265625,-0.2914276123046875,1,0.94,5
2019-10-23 10:35:53.038 -0400,525,1571841352.055839,33.99911927669129,-81.02430086356546,91.38915,1.109077,328.3023865309914,13.88535614768826,17.72704450762426,-9999,445398.9019787917,0.9907684326171875,0.6685028076171875,-0.2014312744140625,1,0.94,5
2019-10-23 10:35:53.078 -0400,526,1571841352.055839,33.99911927669129,-81.02430086356546,91.38915,1.109077,328.3023865309914,13.88535614768826,17.72704450762426,-9999,445398.9419627917,0.74725341796875,0.5530853271484375,-0.22186279296875,1,0.94,5
2019-10-23 10:35:53.118 -0400,527,1571841352.055839,33.99911927669129,-81.02430086356546,91.38915,1.109077,328.3023865309914,13.88535614768826,17.72704450762426,-9999,445398.9819477917,0.7157745361328125,0.5811309814453125,-0.2169189453125,1,0.94,5
2019-10-23 10:35:53.158 -0400,528,1571841352.055839,33.99911927669129,-81.02430086356546,91.38915,1.109077,328.3023865309914,13.88535614768826,17.72704450762426,-9999,445399.0219327917,0.7233428955078125,0.73858642578125,-0.259521484375,1,0.94,5
2019-10-23 10:35:53.198 -0400,529,1571841353.005217,33.99910684526759,-81.02427959007468,91.40735,1.109077,342.483624621208,11.14227277303332,13.69837779126881,-9999,445399.0619177917,0.8024749755859375,0.902801513671875,-0.2282562255859375,1,0.94,5
2019-10-23 10:35:53.238 -0400,530,1571841353.005217,33.99910684526759,-81.02427959007468,91.40735,1.109077,342.483624621208,11.14227277303332,13.69837779126881,-9999,445399.1019017917,1.055694580078125,0.9278564453125,-0.193695068359375,1,0.94,5
2019-10-23 10:35:53.278 -0400,531,1571841353.005217,33.99910684526759,-81.02427959007468,91.40735,1.109077,342.483624621208,11.14227277303332,13.69837779126881,-9999,445399.1418867917,1.198043823242188,0.868865966796875,-0.3488616943359375,1,0.94,5
