loggingTime(txt),accelerometerTimestamp_sinceReboot(s),accelerometerAccelerationX(G),accelerometerAccelerationY(G),accelerometerAccelerationZ(G),batteryState,batteryLevel
2020-05-16 12:34:47.708 -0400,10624.482562125,-0.072906494140625,0.41839599609375,-1.279541015625,1,0.97
2020-05-16 12:34:47.763 -0400,10624.552535125,0.0417327880859375,0.089263916015625,-0.9706573486328125,1,0.97
2020-05-16 12:34:47.833 -0400,10624.622508125,-0.051422119140625,-0.0717926025390625,-0.6811065673828125,1,0.97
2020-05-16 12:34:47.903 -0400,10624.692481125,0.00042724609375,-0.0736846923828125,-0.5814666748046875,1,0.97
2020-05-16 12:34:47.973 -0400,10624.762454125,-0.0807037353515625,-0.02142333984375,-0.687408447265625,1,0.97
2020-05-16 12:34:48.043 -0400,10624.832427125,-0.0024261474609375,0.059539794921875,-0.9703521728515625,1,0.97
2020-05-16 12:34:48.113 -0400,10624.902400125,0.0845947265625,0.04217529296875,-0.9196319580078125,1,0.97
2020-05-16 12:34:48.183 -0400,10624.972374125,0.652374267578125,0.2109222412109375,-0.8390350341796875,1,0.97
2020-05-16 12:34:48.253 -0400,10625.04234854167,0.8372039794921875,0.47906494140625,-0.68341064453125,1,0.97
2020-05-16 12:34:48.323 -0400,10625.11232154167,1.1263427734375,0.4908905029296875,-0.35797119140625,1,0.97
2020-05-16 12:34:48.393 -0400,10625.18229454167,1.078536987304688,0.55206298828125,-0.0760040283203125,1,0.97
2020-05-16 12:34:48.463 -0400,10625.25226754167,0.7177276611328125,0.9126129150390625,-0.135406494140625,1,0.97
2020-05-16 12:34:48.533 -0400,10625.32224054167,0.9316558837890625,0.9068145751953125,-0.117340087890625,1,0.97
2020-05-16 12:34:48.603 -0400,10625.39221354167,0.9318084716796875,0.6796417236328125,0.0801544189453125,1,0.97
2020-05-16 12:34:48.703 -0400,10625.49217454167,0.5735626220703125,0.8764495849609375,0.1375579833984375,1,0.97
2020-05-16 12:34:48.778 -0400,10625.55714954167,1.328201293945312,1.46832275390625,-0.061798095703125,1,0.97
2020-05-16 12:34:48.833 -0400,10625.62212454167,2.3270263671875,0.959381103515625,-0.23480224609375,1,0.97
2020-05-16 12:34:48.897 -0400,10625.68709954167,1.91156005859375,0.647125244140625,-0.1791534423828125,1,0.97
2020-05-16 12:34:48.962 -0400,10625.75207454167,1.186065673828125,0.6129150390625,-0.1066131591796875,1,0.97
2020-05-16 12:34:49.027 -0400,10625.81704954167,0.744384765625,0.3795928955078125,0.0088653564453125,1,0.97
2020-05-16 12:34:49.092 -0400,10625.88202454167,0.39874267578125,0.4044647216796875,-0.0078277587890625,1,0.97
2020-05-16 12:34:49.157 -0400,10625.94699954167,-0.0585479736328125,0.5613250732421875,-0.0052947998046875,1,0.97
2020-05-16 12:34:49.229 -0400,10626.01197466667,-0.3984222412109375,0.5233306884765625,-0.0087127685546875,1,0.97
2020-05-16 12:34:49.287 -0400,10626.07694966667,-0.919281005859375,0.5970001220703125,-0.1739349365234375,1,0.97
2020-05-16 12:34:49.352 -0400,10626.14192466667,-0.9359588623046875,0.7171783447265625,-0.189483642578125,1,0.97
2020-05-16 12:34:49.417 -0400,10626.20689966667,-0.82855224609375,0.6408843994140625,-0.2950897216796875,1,0.97
2020-05-16 12:34:49.482 -0400,10626.27187466667,-0.669952392578125,0.523681640625,-0.3857421875,1,0.97
2020-05-16 12:34:49.547 -0400,10626.33684966667,-0.50469970703125,-0.0359649658203125,-0.301055908203125,1,0.97
2020-05-16 12:34:49.612 -0400,10626.40182466667,-0.62152099609375,0.2705535888671875,-0.2428436279296875,1,0.97
2020-05-16 12:34:49.677 -0400,10626.46679966667,-0.7841796875,0.1852569580078125,-0.299957275390625,1,0.97
2020-05-16 12:34:49.742 -0400,10626.53177466667,-0.9562530517578125,0.29083251953125,-0.4615020751953125,1,0.97
2020-05-16 12:34:49.807 -0400,10626.59674966667,-1.508712768554688,0.4230804443359375,-0.4905548095703125,1,0.97
2020-05-16 12:34:49.873 -0400,10626.66172466667,-1.748504638671875,0.318328857421875,0.07794189453125,1,0.97
2020-05-16 12:34:49.937 -0400,10626.72669966667,-1.299957275390625,0.592559814453125,-0.3197174072265625,1,0.97
2020-05-16 12:34:50.002 -0400,10626.79167366667,-1.020034790039062,0.4391632080078125,0.078399658203125,1,0.97
2020-05-16 12:34:50.067 -0400,10626.85664866667,-0.451324462890625,0.1686553955078125,-0.075958251953125,1,0.97
2020-05-16 12:34:50.132 -0400,10626.92162366667,-0.387847900390625,0.2825775146484375,-0.151611328125,1,0.97
2020-05-16 12:34:50.197 -0400,10626.98659866667,-0.6837615966796875,0.233154296875,-0.0103759765625,1,0.97
2020-05-16 12:34:50.262 -0400,10627.051573375,-0.983123779296875,0.20556640625,-0.425140380859375,1,0.97
2020-05-16 12:34:50.334 -0400,10627.116548375,-0.98822021484375,0.1077728271484375,-0.8635406494140625,1,0.97
2020-05-16 12:34:50.392 -0400,10627.181523375,-1.218231201171875,0.1441802978515625,-0.429229736328125,1,0.97
2020-05-16 12:34:50.457 -0400,10627.246498375,-1.10687255859375,0.3144989013671875,-0.6606903076171875,1,0.97
2020-05-16 12:34:50.522 -0400,10627.311473375,-0.906158447265625,0.3833465576171875,-0.49920654296875,1,0.97
2020-05-16 12:34:50.587 -0400,10627.376448375,-0.4923095703125,0.0042266845703125,-0.0657196044921875,1,0.97
2020-05-16 12:34:50.652 -0400,10627.441423375,-0.17572021484375,-0.0784912109375,-0.1912078857421875,1,0.97
2020-05-16 12:34:50.717 -0400,10627.506398375,-0.3063507080078125,-0.0969085693359375,-0.484588623046875,1,0.97
2020-05-16 12:34:50.782 -0400,10627.571373375,-0.412994384765625,0.035675048828125,-0.703460693359375,1,0.97
2020-05-16 12:34:50.911 -0400,10627.701323375,-0.6456756591796875,-1.273223876953125,-1.172882080078125,1,0.97
2020-05-16 12:34:50.982 -0400,10627.771296375,-1.266769409179688,-0.4649810791015625,-0.5601806640625,1,0.97
2020-05-16 12:34:51.052 -0400,10627.841269375,-0.647430419921875,-0.36480712890625,-0.47705078125,1,0.97
2020-05-16 12:34:51.122 -0400,10627.911242375,-0.4842681884765625,-0.2990570068359375,-0.2712554931640625,1,0.97
2020-05-16 12:34:51.192 -0400,10627.981215375,-0.43328857421875,-0.194732666015625,-0.2615203857421875,1,0.97
2020-05-16 12:34:51.262 -0400,10628.051186875,-0.6527252197265625,0.1801910400390625,-0.55487060546875,1,0.97
2020-05-16 12:34:51.333 -0400,10628.121159875,-1.174728393554688,0.8516998291015625,-0.4853363037109375,1,0.97
2020-05-16 12:34:51.402 -0400,10628.191132875,-1.13006591796875,0.4445037841796875,-0.762542724609375,1,0.97
2020-05-16 12:34:51.472 -0400,10628.261105875,-1.130264282226562,-0.22674560546875,-1.152359008789062,1,0.97
2020-05-16 12:34:51.542 -0400,10628.331079875,-1.201522827148438,0.7115478515625,-0.834136962890625,1,0.97
2020-05-16 12:34:51.612 -0400,10628.401052875,-0.7294769287109375,0.15264892578125,-0.4721221923828125,1,0.97
2020-05-16 12:34:51.681 -0400,10628.471025875,-0.41876220703125,-0.0849456787109375,-0.34429931640625,1,0.97
2020-05-16 12:34:51.751 -0400,10628.540998875,-0.510009765625,0.136932373046875,-0.1356201171875,1,0.97
2020-05-16 12:34:51.831 -0400,10628.610971875,-0.6510162353515625,0.338775634765625,-0.45245361328125,1,0.97
2020-05-16 12:34:51.892 -0400,10628.680944875,-0.9461822509765625,0.37347412109375,-0.7588653564453125,1,0.97
2020-05-16 12:34:51.962 -0400,10628.750917875,-1.230224609375,0.0646209716796875,-0.651336669921875,1,0.97
2020-05-16 12:34:52.031 -0400,10628.820890875,-1.412994384765625,0.263916015625,-0.414825439453125,1,0.97
2020-05-16 12:34:52.101 -0400,10628.890863875,-0.9705963134765625,0.246124267578125,-0.5811004638671875,1,0.97
2020-05-16 12:34:52.171 -0400,10628.960836875,-0.5050811767578125,0.269561767578125,-0.34613037109375,1,0.97
2020-05-16 12:34:52.292 -0400,10629.08079291667,-0.2154998779296875,0.2712860107421875,-0.1209259033203125,1,0.97
2020-05-16 12:34:52.357 -0400,10629.14576791667,-0.1825103759765625,-0.1303253173828125,-0.301055908203125,1,0.97
2020-05-16 12:34:52.421 -0400,10629.21074291667,-0.3681182861328125,-0.3467559814453125,-0.4299774169921875,1,0.97
2020-05-16 12:34:52.498 -0400,10629.27571791667,-0.7093048095703125,-0.07269287109375,-0.59844970703125,1,0.97
2020-05-16 12:34:52.551 -0400,10629.34069291667,-0.9569549560546875,-0.956817626953125,-0.912994384765625,1,0.97
2020-05-16 12:34:52.616 -0400,10629.40566791667,-1.680038452148438,-1.23004150390625,-1.050827026367188,1,0.97
2020-05-16 12:34:52.681 -0400,10629.47064291667,-0.7259063720703125,-0.5958404541015625,-0.8159332275390625,1,0.97
2020-05-16 12:34:52.746 -0400,10629.53561791667,-0.43524169921875,-0.230133056640625,-0.4467010498046875,1,0.97
2020-05-16 12:34:52.811 -0400,10629.60059291667,-0.4385833740234375,-0.169342041015625,-0.0601959228515625,1,0.97
2020-05-16 12:34:52.876 -0400,10629.66556791667,-0.4600982666015625,-0.114898681640625,-0.0272979736328125,1,0.97
2020-05-16 12:34:52.941 -0400,10629.73054291667,-0.662200927734375,-0.199737548828125,-0.00933837890625,1,0.97
2020-05-16 12:34:53.006 -0400,10629.79551791667,-1.115310668945312,-0.10626220703125,-0.1810302734375,1,0.97
2020-05-16 12:34:53.071 -0400,10629.86049291667,-1.540863037109375,0.2349090576171875,-0.03338623046875,1,0.97
2020-05-16 12:34:53.136 -0400,10629.92546791667,-1.008468627929688,1.1185302734375,-0.1483917236328125,1,0.97
2020-05-16 12:34:53.201 -0400,10629.99044291667,-0.3474578857421875,1.310928344726562,-0.59112548828125,1,0.97
2020-05-16 12:34:53.266 -0400,10630.055417875,-0.000640869140625,1.0908203125,-0.56292724609375,1,0.97
2020-05-16 12:34:53.331 -0400,10630.120392875,-0.0446624755859375,0.5435028076171875,-0.4390869140625,1,0.97
2020-05-16 12:34:53.396 -0400,10630.185367875,-0.0629119873046875,0.3755950927734375,-0.3627777099609375,1,0.97
2020-05-16 12:34:53.461 -0400,10630.250342875,-0.0388031005859375,0.654052734375,-0.496429443359375,1,0.97
2020-05-16 12:34:53.526 -0400,10630.315317875,0.20050048828125,0.603057861328125,-0.435516357421875,1,0.97
2020-05-16 12:34:53.591 -0400,10630.380291875,0.681182861328125,1.109390258789062,-0.7021484375,1,0.97
2020-05-16 12:34:53.655 -0400,10630.445266875,1.026199340820312,1.057266235351562,-0.838226318359375,1,0.97
2020-05-16 12:34:53.721 -0400,10630.510241875,1.002578735351562,0.962982177734375,-0.724029541015625,1,0.97
2020-05-16 12:34:53.785 -0400,10630.575216875,0.6160888671875,0.6349029541015625,-0.445220947265625,1,0.97
2020-05-16 12:34:53.851 -0400,10630.640191875,0.338592529296875,0.6190948486328125,-0.3031005859375,1,0.97
2020-05-16 12:34:53.915 -0400,10630.705166875,0.31549072265625,0.6724090576171875,-0.311279296875,1,0.97
2020-05-16 12:34:53.981 -0400,10630.770141875,0.402435302734375,0.7340240478515625,-0.269317626953125,1,0.97
2020-05-16 12:34:54.045 -0400,10630.835116875,0.7380828857421875,0.7494049072265625,-0.278350830078125,1,0.97
2020-05-16 12:34:54.110 -0400,10630.900091875,1.720718383789062,1.018997192382812,-0.3878326416015625,1,0.97
2020-05-16 12:34:54.175 -0400,10630.965066875,2.033981323242188,0.761138916015625,-0.198150634765625,1,0.97
2020-05-16 12:34:54.240 -0400,10631.03004175,1.848480224609375,0.51605224609375,-0.34161376953125,1,0.97
2020-05-16 12:34:54.306 -0400,10631.09501675,1.130325317382812,0.404541015625,-0.210906982421875,1,0.97
2020-05-16 12:34:54.370 -0400,10631.15999175,0.7574005126953125,0.1952667236328125,-0.107574462890625,1,0.97
2020-05-16 12:34:54.435 -0400,10631.22496675,0.466094970703125,0.082611083984375,-0.0857391357421875,1,0.97
2020-05-16 12:34:54.500 -0400,10631.28994175,0.281524658203125,-0.0155029296875,-0.06036376953125,1,0.97
2020-05-16 12:34:54.565 -0400,10631.35491675,0.2072296142578125,0.0731048583984375,-0.0532379150390625,1,0.97
2020-05-16 12:34:54.630 -0400,10631.41989175,0.3966827392578125,0.651611328125,-0.128570556640625,1,0.97
2020-05-16 12:34:54.695 -0400,10631.48486675,0.79449462890625,0.93304443359375,-0.518585205078125,1,0.97
2020-05-16 12:34:54.760 -0400,10631.54984175,0.6971588134765625,0.8306884765625,-0.61358642578125,1,0.97
2020-05-16 12:34:54.825 -0400,10631.61481675,0.7926177978515625,0.9019927978515625,-0.3656158447265625,1,0.97
2020-05-16 12:34:54.890 -0400,10631.67979175,1.503890991210938,0.8714141845703125,-0.242645263671875,1,0.97
2020-05-16 12:34:54.955 -0400,10631.74476675,0.641204833984375,0.4929656982421875,-0.2993316650390625,1,0.97
2020-05-16 12:34:55.020 -0400,10631.80974175,0.4041748046875,0.3716278076171875,-0.199432373046875,1,0.97
2020-05-16 12:34:55.085 -0400,10631.87471675,0.4846954345703125,0.54364013671875,-0.1264801025390625,1,0.97
2020-05-16 12:34:55.150 -0400,10631.93969175,1.72119140625,1.059097290039062,-0.4791259765625,1,0.97
2020-05-16 12:34:55.215 -0400,10632.00466691667,1.6732177734375,0.575531005859375,-0.04022216796875,1,0.97
2020-05-16 12:34:55.280 -0400,10632.06964191667,1.50286865234375,0.1467437744140625,-0.4327545166015625,1,0.97
2020-05-16 12:34:55.345 -0400,10632.13461691667,1.00506591796875,0.4764251708984375,-0.237884521484375,1,0.97
2020-05-16 12:34:55.410 -0400,10632.19959191667,0.65740966796875,0.304534912109375,-0.1675567626953125,1,0.97
2020-05-16 12:34:55.475 -0400,10632.26456691667,0.3781585693359375,0.1279296875,-0.084381103515625,1,0.97
2020-05-16 12:34:55.540 -0400,10632.32954191667,0.43896484375,0.0899810791015625,-0.041717529296875,1,0.97
2020-05-16 12:34:55.605 -0400,10632.39451691667,0.65887451171875,0.280181884765625,0.085113525390625,1,0.97
2020-05-16 12:34:55.670 -0400,10632.45949191667,0.5429229736328125,0.6248626708984375,-0.086456298828125,1,0.97
2020-05-16 12:34:55.735 -0400,10632.52446691667,1.250350952148438,0.732025146484375,-0.2596435546875,1,0.97
2020-05-16 12:34:55.800 -0400,10632.58944191667,1.517608642578125,0.7215118408203125,-0.5766448974609375,1,0.97
2020-05-16 12:34:55.865 -0400,10632.65441691667,1.003707885742188,0.5475921630859375,-0.2941436767578125,1,0.97
2020-05-16 12:34:55.930 -0400,10632.71939191667,0.59564208984375,0.3557891845703125,-0.2658843994140625,1,0.97
2020-05-16 12:34:55.995 -0400,10632.78436691667,0.46588134765625,0.5209503173828125,-0.170013427734375,1,0.97
2020-05-16 12:34:56.060 -0400,10632.84934191667,0.578887939453125,0.52435302734375,-0.2461395263671875,1,0.97
2020-05-16 12:34:56.124 -0400,10632.91431691667,0.7216949462890625,0.6517181396484375,-0.29815673828125,1,0.97
2020-05-16 12:34:56.189 -0400,10632.97929191667,0.71539306640625,0.543731689453125,-0.3134918212890625,1,0.97
2020-05-16 12:34:56.254 -0400,10633.04426675,1.765731811523438,0.7921905517578125,-0.5250396728515625,1,0.97
2020-05-16 12:34:56.320 -0400,10633.10924175,1.415069580078125,0.3551177978515625,-0.0739898681640625,1,0.97
2020-05-16 12:34:56.384 -0400,10633.17421575,1.751632690429688,0.34698486328125,-0.453125,1,0.97
2020-05-16 12:34:56.450 -0400,10633.23919075,1.068115234375,0.459197998046875,-0.169036865234375,1,0.97
2020-05-16 12:34:56.514 -0400,10633.30416575,0.6275787353515625,0.1673431396484375,-0.136749267578125,1,0.97
2020-05-16 12:34:56.580 -0400,10633.36914075,0.4143524169921875,0.168365478515625,-0.0226898193359375,1,0.97
2020-05-16 12:34:56.644 -0400,10633.43411575,0.3889007568359375,0.14892578125,-0.0037384033203125,1,0.97
2020-05-16 12:34:56.710 -0400,10633.49909075,0.5158538818359375,0.2620849609375,0.0522918701171875,1,0.97
2020-05-16 12:34:56.775 -0400,10633.56406575,0.4210357666015625,0.451568603515625,-0.0773773193359375,1,0.97
2020-05-16 12:34:56.839 -0400,10633.62904075,1.414886474609375,0.7369842529296875,-0.2966461181640625,1,0.97
2020-05-16 12:34:56.904 -0400,10633.69401575,1.61810302734375,0.794891357421875,-0.496002197265625,1,0.97
2020-05-16 12:34:56.969 -0400,10633.75899075,1.285598754882812,0.64837646484375,-0.492523193359375,1,0.97
2020-05-16 12:34:57.034 -0400,10633.82396575,1.069686889648438,-0.008575439453125,-0.4608001708984375,1,0.97
2020-05-16 12:34:57.099 -0400,10633.88894075,0.55523681640625,0.4493408203125,-0.3415069580078125,1,0.97
2020-05-16 12:34:57.164 -0400,10633.95391575,0.2842864990234375,0.437225341796875,-0.29791259765625,1,0.97
2020-05-16 12:34:57.229 -0400,10634.01889004167,0.270111083984375,0.51495361328125,-0.3179931640625,1,0.97
2020-05-16 12:34:57.294 -0400,10634.08386504167,0.7499542236328125,0.6638946533203125,-0.4315948486328125,1,0.97
2020-05-16 12:34:57.359 -0400,10634.14884004167,2.765914916992188,1.051773071289062,-0.6904449462890625,1,0.97
2020-05-16 12:34:57.424 -0400,10634.21381504167,1.66741943359375,0.1580352783203125,0.0585174560546875,1,0.97
2020-05-16 12:34:57.489 -0400,10634.27879004167,1.751373291015625,-0.0221099853515625,0.216094970703125,1,0.97
2020-05-16 12:34:57.554 -0400,10634.34376504167,1.0667724609375,0.5565032958984375,0.0562896728515625,1,0.97
2020-05-16 12:34:57.619 -0400,10634.40874004167,0.656036376953125,0.4309539794921875,0.0901336669921875,1,0.97
2020-05-16 12:34:57.684 -0400,10634.47371504167,0.5207672119140625,0.2036590576171875,0.19036865234375,1,0.97
2020-05-16 12:34:57.749 -0400,10634.53869004167,0.3950958251953125,0.0443115234375,0.08782958984375,1,0.97
2020-05-16 12:34:57.814 -0400,10634.60366504167,0.448883056640625,0.1875,-0.0359649658203125,1,0.97
2020-05-16 12:34:57.879 -0400,10634.66864004167,0.5754852294921875,0.385406494140625,-0.0484466552734375,1,0.97
2020-05-16 12:34:57.944 -0400,10634.73361504167,0.7902069091796875,0.503570556640625,-0.187530517578125,1,0.97
2020-05-16 12:34:58.009 -0400,10634.79859004167,2.353836059570312,0.72332763671875,-0.111602783203125,1,0.97
2020-05-16 12:34:58.074 -0400,10634.86356504167,1.39093017578125,0.8140411376953125,-0.6405487060546875,1,0.97
2020-05-16 12:34:58.139 -0400,10634.92854004167,0.9156494140625,0.6815948486328125,-0.2781829833984375,1,0.97
2020-05-16 12:34:58.204 -0400,10634.99351504167,0.9568328857421875,0.7084503173828125,-0.289703369140625,1,0.97
2020-05-16 12:34:58.269 -0400,10635.058490625,0.6508941650390625,0.4818115234375,-0.3477935791015625,1,0.97
2020-05-16 12:34:58.334 -0400,10635.123464625,0.599029541015625,0.6180877685546875,-0.3580780029296875,1,0.97
2020-05-16 12:34:58.399 -0400,10635.188439625,0.68646240234375,0.507293701171875,-0.3600006103515625,1,0.97
2020-05-16 12:34:58.464 -0400,10635.253414625,0.8232269287109375,0.449737548828125,-0.394378662109375,1,0.97
2020-05-16 12:34:58.529 -0400,10635.318389625,1.069671630859375,0.386444091796875,-0.3260955810546875,1,0.97
2020-05-16 12:34:58.594 -0400,10635.383364625,1.846969604492188,0.535797119140625,-0.3708953857421875,1,0.97
2020-05-16 12:34:58.659 -0400,10635.448339625,1.06085205078125,0.2498931884765625,-0.1707763671875,1,0.97
2020-05-16 12:34:58.724 -0400,10635.513314625,1.404327392578125,0.37738037109375,-0.1397705078125,1,0.97
2020-05-16 12:34:58.789 -0400,10635.578289625,0.903289794921875,0.3412017822265625,-0.0841217041015625,1,0.97
2020-05-16 12:34:58.854 -0400,10635.643264625,0.6645660400390625,0.278839111328125,-0.0725555419921875,1,0.97
2020-05-16 12:34:58.919 -0400,10635.708239625,0.6254425048828125,0.238677978515625,-0.02532958984375,1,0.97
2020-05-16 12:34:58.983 -0400,10635.773214625,0.462646484375,0.1999359130859375,-0.048065185546875,1,0.97
2020-05-16 12:34:59.049 -0400,10635.838189625,0.5021820068359375,0.251983642578125,-0.0626373291015625,1,0.97
2020-05-16 12:34:59.113 -0400,10635.903164625,1.229293823242188,0.3701934814453125,-0.024993896484375,1,0.97
2020-05-16 12:34:59.178 -0400,10635.968139625,1.578506469726562,1.0615234375,-0.2906341552734375,1,0.97
2020-05-16 12:34:59.243 -0400,10636.033114375,0.865875244140625,0.572418212890625,-0.6674041748046875,1,0.97
2020-05-16 12:34:59.309 -0400,10636.098089375,1.511932373046875,-0.0598602294921875,-0.0096435546875,1,0.97
2020-05-16 12:34:59.373 -0400,10636.163064375,0.8681793212890625,0.2397003173828125,-0.168731689453125,1,0.97
2020-05-16 12:34:59.439 -0400,10636.228039375,0.646759033203125,0.52716064453125,-0.2477874755859375,1,0.97
2020-05-16 12:34:59.503 -0400,10636.293014375,0.6190032958984375,0.6365966796875,-0.299774169921875,1,0.97
2020-05-16 12:34:59.568 -0400,10636.357989375,0.6245269775390625,0.39813232421875,-0.2258758544921875,1,0.97
2020-05-16 12:34:59.633 -0400,10636.422964375,0.6930694580078125,0.3224029541015625,-0.2530517578125,1,0.97
2020-05-16 12:34:59.699 -0400,10636.487939375,0.7752227783203125,0.3171844482421875,-0.3566436767578125,1,0.97
2020-05-16 12:34:59.763 -0400,10636.552914375,1.258041381835938,0.4143218994140625,-0.4990386962890625,1,0.97
2020-05-16 12:34:59.828 -0400,10636.617889375,1.487091064453125,0.48187255859375,-0.326751708984375,1,0.97
2020-05-16 12:34:59.894 -0400,10636.682864375,1.780609130859375,0.290985107421875,-0.139404296875,1,0.97
2020-05-16 12:34:59.958 -0400,10636.747839375,1.0035400390625,0.1999664306640625,-0.0169525146484375,1,0.97
2020-05-16 12:35:00.023 -0400,10636.812814375,0.6272430419921875,0.3951568603515625,-0.0807647705078125,1,0.97
2020-05-16 12:35:00.088 -0400,10636.877789375,0.620819091796875,0.3918304443359375,0.0159149169921875,1,0.97
2020-05-16 12:35:00.153 -0400,10636.942764375,0.7546539306640625,0.2605133056640625,0.0654296875,1,0.97
2020-05-16 12:35:00.218 -0400,10637.00773925,0.687744140625,0.191314697265625,0.063201904296875,1,0.97
2020-05-16 12:35:00.294 -0400,10637.07271425,0.7400970458984375,0.256927490234375,0.0765838623046875,1,0.97
2020-05-16 12:35:00.348 -0400,10637.13768925,1.346282958984375,0.6888275146484375,-0.149932861328125,1,0.97
2020-05-16 12:35:00.413 -0400,10637.20266425,0.8274078369140625,0.804443359375,-0.898162841796875,1,0.97
2020-05-16 12:35:00.478 -0400,10637.26763925,1.473739624023438,0.3353118896484375,-0.2436981201171875,1,0.97
2020-05-16 12:35:00.543 -0400,10637.33261425,0.945709228515625,0.3407745361328125,-0.432769775390625,1,0.97
2020-05-16 12:35:00.608 -0400,10637.39758925,0.614410400390625,0.450103759765625,-0.504730224609375,1,0.97
2020-05-16 12:35:00.673 -0400,10637.46256425,0.5936126708984375,0.4985809326171875,-0.44287109375,1,0.97
2020-05-16 12:35:00.738 -0400,10637.52753925,0.6380157470703125,0.3541107177734375,-0.3107147216796875,1,0.97
2020-05-16 12:35:00.803 -0400,10637.59251425,0.6134185791015625,0.3419647216796875,-0.3100738525390625,1,0.97
2020-05-16 12:35:00.868 -0400,10637.65748925,0.8308868408203125,0.4554290771484375,-0.3453521728515625,1,0.97
2020-05-16 12:35:00.933 -0400,10637.72246425,1.113677978515625,0.4479827880859375,-0.27587890625,1,0.97
2020-05-16 12:35:00.998 -0400,10637.78743925,2.16522216796875,0.6325531005859375,-0.328582763671875,1,0.97
2020-05-16 12:35:01.063 -0400,10637.85241425,1.44757080078125,0.3917083740234375,-0.26220703125,1,0.97
2020-05-16 12:35:01.128 -0400,10637.91738925,0.99615478515625,0.310211181640625,-0.1013946533203125,1,0.97
2020-05-16 12:35:01.193 -0400,10637.98236425,0.747955322265625,0.2837371826171875,-0.067657470703125,1,0.97
2020-05-16 12:35:01.258 -0400,10638.04733966667,0.651458740234375,0.285064697265625,-0.01513671875,1,0.97
2020-05-16 12:35:01.323 -0400,10638.11231466667,0.600250244140625,0.2193450927734375,0.0171051025390625,1,0.97
2020-05-16 12:35:01.388 -0400,10638.17728966667,0.63812255859375,0.26776123046875,-0.015533447265625,1,0.97
2020-05-16 12:35:01.452 -0400,10638.24226466667,1.1171875,0.374176025390625,0.035675048828125,1,0.97
2020-05-16 12:35:01.518 -0400,10638.30723966667,1.139999389648438,0.6709747314453125,-0.347869873046875,1,0.97
2020-05-16 12:35:01.582 -0400,10638.37221466667,1.371536254882812,0.8029327392578125,-0.4878082275390625,1,0.97
2020-05-16 12:35:01.648 -0400,10638.43718966667,1.2869873046875,0.2305908203125,-0.169097900390625,1,0.97
2020-05-16 12:35:01.713 -0400,10638.50216466667,0.9273834228515625,0.231109619140625,-0.40869140625,1,0.97
2020-05-16 12:35:01.778 -0400,10638.56713966667,0.7313079833984375,0.5546875,-0.470672607421875,1,0.97
2020-05-16 12:35:01.843 -0400,10638.63211466667,0.573028564453125,0.5435638427734375,-0.4393463134765625,1,0.97
2020-05-16 12:35:01.908 -0400,10638.69708966667,0.733795166015625,0.4075927734375,-0.3618316650390625,1,0.97
2020-05-16 12:35:01.972 -0400,10638.76206466667,0.9895172119140625,0.2586517333984375,-0.251800537109375,1,0.97
2020-05-16 12:35:02.038 -0400,10638.82703966667,1.211517333984375,0.3056182861328125,-0.1964263916015625,1,0.97
2020-05-16 12:35:02.102 -0400,10638.89201466667,1.409149169921875,0.4358367919921875,-0.2133331298828125,1,0.97
2020-05-16 12:35:02.167 -0400,10638.95698966667,1.196578979492188,0.4210968017578125,-0.091156005859375,1,0.97
2020-05-16 12:35:02.232 -0400,10639.0219645,0.771148681640625,0.272552490234375,-0.040863037109375,1,0.97
2020-05-16 12:35:02.297 -0400,10639.0869395,0.88836669921875,0.411468505859375,-0.0430755615234375,1,0.97
2020-05-16 12:35:02.362 -0400,10639.1519145,0.70989990234375,0.2878570556640625,0.0297088623046875,1,0.97
2020-05-16 12:35:02.427 -0400,10639.2168895,0.544403076171875,0.2827606201171875,-0.0171661376953125,1,0.97
2020-05-16 12:35:02.492 -0400,10639.2818645,0.7376251220703125,0.3542022705078125,-0.0274810791015625,1,0.97
2020-05-16 12:35:02.557 -0400,10639.3468395,1.149169921875,0.4033355712890625,-0.060302734375,1,0.97
2020-05-16 12:35:02.622 -0400,10639.4118145,1.431243896484375,0.3549957275390625,-0.0173492431640625,1,0.97
2020-05-16 12:35:02.687 -0400,10639.4767895,1.10546875,0.4112396240234375,-0.16796875,1,0.97
2020-05-16 12:35:02.752 -0400,10639.5417645,1.028732299804688,0.56951904296875,-0.382720947265625,1,0.97
2020-05-16 12:35:02.817 -0400,10639.6067395,0.99761962890625,0.2941741943359375,-0.1371002197265625,1,0.97
2020-05-16 12:35:02.882 -0400,10639.6717145,1.012054443359375,0.813385009765625,-0.3513641357421875,1,0.97
2020-05-16 12:35:02.947 -0400,10639.7366895,0.844970703125,0.576263427734375,-0.3133087158203125,1,0.97
2020-05-16 12:35:03.012 -0400,10639.8016645,0.793243408203125,0.4963226318359375,-0.1441650390625,1,0.97
2020-05-16 12:35:03.077 -0400,10639.8666395,0.6468658447265625,0.3836669921875,-0.1029815673828125,1,0.97
2020-05-16 12:35:03.142 -0400,10639.9316145,0.710052490234375,0.49169921875,-0.139190673828125,1,0.97
2020-05-16 12:35:03.207 -0400,10639.9965895,0.876129150390625,0.5967254638671875,-0.1938934326171875,1,0.97
2020-05-16 12:35:03.272 -0400,10640.061564625,1.151260375976562,0.5785980224609375,-0.1127777099609375,1,0.97
2020-05-16 12:35:03.338 -0400,10640.126539625,1.016952514648438,0.3607330322265625,-0.135284423828125,1,0.97
2020-05-16 12:35:03.402 -0400,10640.191514625,1.121551513671875,0.42767333984375,-0.10595703125,1,0.97
2020-05-16 12:35:03.467 -0400,10640.256489625,1.186019897460938,0.3805999755859375,-0.04034423828125,1,0.97
2020-05-16 12:35:03.532 -0400,10640.321464625,1.013839721679688,0.3270263671875,-0.0311431884765625,1,0.97
2020-05-16 12:35:03.597 -0400,10640.386439625,0.8368072509765625,0.3462066650390625,-0.0502471923828125,1,0.97
2020-05-16 12:35:03.662 -0400,10640.451414625,0.7306365966796875,0.294891357421875,-0.05047607421875,1,0.97
2020-05-16 12:35:03.727 -0400,10640.516389625,0.6152801513671875,0.25482177734375,-0.0189208984375,1,0.97
2020-05-16 12:35:03.792 -0400,10640.581364625,0.589385986328125,0.3166656494140625,0.01239013671875,1,0.97
2020-05-16 12:35:03.857 -0400,10640.646339625,0.818328857421875,0.399261474609375,0.0433197021484375,1,0.97
2020-05-16 12:35:03.922 -0400,10640.711314625,1.317108154296875,0.5496673583984375,0.0728759765625,1,0.97
2020-05-16 12:35:03.987 -0400,10640.776289625,1.37896728515625,0.73748779296875,-0.1118621826171875,1,0.97
2020-05-16 12:35:04.052 -0400,10640.841264625,1.188247680664062,0.500396728515625,-0.21392822265625,1,0.97
2020-05-16 12:35:04.117 -0400,10640.906238625,0.975250244140625,0.4269256591796875,-0.0188446044921875,1,0.97
2020-05-16 12:35:04.182 -0400,10640.971213625,0.7906951904296875,0.415618896484375,-0.105987548828125,1,0.97
2020-05-16 12:35:04.247 -0400,10641.03618841667,0.8060302734375,0.457366943359375,-0.1398773193359375,1,0.97
2020-05-16 12:35:04.313 -0400,10641.10116341667,0.8182830810546875,0.3610076904296875,-0.068359375,1,0.97
2020-05-16 12:35:04.377 -0400,10641.16613841667,0.7924957275390625,0.33843994140625,-0.0558624267578125,1,0.97
2020-05-16 12:35:04.441 -0400,10641.23111341667,0.7462310791015625,0.408782958984375,-0.05169677734375,1,0.97
2020-05-16 12:35:04.506 -0400,10641.29608841667,0.7849273681640625,0.4608001708984375,-0.0761566162109375,1,0.97
2020-05-16 12:35:04.571 -0400,10641.36106341667,1.048782348632812,0.5350189208984375,-0.1470489501953125,1,0.97
2020-05-16 12:35:04.636 -0400,10641.42603841667,1.245025634765625,0.429779052734375,-0.009552001953125,1,0.97
2020-05-16 12:35:04.701 -0400,10641.49101341667,1.010818481445312,0.378662109375,-0.09814453125,1,0.97
2020-05-16 12:35:04.766 -0400,10641.55598841667,0.8851165771484375,0.4468536376953125,-0.068603515625,1,0.97
2020-05-16 12:35:04.831 -0400,10641.62096341667,0.712249755859375,0.3987274169921875,-0.030914306640625,1,0.97
2020-05-16 12:35:04.896 -0400,10641.68593841667,0.8786163330078125,0.352783203125,0.026702880859375,1,0.97
2020-05-16 12:35:04.961 -0400,10641.75091341667,0.92974853515625,0.3495330810546875,0.0119781494140625,1,0.97
2020-05-16 12:35:05.026 -0400,10641.81588841667,0.870147705078125,0.418701171875,-0.0544586181640625,1,0.97
2020-05-16 12:35:05.091 -0400,10641.88086341667,0.9419708251953125,0.4071807861328125,-0.05908203125,1,0.97
2020-05-16 12:35:05.156 -0400,10641.94583841667,0.9304046630859375,0.3818359375,-0.1154022216796875,1,0.97
2020-05-16 12:35:05.221 -0400,10642.01081329167,1.142440795898438,0.4029693603515625,-0.176513671875,1,0.97
2020-05-16 12:35:05.286 -0400,10642.07578829167,2.014816284179688,0.601837158203125,-0.9312286376953125,1,0.97
2020-05-16 12:35:05.351 -0400,10642.14076329167,1.352310180664062,-0.1160430908203125,-1.824264526367188,1,0.97
2020-05-16 12:35:05.416 -0400,10642.20573829167,1.198883056640625,0.0836334228515625,0.16375732421875,1,0.97
2020-05-16 12:35:05.481 -0400,10642.27071329167,0.6947479248046875,0.5132598876953125,0.2282257080078125,1,0.97
2020-05-16 12:35:05.546 -0400,10642.33568829167,0.25897216796875,0.4740753173828125,0.126373291015625,1,0.97
2020-05-16 12:35:05.611 -0400,10642.40066329167,0.003936767578125,0.535247802734375,-0.2172088623046875,1,0.97
2020-05-16 12:35:05.676 -0400,10642.46563829167,0.12469482421875,0.4705047607421875,-0.1965789794921875,1,0.97
2020-05-16 12:35:05.741 -0400,10642.53061329167,0.5016632080078125,0.618194580078125,-0.4875640869140625,1,0.97
2020-05-16 12:35:05.806 -0400,10642.59558829167,0.7446136474609375,0.4696807861328125,-0.638397216796875,1,0.97
2020-05-16 12:35:05.871 -0400,10642.66056229167,0.919189453125,0.4066314697265625,-0.829254150390625,1,0.97
2020-05-16 12:35:05.936 -0400,10642.72553729167,1.070037841796875,0.42779541015625,-0.6064300537109375,1,0.97
2020-05-16 12:35:06.001 -0400,10642.79051229167,1.276275634765625,0.532989501953125,-0.5301513671875,1,0.97
2020-05-16 12:35:06.066 -0400,10642.85548729167,1.15899658203125,0.3890380859375,-0.382476806640625,1,0.97
2020-05-16 12:35:06.131 -0400,10642.92046229167,0.9829254150390625,0.3432769775390625,-0.381561279296875,1,0.97
2020-05-16 12:35:06.196 -0400,10642.98543729167,0.92919921875,0.3550567626953125,-0.3403778076171875,1,0.97
2020-05-16 12:35:06.261 -0400,10643.050412625,0.88671875,0.3338623046875,-0.28668212890625,1,0.97
2020-05-16 12:35:06.326 -0400,10643.115387625,0.8805084228515625,0.36407470703125,-0.2806396484375,1,0.97
2020-05-16 12:35:06.391 -0400,10643.180362625,1.082901000976562,0.518035888671875,-0.28680419921875,1,0.97
2020-05-16 12:35:06.456 -0400,10643.245337625,1.343063354492188,0.4717559814453125,-0.2070159912109375,1,0.97
2020-05-16 12:35:06.521 -0400,10643.310312625,0.950836181640625,0.3946533203125,-0.303863525390625,1,0.97
2020-05-16 12:35:06.586 -0400,10643.375287625,0.5228729248046875,0.242889404296875,-0.222137451171875,1,0.97
2020-05-16 12:35:06.651 -0400,10643.440262625,0.3533172607421875,0.392791748046875,-0.256439208984375,1,0.97
2020-05-16 12:35:06.716 -0400,10643.505237625,0.6880645751953125,0.521942138671875,-0.1717376708984375,1,0.97
2020-05-16 12:35:06.781 -0400,10643.570212625,0.952392578125,0.4318084716796875,-0.25042724609375,1,0.97
2020-05-16 12:35:06.846 -0400,10643.635187625,1.054061889648438,0.4329833984375,-0.3049468994140625,1,0.97
2020-05-16 12:35:06.910 -0400,10643.700162625,1.015396118164062,0.37664794921875,-0.3542938232421875,1,0.97
2020-05-16 12:35:06.975 -0400,10643.765137625,0.9655914306640625,0.34149169921875,-0.2769012451171875,1,0.97
2020-05-16 12:35:07.040 -0400,10643.830111625,0.8690032958984375,0.3182373046875,-0.2755279541015625,1,0.97
2020-05-16 12:35:07.105 -0400,10643.895086625,0.837890625,0.345184326171875,-0.2089691162109375,1,0.97
2020-05-16 12:35:07.170 -0400,10643.960061625,0.9341278076171875,0.377716064453125,-0.051361083984375,1,0.97
2020-05-16 12:35:07.235 -0400,10644.025036,0.792327880859375,0.526092529296875,-0.03729248046875,1,0.97
2020-05-16 12:35:07.300 -0400,10644.090011,0.78070068359375,0.5265350341796875,-0.1026611328125,1,0.97
2020-05-16 12:35:07.366 -0400,10644.154986,0.74676513671875,0.5311279296875,-0.0987701416015625,1,0.97
2020-05-16 12:35:07.430 -0400,10644.219961,0.9920501708984375,0.572113037109375,-0.1166534423828125,1,0.97
2020-05-16 12:35:07.495 -0400,10644.284936,1.132736206054688,0.55413818359375,-0.127716064453125,1,0.97
2020-05-16 12:35:07.560 -0400,10644.349911,0.938018798828125,0.546966552734375,-0.19171142578125,1,0.97
2020-05-16 12:35:07.626 -0400,10644.414886,0.8680267333984375,0.4843902587890625,-0.2075347900390625,1,0.97
2020-05-16 12:35:07.690 -0400,10644.479861,0.62921142578125,0.3176422119140625,-0.170318603515625,1,0.97
2020-05-16 12:35:07.755 -0400,10644.544836,0.6666107177734375,0.44342041015625,-0.2088775634765625,1,0.97
2020-05-16 12:35:07.820 -0400,10644.609811,0.7702789306640625,0.49700927734375,-0.1170654296875,1,0.97
2020-05-16 12:35:07.885 -0400,10644.674786,0.9532928466796875,0.7050323486328125,-0.221466064453125,1,0.97
2020-05-16 12:35:07.950 -0400,10644.739761,0.999755859375,0.6486053466796875,-0.3474273681640625,1,0.97
2020-05-16 12:35:08.015 -0400,10644.804735,0.464874267578125,0.425140380859375,-0.4840240478515625,1,0.97
2020-05-16 12:35:08.080 -0400,10644.86971,0.436492919921875,0.749786376953125,-0.5503082275390625,1,0.97
2020-05-16 12:35:08.145 -0400,10644.934685,1.394195556640625,0.7332763671875,-0.3111572265625,1,0.97
2020-05-16 12:35:08.210 -0400,10644.99966,1.663162231445312,0.6983642578125,-0.3718109130859375,1,0.97
2020-05-16 12:35:08.275 -0400,10645.064635125,1.143569946289062,0.4827880859375,-0.396820068359375,1,0.97
2020-05-16 12:35:08.340 -0400,10645.129610125,0.6834869384765625,0.2874603271484375,-0.25482177734375,1,0.97
2020-05-16 12:35:08.405 -0400,10645.194585125,0.5574798583984375,0.119140625,-0.005706787109375,1,0.97
2020-05-16 12:35:08.470 -0400,10645.259560125,0.51458740234375,0.044769287109375,0.21746826171875,1,0.97
2020-05-16 12:35:08.535 -0400,10645.324535125,0.527801513671875,0.1342926025390625,0.0798797607421875,1,0.97
2020-05-16 12:35:08.600 -0400,10645.389510125,0.6300201416015625,0.3529205322265625,-0.0094146728515625,1,0.97
2020-05-16 12:35:08.665 -0400,10645.454485125,1.285964965820312,0.972686767578125,-0.4799652099609375,1,0.97
2020-05-16 12:35:08.730 -0400,10645.519460125,1.634384155273438,1.330154418945312,-0.5270233154296875,1,0.97
2020-05-16 12:35:08.795 -0400,10645.584435125,0.402252197265625,0.7731475830078125,-0.56842041015625,1,0.97
2020-05-16 12:35:08.860 -0400,10645.649409125,-0.4056549072265625,0.734832763671875,-0.9329681396484375,1,0.97
2020-05-16 12:35:08.925 -0400,10645.714384125,1.653945922851562,0.4779052734375,0.0228729248046875,1,0.97
2020-05-16 12:35:08.990 -0400,10645.779359125,1.500900268554688,0.936859130859375,0.34686279296875,1,0.97
2020-05-16 12:35:09.055 -0400,10645.844334125,1.087982177734375,0.3621978759765625,0.31402587890625,1,0.97
2020-05-16 12:35:09.120 -0400,10645.909309125,0.8663177490234375,0.270751953125,0.11944580078125,1,0.97
2020-05-16 12:35:09.185 -0400,10645.974284125,0.596038818359375,0.41033935546875,0.0881805419921875,1,0.97
2020-05-16 12:35:09.250 -0400,10646.039259125,0.7139129638671875,0.5721588134765625,-0.077056884765625,1,0.97
2020-05-16 12:35:09.315 -0400,10646.104234125,0.7125244140625,0.6832275390625,-0.0961151123046875,1,0.97
2020-05-16 12:35:09.380 -0400,10646.169209125,0.805816650390625,0.7712249755859375,-0.10968017578125,1,0.97
2020-05-16 12:35:09.445 -0400,10646.234184125,0.8292236328125,0.7778167724609375,-0.3248443603515625,1,0.97
2020-05-16 12:35:09.509 -0400,10646.299159125,0.83038330078125,0.7489166259765625,-0.18133544921875,1,0.97
2020-05-16 12:35:09.574 -0400,10646.364133125,0.618377685546875,0.9117889404296875,-0.418182373046875,1,0.97
2020-05-16 12:35:09.640 -0400,10646.429108125,0.5719146728515625,1.236404418945312,-0.5549468994140625,1,0.97
2020-05-16 12:35:09.705 -0400,10646.494083125,0.7818145751953125,1.101608276367188,-0.45947265625,1,0.97
2020-05-16 12:35:09.769 -0400,10646.559058125,0.70111083984375,0.7494659423828125,-0.109161376953125,1,0.97
2020-05-16 12:35:09.834 -0400,10646.624033125,0.877960205078125,0.5281524658203125,0.078826904296875,1,0.97
2020-05-16 12:35:09.899 -0400,10646.689008125,0.8294219970703125,0.26153564453125,0.1097259521484375,1,0.97
2020-05-16 12:35:09.965 -0400,10646.753983125,0.689971923828125,0.262176513671875,-0.0614776611328125,1,0.97
2020-05-16 12:35:10.029 -0400,10646.818958125,0.61444091796875,0.282135009765625,-0.23748779296875,1,0.97
2020-05-16 12:35:10.094 -0400,10646.883933125,0.685089111328125,0.4378662109375,-0.21551513671875,1,0.97
2020-05-16 12:35:10.159 -0400,10646.948908125,1.208602905273438,0.821624755859375,-0.2183837890625,1,0.97
2020-05-16 12:35:10.224 -0400,10647.013883625,0.998199462890625,1.077896118164062,-0.2044219970703125,1,0.97
2020-05-16 12:35:10.289 -0400,10647.078858625,0.9340667724609375,0.8261566162109375,-0.2115936279296875,1,0.97
2020-05-16 12:35:10.355 -0400,10647.143832625,0.9686126708984375,0.812255859375,-0.2220458984375,1,0.97
2020-05-16 12:35:10.419 -0400,10647.208807625,0.819488525390625,0.7877044677734375,-0.1641845703125,1,0.97
2020-05-16 12:35:10.484 -0400,10647.273782625,0.8698883056640625,0.880645751953125,-0.0797882080078125,1,0.97
2020-05-16 12:35:10.549 -0400,10647.338757625,0.9486236572265625,0.971527099609375,0.0909271240234375,1,0.97
2020-05-16 12:35:10.614 -0400,10647.403732625,1.051910400390625,0.8749847412109375,0.2545318603515625,1,0.97
2020-05-16 12:35:10.679 -0400,10647.468707625,1.2069091796875,0.870941162109375,0.3668212890625,1,0.97
2020-05-16 12:35:10.744 -0400,10647.533682625,0.9861297607421875,0.7802581787109375,0.368804931640625,1,0.97
2020-05-16 12:35:10.809 -0400,10647.598657625,0.6262359619140625,0.6446990966796875,0.393524169921875,1,0.97
2020-05-16 12:35:10.874 -0400,10647.663632625,0.289520263671875,0.4586944580078125,0.2642364501953125,1,0.97
2020-05-16 12:35:10.939 -0400,10647.728607625,0.1959228515625,0.3055877685546875,0.1827239990234375,1,0.97
2020-05-16 12:35:11.004 -0400,10647.793581625,0.28277587890625,0.2296295166015625,-0.0389862060546875,1,0.97
2020-05-16 12:35:11.069 -0400,10647.858556625,0.7745208740234375,0.384246826171875,-0.146636962890625,1,0.97
2020-05-16 12:35:11.134 -0400,10647.923531625,2.0072021484375,0.400054931640625,-0.1746826171875,1,0.97
2020-05-16 12:35:11.199 -0400,10647.988506625,1.924545288085938,0.453216552734375,0.1983795166015625,1,0.97
2020-05-16 12:35:11.274 -0400,10648.0534815,1.175369262695312,0.58184814453125,0.09185791015625,1,0.97
2020-05-16 12:35:11.329 -0400,10648.1184565,0.8076019287109375,0.6213226318359375,-0.055816650390625,1,0.97
2020-05-16 12:35:11.394 -0400,10648.1834315,0.689422607421875,0.5385894775390625,-0.37518310546875,1,0.97
2020-05-16 12:35:11.459 -0400,10648.2484065,0.9447479248046875,0.2421417236328125,-0.330413818359375,1,0.97
2020-05-16 12:35:11.524 -0400,10648.3133815,1.024810791015625,0.273956298828125,-0.2700347900390625,1,0.97
2020-05-16 12:35:11.589 -0400,10648.3783555,0.8375244140625,0.5572967529296875,-0.2758636474609375,1,0.97
2020-05-16 12:35:11.654 -0400,10648.4433305,0.6426239013671875,0.5253143310546875,-0.1935272216796875,1,0.97
2020-05-16 12:35:11.719 -0400,10648.5083055,0.635009765625,0.384674072265625,-0.5273590087890625,1,0.97
2020-05-16 12:35:11.784 -0400,10648.5732805,1.808120727539062,1.10858154296875,-0.9350433349609375,1,0.97
2020-05-16 12:35:11.849 -0400,10648.6382555,2.469024658203125,2.190750122070312,-1.383148193359375,1,0.97
2020-05-16 12:35:11.914 -0400,10648.7032305,2.894332885742188,1.9722900390625,-0.429962158203125,1,0.97
2020-05-16 12:35:11.978 -0400,10648.7682055,1.735153198242188,-0.0826873779296875,0.4925384521484375,1,0.97
2020-05-16 12:35:12.044 -0400,10648.8331805,0.5143890380859375,-0.1448822021484375,0.4297637939453125,1,0.97
2020-05-16 12:35:12.108 -0400,10648.8981555,0.2362823486328125,-0.2938079833984375,0.39404296875,1,0.97
2020-05-16 12:35:12.174 -0400,10648.9631305,0.5706024169921875,-0.367218017578125,0.3271942138671875,1,0.97
2020-05-16 12:35:12.238 -0400,10649.0281045,0.414825439453125,-0.0637359619140625,0.16552734375,1,0.97
2020-05-16 12:35:12.303 -0400,10649.0930795,0.3961181640625,-0.0288238525390625,0.132568359375,1,0.97
2020-05-16 12:35:12.368 -0400,10649.1580545,1.610260009765625,0.090240478515625,0.790771484375,1,0.97
2020-05-16 12:35:12.434 -0400,10649.2230295,3.1116943359375,1.597671508789062,0.106201171875,1,0.97
2020-05-16 12:35:12.498 -0400,10649.2880045,2.74383544921875,0.7913970947265625,-0.6601715087890625,1,0.97
2020-05-16 12:35:12.563 -0400,10649.3529795,1.939224243164062,0.9825439453125,-0.7900390625,1,0.97
2020-05-16 12:35:12.628 -0400,10649.4179545,0.62469482421875,1.065887451171875,-0.6339263916015625,1,0.97
2020-05-16 12:35:12.693 -0400,10649.4829295,0.2610321044921875,0.7838592529296875,-0.52862548828125,1,0.97
2020-05-16 12:35:12.758 -0400,10649.5479035,0.184326171875,0.7505645751953125,-0.3037109375,1,0.97
2020-05-16 12:35:12.824 -0400,10649.6128785,0.9354248046875,0.6280670166015625,0.1274261474609375,1,0.97
2020-05-16 12:35:12.888 -0400,10649.6778535,2.212692260742188,0.9062347412109375,0.8154296875,1,0.97
2020-05-16 12:35:12.953 -0400,10649.7428285,1.805740356445312,0.01275634765625,0.6624755859375,1,0.97
2020-05-16 12:35:13.018 -0400,10649.8078035,1.157257080078125,0.292938232421875,0.2881927490234375,1,0.97
2020-05-16 12:35:13.083 -0400,10649.8727785,0.756561279296875,0.38189697265625,0.326202392578125,1,0.97
2020-05-16 12:35:13.148 -0400,10649.9377535,0.5593719482421875,0.27984619140625,0.1751251220703125,1,0.97
2020-05-16 12:35:13.213 -0400,10650.0027285,0.78472900390625,0.2454071044921875,0.1371307373046875,1,0.97
2020-05-16 12:35:13.278 -0400,10650.0677025,1.069259643554688,0.2117462158203125,0.1014862060546875,1,0.97
2020-05-16 12:35:13.345 -0400,10650.1326775,0.6683197021484375,0.1173858642578125,-0.030303955078125,1,0.97
2020-05-16 12:35:13.408 -0400,10650.1976525,0.77667236328125,0.1119232177734375,-0.2606048583984375,1,0.97
2020-05-16 12:35:13.473 -0400,10650.2626275,1.778213500976562,0.3309478759765625,-0.44708251953125,1,0.97
2020-05-16 12:35:13.538 -0400,10650.3276025,1.74554443359375,0.0207061767578125,-0.240386962890625,1,0.97
2020-05-16 12:35:13.603 -0400,10650.3925775,1.21612548828125,0.10858154296875,-0.3470306396484375,1,0.97
2020-05-16 12:35:13.668 -0400,10650.4575525,0.7692718505859375,0.3732147216796875,-0.44500732421875,1,0.97
2020-05-16 12:35:13.733 -0400,10650.5225275,0.635955810546875,0.3419036865234375,-0.317718505859375,1,0.97
2020-05-16 12:35:13.798 -0400,10650.5875015,0.7534942626953125,0.31591796875,-0.218292236328125,1,0.97
2020-05-16 12:35:13.863 -0400,10650.6524765,0.901214599609375,0.3658447265625,-0.1564483642578125,1,0.97
2020-05-16 12:35:13.928 -0400,10650.7174515,0.861297607421875,0.4801177978515625,-0.240325927734375,1,0.97
2020-05-16 12:35:13.993 -0400,10650.7824265,0.845367431640625,0.461151123046875,-0.3302459716796875,1,0.97
2020-05-16 12:35:14.058 -0400,10650.8474015,1.262741088867188,0.433135986328125,-0.28216552734375,1,0.97
2020-05-16 12:35:14.123 -0400,10650.9123765,1.4959716796875,0.5965576171875,-0.336639404296875,1,0.97
2020-05-16 12:35:14.188 -0400,10650.9773515,1.261093139648438,0.4343414306640625,-0.2065887451171875,1,0.97
2020-05-16 12:35:14.253 -0400,10651.04232625,1.1019287109375,0.361541748046875,-0.0596771240234375,1,0.97
2020-05-16 12:35:14.318 -0400,10651.10730025,0.8870391845703125,0.3261566162109375,-0.05328369140625,1,0.97
2020-05-16 12:35:14.383 -0400,10651.17227525,0.643157958984375,0.370086669921875,-0.0136871337890625,1,0.97
2020-05-16 12:35:14.448 -0400,10651.23725025,0.76007080078125,0.3426055908203125,0.07733154296875,1,0.97
2020-05-16 12:35:14.513 -0400,10651.30222525,1.060516357421875,0.28204345703125,0.10540771484375,1,0.97
2020-05-16 12:35:14.577 -0400,10651.36720025,1.238739013671875,0.3279571533203125,0.0823974609375,1,0.97
2020-05-16 12:35:14.643 -0400,10651.43217525,1.345733642578125,0.3652496337890625,-0.105255126953125,1,0.97
2020-05-16 12:35:14.707 -0400,10651.49715025,0.908660888671875,0.335723876953125,-0.2211761474609375,1,0.97
2020-05-16 12:35:14.773 -0400,10651.56212425,0.8314208984375,0.0666351318359375,-0.3197784423828125,1,0.97
2020-05-16 12:35:14.837 -0400,10651.62709925,0.8266448974609375,0.03472900390625,-0.138092041015625,1,0.97
2020-05-16 12:35:14.903 -0400,10651.69207425,0.74298095703125,0.333831787109375,-0.335479736328125,1,0.97
2020-05-16 12:35:14.967 -0400,10651.75704925,0.60089111328125,0.3214263916015625,-0.27197265625,1,0.97
2020-05-16 12:35:15.033 -0400,10651.82202425,0.6492767333984375,0.3105926513671875,-0.295074462890625,1,0.97
2020-05-16 12:35:15.097 -0400,10651.88699925,0.8596038818359375,0.3135223388671875,-0.2790374755859375,1,0.97
2020-05-16 12:35:15.162 -0400,10651.95197425,0.9692535400390625,0.4186553955078125,-0.3958282470703125,1,0.97
2020-05-16 12:35:15.227 -0400,10652.01694825,1.222305297851562,0.3945159912109375,-0.3738250732421875,1,0.97
2020-05-16 12:35:15.292 -0400,10652.08192325,1.586685180664062,0.428436279296875,-0.2711334228515625,1,0.97
2020-05-16 12:35:15.357 -0400,10652.14689825,1.0789794921875,0.4828948974609375,-0.2530364990234375,1,0.97
2020-05-16 12:35:15.422 -0400,10652.21187325,1.123916625976562,0.5148773193359375,-0.225250244140625,1,0.97
2020-05-16 12:35:15.487 -0400,10652.27684825,1.1099853515625,0.3721771240234375,-0.0142364501953125,1,0.97
2020-05-16 12:35:15.552 -0400,10652.34182325,0.80682373046875,0.281463623046875,-0.023193359375,1,0.97
2020-05-16 12:35:15.617 -0400,10652.40679725,0.622772216796875,0.33935546875,0.008453369140625,1,0.97
2020-05-16 12:35:15.682 -0400,10652.47177225,0.708465576171875,0.306884765625,0.0345611572265625,1,0.97
2020-05-16 12:35:15.747 -0400,10652.53674725,0.9441986083984375,0.29107666015625,0.0147552490234375,1,0.97
2020-05-16 12:35:15.812 -0400,10652.60172225,1.061721801757812,0.3612518310546875,-0.100494384765625,1,0.97
2020-05-16 12:35:15.877 -0400,10652.66669725,1.400238037109375,0.4017333984375,-0.1523284912109375,1,0.97
2020-05-16 12:35:15.942 -0400,10652.73167225,1.290191650390625,0.435760498046875,-0.3902435302734375,1,0.97
2020-05-16 12:35:16.007 -0400,10652.79664725,1.142440795898438,0.2324676513671875,-0.271270751953125,1,0.97
2020-05-16 12:35:16.072 -0400,10652.86162125,0.85919189453125,0.21026611328125,-0.245513916015625,1,0.97
2020-05-16 12:35:16.137 -0400,10652.92659625,0.55413818359375,0.3518524169921875,-0.288299560546875,1,0.97
2020-05-16 12:35:16.202 -0400,10652.99157125,0.51025390625,0.3994903564453125,-0.201873779296875,1,0.97
2020-05-16 12:35:16.267 -0400,10653.0565465,0.6403350830078125,0.4149627685546875,-0.2737884521484375,1,0.97
2020-05-16 12:35:16.345 -0400,10653.1215215,0.8079681396484375,0.3701629638671875,-0.2792816162109375,1,0.97
2020-05-16 12:35:16.397 -0400,10653.1864965,1.2467041015625,0.5121612548828125,-0.3595428466796875,1,0.97
2020-05-16 12:35:16.462 -0400,10653.2514705,1.841400146484375,0.4819488525390625,-0.0836334228515625,1,0.97
2020-05-16 12:35:16.527 -0400,10653.3164455,1.118621826171875,0.4175567626953125,-0.2598419189453125,1,0.97
2020-05-16 12:35:16.592 -0400,10653.3814205,1.232040405273438,0.497894287109375,-0.1228485107421875,1,0.97
2020-05-16 12:35:16.657 -0400,10653.4463955,1.0072021484375,0.3213043212890625,-0.000244140625,1,0.97
2020-05-16 12:35:16.722 -0400,10653.5113705,0.638458251953125,0.22161865234375,-0.0514678955078125,1,0.97
2020-05-16 12:35:16.787 -0400,10653.5763455,0.458984375,0.2757568359375,-0.0142822265625,1,0.97
2020-05-16 12:35:16.852 -0400,10653.6413195,0.74420166015625,0.297149658203125,-0.0180816650390625,1,0.97
2020-05-16 12:35:16.917 -0400,10653.7062945,1.111419677734375,0.3087158203125,0.0474853515625,1,0.97
2020-05-16 12:35:16.982 -0400,10653.7712695,1.197860717773438,0.368408203125,-0.02581787109375,1,0.97
2020-05-16 12:35:17.046 -0400,10653.8362445,1.462631225585938,0.4530181884765625,-0.057769775390625,1,0.97
2020-05-16 12:35:17.112 -0400,10653.9012195,1.208877563476562,0.510528564453125,-0.331756591796875,1,0.97
2020-05-16 12:35:17.176 -0400,10653.9661945,1.03033447265625,0.283935546875,-0.22003173828125,1,0.97
2020-05-16 12:35:17.242 -0400,10654.031168625,0.7465667724609375,0.2864990234375,-0.2708587646484375,1,0.97
2020-05-16 12:35:17.306 -0400,10654.096143625,0.496551513671875,0.359130859375,-0.28057861328125,1,0.97
2020-05-16 12:35:17.372 -0400,10654.161118625,0.44793701171875,0.3570404052734375,-0.271881103515625,1,0.97
2020-05-16 12:35:17.439 -0400,10654.226093625,0.6419525146484375,0.358184814453125,-0.33056640625,1,0.97
2020-05-16 12:35:17.503 -0400,10654.291068625,0.96923828125,0.326141357421875,-0.2844390869140625,1,0.97
2020-05-16 12:35:17.566 -0400,10654.356043625,1.385284423828125,0.3248443603515625,-0.3487091064453125,1,0.97
2020-05-16 12:35:17.631 -0400,10654.421017625,1.594070434570312,0.4877777099609375,-0.285400390625,1,0.97
2020-05-16 12:35:17.696 -0400,10654.485992625,1.176239013671875,0.434173583984375,-0.2901458740234375,1,0.97
2020-05-16 12:35:17.761 -0400,10654.550967625,1.409408569335938,0.259674072265625,-0.0155029296875,1,0.97
2020-05-16 12:35:17.826 -0400,10654.615942625,0.7903900146484375,0.2921295166015625,-0.027099609375,1,0.97
2020-05-16 12:35:17.891 -0400,10654.680917625,0.3817291259765625,0.3553466796875,-0.0547943115234375,1,0.97
2020-05-16 12:35:17.956 -0400,10654.745892625,0.25518798828125,0.3265228271484375,-0.008026123046875,1,0.97
2020-05-16 12:35:18.021 -0400,10654.810866625,0.493927001953125,0.3131561279296875,-0.066253662109375,1,0.97
2020-05-16 12:35:18.086 -0400,10654.875841625,1.183380126953125,0.28759765625,-0.0431060791015625,1,0.97
2020-05-16 12:35:18.151 -0400,10654.940816625,1.528823852539062,0.39703369140625,-0.0412445068359375,1,0.97
2020-05-16 12:35:18.216 -0400,10655.005791625,1.167449951171875,0.6761016845703125,-0.2895660400390625,1,0.97
2020-05-16 12:35:18.281 -0400,10655.070766,1.24346923828125,0.44708251953125,-0.429595947265625,1,0.97
2020-05-16 12:35:18.346 -0400,10655.13574,1.119766235351562,0.1338958740234375,-0.2100830078125,1,0.97
2020-05-16 12:35:18.411 -0400,10655.200715,0.687744140625,0.1475677490234375,-0.3449554443359375,1,0.97
2020-05-16 12:35:18.476 -0400,10655.26569,0.4171142578125,0.5077362060546875,-0.461456298828125,1,0.97
2020-05-16 12:35:18.541 -0400,10655.330665,0.2557373046875,0.1660003662109375,-0.343994140625,1,0.97
2020-05-16 12:35:18.606 -0400,10655.39564,0.366119384765625,0.349029541015625,-0.1764984130859375,1,0.97
2020-05-16 12:35:18.671 -0400,10655.460615,0.7875518798828125,0.6226043701171875,-0.1497344970703125,1,0.97
2020-05-16 12:35:18.736 -0400,10655.525589,1.138748168945312,0.6860504150390625,-0.2791595458984375,1,0.97
2020-05-16 12:35:18.801 -0400,10655.590564,1.340499877929688,0.7975616455078125,-0.4632415771484375,1,0.97
2020-05-16 12:35:18.866 -0400,10655.655539,1.370468139648438,0.81475830078125,-0.56591796875,1,0.97
2020-05-16 12:35:18.931 -0400,10655.720514,1.356048583984375,0.3200531005859375,-0.1598052978515625,1,0.97
2020-05-16 12:35:18.996 -0400,10655.785489,0.8424835205078125,0.3320770263671875,-0.2420806884765625,1,0.97
2020-05-16 12:35:19.061 -0400,10655.850463,0.47015380859375,0.399688720703125,-0.14532470703125,1,0.97
2020-05-16 12:35:19.126 -0400,10655.915438,0.3708343505859375,0.307373046875,-0.069793701171875,1,0.97
2020-05-16 12:35:19.191 -0400,10655.980413,0.435882568359375,0.1894989013671875,-0.04638671875,1,0.97
2020-05-16 12:35:19.256 -0400,10656.04538825,1.208465576171875,0.354217529296875,-0.1358184814453125,1,0.97
2020-05-16 12:35:19.321 -0400,10656.11036325,1.4912109375,0.4173126220703125,-0.1718902587890625,1,0.97
2020-05-16 12:35:19.386 -0400,10656.17533825,1.362808227539062,0.4214935302734375,-0.250701904296875,1,0.97
2020-05-16 12:35:19.451 -0400,10656.24031225,1.442520141601562,0.377349853515625,-0.273345947265625,1,0.97
2020-05-16 12:35:19.516 -0400,10656.30528725,1.056793212890625,0.162353515625,-0.13104248046875,1,0.97
2020-05-16 12:35:19.581 -0400,10656.37026225,0.687408447265625,0.375732421875,-0.16571044921875,1,0.97
2020-05-16 12:35:19.646 -0400,10656.43523725,0.4221038818359375,0.421417236328125,-0.119476318359375,1,0.97
2020-05-16 12:35:19.711 -0400,10656.50021225,0.3766326904296875,0.383819580078125,-0.0984954833984375,1,0.97
2020-05-16 12:35:19.775 -0400,10656.56518625,0.6059417724609375,0.3918914794921875,-0.161346435546875,1,0.97
2020-05-16 12:35:19.840 -0400,10656.63016125,1.019302368164062,0.4194488525390625,-0.2433319091796875,1,0.97
2020-05-16 12:35:19.905 -0400,10656.69513625,1.566604614257812,0.49322509765625,-0.4167938232421875,1,0.97
2020-05-16 12:35:19.970 -0400,10656.76011125,1.720809936523438,0.4899749755859375,-0.5514373779296875,1,0.97
2020-05-16 12:35:20.035 -0400,10656.82508625,1.09088134765625,0.3541717529296875,-0.43109130859375,1,0.97
2020-05-16 12:35:20.100 -0400,10656.89006025,1.474044799804688,0.0156402587890625,-0.1356201171875,1,0.97
2020-05-16 12:35:20.165 -0400,10656.95503525,0.8872528076171875,0.196685791015625,-0.128387451171875,1,0.97
2020-05-16 12:35:20.230 -0400,10657.02001025,0.52630615234375,0.450439453125,-0.14630126953125,1,0.97
2020-05-16 12:35:20.295 -0400,10657.084985,0.32183837890625,0.3533477783203125,-0.0222930908203125,1,0.97
2020-05-16 12:35:20.363 -0400,10657.14996,0.3908538818359375,0.261627197265625,0.018218994140625,1,0.97
2020-05-16 12:35:20.425 -0400,10657.214934,0.836578369140625,0.290802001953125,-0.084991455078125,1,0.97
2020-05-16 12:35:20.490 -0400,10657.279909,1.26416015625,0.3563079833984375,-0.14117431640625,1,0.97
2020-05-16 12:35:20.555 -0400,10657.344884,1.572341918945312,0.4702606201171875,-0.247772216796875,1,0.97
2020-05-16 12:35:20.620 -0400,10657.409859,1.449981689453125,0.4453125,-0.4192657470703125,1,0.97
2020-05-16 12:35:20.685 -0400,10657.474834,1.1265869140625,0.2484283447265625,-0.1313934326171875,1,0.97
2020-05-16 12:35:20.750 -0400,10657.539808,0.6281890869140625,0.2141876220703125,-0.3051910400390625,1,0.97
2020-05-16 12:35:20.815 -0400,10657.604783,0.3687591552734375,0.348968505859375,-0.2130889892578125,1,0.97
2020-05-16 12:35:20.880 -0400,10657.669758,0.3473968505859375,0.2888946533203125,-0.221771240234375,1,0.97
2020-05-16 12:35:20.945 -0400,10657.734733,0.4691925048828125,0.59478759765625,-0.1365509033203125,1,0.97
2020-05-16 12:35:21.010 -0400,10657.799708,0.875701904296875,0.9560546875,-0.3369903564453125,1,0.97
2020-05-16 12:35:21.075 -0400,10657.864682,1.083282470703125,1.120620727539062,-0.60186767578125,1,0.97
2020-05-16 12:35:21.140 -0400,10657.929657,1.064102172851562,1.0885009765625,-0.4402313232421875,1,0.97
2020-05-16 12:35:21.205 -0400,10657.994632,1.111801147460938,0.8642120361328125,-0.4920196533203125,1,0.97
2020-05-16 12:35:21.270 -0400,10658.05960775,1.11724853515625,0.6090850830078125,-0.3580474853515625,1,0.97
2020-05-16 12:35:21.335 -0400,10658.12458175,0.9272918701171875,0.437957763671875,-0.4825592041015625,1,0.97
2020-05-16 12:35:21.400 -0400,10658.18955675,0.6361083984375,0.146453857421875,-0.3711090087890625,1,0.97
2020-05-16 12:35:21.465 -0400,10658.25453175,0.3160400390625,0.175994873046875,-0.5093841552734375,1,0.97
2020-05-16 12:35:21.530 -0400,10658.31950675,0.1622467041015625,-0.0045013427734375,-0.5014801025390625,1,0.97
2020-05-16 12:35:21.595 -0400,10658.38448175,0.12005615234375,0.1332550048828125,-0.7988739013671875,1,0.97
2020-05-16 12:35:21.660 -0400,10658.44945575,0.1334686279296875,0.2045135498046875,-0.9606475830078125,1,0.97
2020-05-16 12:35:21.725 -0400,10658.51443075,0.2436981201171875,0.12469482421875,-1.124069213867188,1,0.97
2020-05-16 12:35:21.810 -0400,10658.59939775,0.413726806640625,0.44061279296875,-1.2384033203125,1,0.97
2020-05-16 12:35:21.880 -0400,10658.66937075,0.409912109375,0.2868804931640625,-1.002304077148438,1,0.97
2020-05-16 12:35:21.950 -0400,10658.73934375,0.220977783203125,0.162200927734375,-0.8148040771484375,1,0.97
2020-05-16 12:35:22.020 -0400,10658.80931675,0.122589111328125,0.1701812744140625,-0.701629638671875,1,0.97
2020-05-16 12:35:22.089 -0400,10658.87928975,0.1394195556640625,0.06884765625,-0.6553497314453125,1,0.97
2020-05-16 12:35:22.160 -0400,10658.94926275,0.0738525390625,0.0557403564453125,-0.7684173583984375,1,0.97
