loggingTime(txt),accelerometerTimestamp_sinceReboot(s),accelerometerAccelerationX(G),accelerometerAccelerationY(G),accelerometerAccelerationZ(G),batteryState,batteryLevel
2020-05-16 12:42:51.470 -0400,11108.259922375,0.055450439453125,0.1885986328125,-0.8649139404296875,1,0.96
2020-05-16 12:42:51.590 -0400,11108.379667375,0.208892822265625,0.30914306640625,-1.120346069335938,1,0.96
2020-05-16 12:42:51.710 -0400,11108.499417375,0.14642333984375,0.22576904296875,-1.013168334960938,1,0.96
2020-05-16 12:42:51.829 -0400,11108.619166375,-0.084197998046875,0.1876373291015625,-0.8203887939453125,1,0.96
2020-05-16 12:42:51.949 -0400,11108.738912375,0.1841278076171875,-0.0177001953125,-0.5453948974609375,1,0.96
2020-05-16 12:42:52.069 -0400,11108.858654375,0.4312591552734375,0.15704345703125,-0.4512786865234375,1,0.96
2020-05-16 12:42:52.189 -0400,11108.978393375,0.8741912841796875,0.51397705078125,-0.65252685546875,1,0.96
2020-05-16 12:42:52.309 -0400,11109.098137375,2.112548828125,2.149871826171875,-0.3835296630859375,1,0.96
2020-05-16 12:42:52.439 -0400,11109.217879375,0.81280517578125,0.929718017578125,0.060821533203125,1,0.96
2020-05-16 12:42:52.548 -0400,11109.337620375,0.36517333984375,0.349639892578125,-0.0709991455078125,1,0.96
2020-05-16 12:42:52.638 -0400,11109.427424375,0.665069580078125,0.805938720703125,-0.192626953125,1,0.96
2020-05-16 12:42:52.717 -0400,11109.4972745,0.98089599609375,0.8440704345703125,-0.2958221435546875,1,0.96
2020-05-16 12:42:52.777 -0400,11109.5671265,0.251861572265625,0.5785980224609375,-0.37286376953125,1,0.96
2020-05-16 12:42:52.847 -0400,11109.6369745,0.2484130859375,0.589599609375,-0.5156402587890625,1,0.96
2020-05-16 12:42:52.917 -0400,11109.7068225,2.558425903320312,1.826904296875,-0.0598907470703125,1,0.96
2020-05-16 12:42:52.987 -0400,11109.7766705,1.28814697265625,0.7350006103515625,-0.3896636962890625,1,0.96
2020-05-16 12:42:53.057 -0400,11109.8465155,0.384185791015625,0.4662628173828125,-0.1935577392578125,1,0.96
2020-05-16 12:42:53.127 -0400,11109.9163615,0.2661895751953125,0.243682861328125,-0.1352691650390625,1,0.96
2020-05-16 12:42:53.196 -0400,11109.9862105,0.355621337890625,0.0764617919921875,0.05706787109375,1,0.96
2020-05-16 12:42:53.266 -0400,11110.0560615,0.2421417236328125,0.1209564208984375,-0.0234375,1,0.96
2020-05-16 12:42:53.337 -0400,11110.1259115,0.4743804931640625,0.3373870849609375,-0.03546142578125,1,0.96
2020-05-16 12:42:53.406 -0400,11110.1957605,3.07928466796875,1.821563720703125,0.481231689453125,1,0.96
2020-05-16 12:42:53.476 -0400,11110.2656055,1.51556396484375,0.8433074951171875,-1.1839599609375,1,0.96
2020-05-16 12:42:53.546 -0400,11110.3354505,1.377288818359375,1.327102661132812,-0.20037841796875,1,0.96
2020-05-16 12:42:53.616 -0400,11110.4053005,0.5406951904296875,0.288360595703125,-0.322235107421875,1,0.96
2020-05-16 12:42:53.686 -0400,11110.4751535,0.112060546875,0.424102783203125,-0.4208526611328125,1,0.96
2020-05-16 12:42:53.755 -0400,11110.545005,-0.16009521484375,0.5740966796875,-0.374359130859375,1,0.96
2020-05-16 12:42:53.825 -0400,11110.614856,1.294464111328125,1.297683715820312,-0.587646484375,1,0.96
2020-05-16 12:42:53.895 -0400,11110.684707,2.446624755859375,0.916046142578125,0.6541900634765625,1,0.96
2020-05-16 12:42:53.965 -0400,11110.754556,1.212005615234375,0.5832366943359375,-0.4626617431640625,1,0.96
2020-05-16 12:42:54.035 -0400,11110.824406,0.7849578857421875,0.784393310546875,0.05670166015625,1,0.96
2020-05-16 12:42:54.104 -0400,11110.894256,0.6784515380859375,0.26190185546875,0.1653900146484375,1,0.96
2020-05-16 12:42:54.174 -0400,11110.964103,0.4527587890625,-0.099151611328125,0.1482696533203125,1,0.96
2020-05-16 12:42:54.244 -0400,11111.033949,0.767974853515625,-0.0573272705078125,0.1881866455078125,1,0.96
2020-05-16 12:42:54.314 -0400,11111.103792,1.221466064453125,1.680496215820312,0.179107666015625,1,0.96
2020-05-16 12:42:54.384 -0400,11111.173636,0.9763336181640625,0.33709716796875,-0.633819580078125,1,0.96
2020-05-16 12:42:54.454 -0400,11111.243483,1.245391845703125,1.051483154296875,-0.1975555419921875,1,0.96
2020-05-16 12:42:54.524 -0400,11111.313329,1.0181884765625,0.782318115234375,-0.434326171875,1,0.96
2020-05-16 12:42:54.593 -0400,11111.383177,0.6834716796875,0.4874267578125,-0.208526611328125,1,0.96
2020-05-16 12:42:54.663 -0400,11111.453025,0.6845245361328125,0.5137786865234375,-0.3585205078125,1,0.96
2020-05-16 12:42:54.733 -0400,11111.522869125,0.75665283203125,0.7481842041015625,-0.37420654296875,1,0.96
2020-05-16 12:42:54.803 -0400,11111.592710125,0.9601593017578125,0.60211181640625,-0.39080810546875,1,0.96
2020-05-16 12:42:54.873 -0400,11111.662551125,2.071685791015625,0.6073455810546875,-0.297821044921875,1,0.96
2020-05-16 12:42:54.943 -0400,11111.732396125,1.730148315429688,0.4886474609375,-0.323516845703125,1,0.96
2020-05-16 12:42:55.013 -0400,11111.802240125,1.127471923828125,0.4027099609375,-0.1776123046875,1,0.96
2020-05-16 12:42:55.082 -0400,11111.872080125,0.6746978759765625,0.329437255859375,-0.0774078369140625,1,0.96
2020-05-16 12:42:55.152 -0400,11111.941922125,0.5104522705078125,0.1905517578125,-0.001312255859375,1,0.96
2020-05-16 12:42:55.226 -0400,11112.011766125,0.45025634765625,0.159027099609375,-0.0090789794921875,1,0.96
2020-05-16 12:42:55.292 -0400,11112.081606125,0.465667724609375,0.0762176513671875,0.0460662841796875,1,0.96
2020-05-16 12:42:55.362 -0400,11112.151450125,0.459503173828125,0.31719970703125,-0.094635009765625,1,0.96
2020-05-16 12:42:55.431 -0400,11112.221294125,1.620437622070312,1.111053466796875,-0.2800445556640625,1,0.96
2020-05-16 12:42:55.501 -0400,11112.291142125,1.777435302734375,0.844207763671875,-0.7217254638671875,1,0.96
2020-05-16 12:42:55.571 -0400,11112.360990125,1.27532958984375,1.88946533203125,-1.055511474609375,1,0.96
2020-05-16 12:42:55.641 -0400,11112.430836125,0.877960205078125,0.9355926513671875,-0.3309783935546875,1,0.96
2020-05-16 12:42:55.711 -0400,11112.50068575,0.8683319091796875,0.7007598876953125,0.238189697265625,1,0.96
2020-05-16 12:42:55.785 -0400,11112.57053575,0.4029388427734375,0.4864959716796875,0.022705078125,1,0.96
2020-05-16 12:42:55.851 -0400,11112.64038675,-0.22015380859375,0.5408172607421875,0.0202484130859375,1,0.96
2020-05-16 12:42:55.920 -0400,11112.71023875,-0.3720245361328125,0.832672119140625,-0.0742340087890625,1,0.96
2020-05-16 12:42:55.991 -0400,11112.78008475,3.764755249023438,2.512283325195312,-0.459503173828125,1,0.96
2020-05-16 12:42:56.060 -0400,11112.84992675,2.252883911132812,0.15264892578125,-0.4642486572265625,1,0.96
2020-05-16 12:42:56.130 -0400,11112.91977375,1.495223999023438,0.879180908203125,-0.6423797607421875,1,0.96
2020-05-16 12:42:56.200 -0400,11112.98961075,0.8145294189453125,-0.3956298828125,-0.01263427734375,1,0.96
2020-05-16 12:42:56.270 -0400,11113.05945475,0.111175537109375,-0.2548675537109375,-0.196044921875,1,0.96
2020-05-16 12:42:56.340 -0400,11113.12929775,0.12725830078125,-0.087249755859375,-0.156402587890625,1,0.96
2020-05-16 12:42:56.409 -0400,11113.19913675,0.294097900390625,0.3096466064453125,0.012969970703125,1,0.96
2020-05-16 12:42:56.479 -0400,11113.26897475,1.122543334960938,1.156906127929688,0.10797119140625,1,0.96
2020-05-16 12:42:56.549 -0400,11113.33881375,1.097763061523438,1.370895385742188,-0.8409271240234375,1,0.96
2020-05-16 12:42:56.619 -0400,11113.40865375,0.694580078125,0.8912353515625,-0.06109619140625,1,0.96
2020-05-16 12:42:56.689 -0400,11113.47849375,0.475189208984375,0.8536376953125,-0.1341400146484375,1,0.96
2020-05-16 12:42:56.758 -0400,11113.548332625,0.3232269287109375,0.783721923828125,-0.187225341796875,1,0.96
2020-05-16 12:42:56.828 -0400,11113.618171625,0.1346893310546875,0.7145843505859375,-0.18475341796875,1,0.96
2020-05-16 12:42:56.898 -0400,11113.688010625,0.302581787109375,0.5683135986328125,-0.384979248046875,1,0.96
2020-05-16 12:42:56.968 -0400,11113.757849625,1.424346923828125,1.841781616210938,-1.172378540039062,1,0.96
2020-05-16 12:42:57.038 -0400,11113.827688625,1.653854370117188,0.945343017578125,0.0064849853515625,1,0.96
2020-05-16 12:42:57.108 -0400,11113.897527625,0.7646942138671875,0.5686492919921875,-0.4279327392578125,1,0.96
2020-05-16 12:42:57.178 -0400,11113.967367625,0.45855712890625,0.4319000244140625,-0.0907440185546875,1,0.96
2020-05-16 12:42:57.247 -0400,11114.037208625,0.3779754638671875,0.20281982421875,0.0246734619140625,1,0.96
2020-05-16 12:42:57.326 -0400,11114.107046625,0.3856048583984375,0.104888916015625,0.047821044921875,1,0.96
2020-05-16 12:42:57.387 -0400,11114.176886625,1.136093139648438,0.5200042724609375,0.0128631591796875,1,0.96
2020-05-16 12:42:57.457 -0400,11114.246728625,1.854324340820312,1.076416015625,-0.4224090576171875,1,0.96
2020-05-16 12:42:57.527 -0400,11114.316569625,1.187545776367188,0.516357421875,-0.5476226806640625,1,0.96
2020-05-16 12:42:57.597 -0400,11114.386408625,0.828643798828125,0.5091552734375,-0.27862548828125,1,0.96
2020-05-16 12:42:57.667 -0400,11114.456249625,0.462188720703125,0.4344482421875,-0.13311767578125,1,0.96
2020-05-16 12:42:57.736 -0400,11114.526090375,0.5349884033203125,0.4357452392578125,-0.1609954833984375,1,0.96
2020-05-16 12:42:57.806 -0400,11114.595933375,0.6695098876953125,0.47296142578125,-0.13104248046875,1,0.96
2020-05-16 12:42:57.876 -0400,11114.665776375,0.563323974609375,0.6136627197265625,-0.302093505859375,1,0.96
2020-05-16 12:42:57.946 -0400,11114.735613375,0.7741546630859375,0.8744964599609375,-0.4192352294921875,1,0.96
2020-05-16 12:42:58.016 -0400,11114.805454375,1.648529052734375,0.710723876953125,-0.0615692138671875,1,0.96
2020-05-16 12:42:58.085 -0400,11114.875294375,1.863082885742188,0.53375244140625,-0.165435791015625,1,0.96
2020-05-16 12:42:58.155 -0400,11114.945135375,1.131088256835938,0.303802490234375,-0.0919647216796875,1,0.96
2020-05-16 12:42:58.226 -0400,11115.014971375,0.7921295166015625,0.293914794921875,0.020721435546875,1,0.96
2020-05-16 12:42:58.295 -0400,11115.084811375,0.550445556640625,0.2134552001953125,0.074249267578125,1,0.96
2020-05-16 12:42:58.365 -0400,11115.154649375,0.3817901611328125,0.190582275390625,0.013519287109375,1,0.96
2020-05-16 12:42:58.435 -0400,11115.224486375,0.3247833251953125,0.1632232666015625,0.05743408203125,1,0.96
2020-05-16 12:42:58.505 -0400,11115.294326375,0.531768798828125,0.4362945556640625,0.0204010009765625,1,0.96
2020-05-16 12:42:58.574 -0400,11115.364163375,1.79425048828125,1.071014404296875,-0.0738677978515625,1,0.96
2020-05-16 12:42:58.644 -0400,11115.434005375,1.601791381835938,0.9510345458984375,-0.6510162353515625,1,0.96
2020-05-16 12:42:58.714 -0400,11115.50385066667,1.051239013671875,0.6445465087890625,-0.6100311279296875,1,0.96
2020-05-16 12:42:58.784 -0400,11115.57369666667,0.6065826416015625,0.6372222900390625,-0.2344970703125,1,0.96
2020-05-16 12:42:58.854 -0400,11115.64354166667,0.482818603515625,0.3632354736328125,-0.1773529052734375,1,0.96
2020-05-16 12:42:58.924 -0400,11115.71338266667,0.4730072021484375,0.579986572265625,-0.136627197265625,1,0.96
2020-05-16 12:42:58.993 -0400,11115.78321966667,0.543060302734375,0.5984344482421875,-0.1848602294921875,1,0.96
2020-05-16 12:42:59.063 -0400,11115.85306166667,2.378036499023438,1.401473999023438,-0.7051849365234375,1,0.96
2020-05-16 12:42:59.133 -0400,11115.92290366667,1.603912353515625,0.516357421875,-0.3155364990234375,1,0.96
2020-05-16 12:42:59.203 -0400,11115.99274566667,1.083526611328125,0.4683074951171875,-0.11724853515625,1,0.96
2020-05-16 12:42:59.273 -0400,11116.06258766667,0.7107391357421875,0.3004913330078125,0.07470703125,1,0.96
2020-05-16 12:42:59.343 -0400,11116.13242966667,0.37896728515625,0.0981597900390625,0.2142181396484375,1,0.96
2020-05-16 12:42:59.413 -0400,11116.20227466667,0.5164031982421875,0.00177001953125,0.1996002197265625,1,0.96
2020-05-16 12:42:59.482 -0400,11116.27211766667,1.41436767578125,0.358428955078125,0.0384979248046875,1,0.96
2020-05-16 12:42:59.552 -0400,11116.34195966667,1.469314575195312,0.7540435791015625,-1.195175170898438,1,0.96
2020-05-16 12:42:59.622 -0400,11116.41179966667,1.314056396484375,0.6718902587890625,-0.0097808837890625,1,0.96
2020-05-16 12:42:59.692 -0400,11116.48164066667,0.7023162841796875,0.721832275390625,-0.536224365234375,1,0.96
2020-05-16 12:42:59.762 -0400,11116.551482125,0.41082763671875,0.5260467529296875,-0.229888916015625,1,0.96
2020-05-16 12:42:59.832 -0400,11116.621323125,0.35400390625,0.40155029296875,-0.25146484375,1,0.96
2020-05-16 12:42:59.902 -0400,11116.691162125,0.6996307373046875,0.5696258544921875,-0.2722625732421875,1,0.96
2020-05-16 12:42:59.971 -0400,11116.761002125,2.332504272460938,0.4649658203125,0.182220458984375,1,0.96
2020-05-16 12:43:00.041 -0400,11116.830841125,1.873641967773438,0.1647796630859375,0.0431976318359375,1,0.96
2020-05-16 12:43:00.111 -0400,11116.900684125,1.177520751953125,0.5753631591796875,0.0088043212890625,1,0.96
2020-05-16 12:43:00.181 -0400,11116.970528125,0.616973876953125,0.3511962890625,0.100982666015625,1,0.96
2020-05-16 12:43:00.251 -0400,11117.040374125,0.415863037109375,0.1230316162109375,0.134796142578125,1,0.96
2020-05-16 12:43:00.321 -0400,11117.110217125,0.4100494384765625,0.014251708984375,0.08148193359375,1,0.96
2020-05-16 12:43:00.390 -0400,11117.180066125,0.861480712890625,0.3290252685546875,-0.0063018798828125,1,0.96
2020-05-16 12:43:00.460 -0400,11117.249913125,1.35894775390625,0.4740753173828125,-0.587158203125,1,0.96
2020-05-16 12:43:00.530 -0400,11117.319760125,1.38336181640625,0.253173828125,-0.4022369384765625,1,0.96
2020-05-16 12:43:00.600 -0400,11117.389605125,1.000167846679688,0.72222900390625,-0.3562774658203125,1,0.96
2020-05-16 12:43:00.670 -0400,11117.459447125,0.701568603515625,0.6797332763671875,-0.095550537109375,1,0.96
2020-05-16 12:43:00.740 -0400,11117.529291625,0.6475372314453125,0.4960479736328125,-0.205047607421875,1,0.96
2020-05-16 12:43:00.809 -0400,11117.599133625,0.50225830078125,0.58233642578125,-0.190338134765625,1,0.96
2020-05-16 12:43:00.879 -0400,11117.668977625,0.7907257080078125,0.4254913330078125,-0.002685546875,1,0.96
2020-05-16 12:43:00.949 -0400,11117.738824625,1.802597045898438,0.4180450439453125,0.7156829833984375,1,0.96
2020-05-16 12:43:01.019 -0400,11117.808669625,1.403076171875,0.0641937255859375,-0.1304473876953125,1,0.96
2020-05-16 12:43:01.089 -0400,11117.878517625,0.9175262451171875,0.5082855224609375,0.1992950439453125,1,0.96
2020-05-16 12:43:01.159 -0400,11117.948366625,0.54302978515625,0.2509307861328125,0.1494140625,1,0.96
2020-05-16 12:43:01.228 -0400,11118.018213625,0.3822784423828125,0.1986236572265625,0.0522613525390625,1,0.96
2020-05-16 12:43:01.298 -0400,11118.088062625,0.365325927734375,0.1762237548828125,0.0045013427734375,1,0.96
2020-05-16 12:43:01.368 -0400,11118.157912625,0.5210723876953125,0.162994384765625,0.0667877197265625,1,0.96
2020-05-16 12:43:01.438 -0400,11118.227755625,1.871337890625,0.9156494140625,0.11328125,1,0.96
2020-05-16 12:43:01.508 -0400,11118.297595625,1.729812622070312,0.8061065673828125,-0.638519287109375,1,0.96
2020-05-16 12:43:01.578 -0400,11118.367435625,0.91070556640625,0.4905548095703125,-0.255340576171875,1,0.96
2020-05-16 12:43:01.647 -0400,11118.437277625,0.57049560546875,0.5209808349609375,0.0040130615234375,1,0.96
2020-05-16 12:43:01.717 -0400,11118.507122375,0.499969482421875,0.4567718505859375,-0.1990509033203125,1,0.96
2020-05-16 12:43:01.787 -0400,11118.576963375,0.5097503662109375,0.433837890625,-0.08978271484375,1,0.96
2020-05-16 12:43:01.857 -0400,11118.646808375,0.930755615234375,0.5892486572265625,-0.0831451416015625,1,0.96
2020-05-16 12:43:01.927 -0400,11118.716656375,2.074783325195312,0.7022552490234375,0.080535888671875,1,0.96
2020-05-16 12:43:01.997 -0400,11118.786500375,1.369720458984375,0.3962249755859375,-0.1932220458984375,1,0.96
2020-05-16 12:43:02.067 -0400,11118.856341375,1.011077880859375,0.718902587890625,-0.2428436279296875,1,0.96
2020-05-16 12:43:02.137 -0400,11118.926187375,0.8143768310546875,0.328460693359375,-0.1629486083984375,1,0.96
2020-05-16 12:43:02.206 -0400,11118.996031375,0.6680450439453125,0.1134033203125,-0.0625457763671875,1,0.96
2020-05-16 12:43:02.278 -0400,11119.065873375,0.6422882080078125,0.2334136962890625,-0.045501708984375,1,0.96
2020-05-16 12:43:02.346 -0400,11119.135715375,0.626312255859375,0.237884521484375,0.0528411865234375,1,0.96
2020-05-16 12:43:02.416 -0400,11119.205555375,0.6088104248046875,0.2628021240234375,0.131072998046875,1,0.96
2020-05-16 12:43:02.486 -0400,11119.275394375,0.512481689453125,0.3604583740234375,0.1179656982421875,1,0.96
2020-05-16 12:43:02.556 -0400,11119.345234375,2.074951171875,0.7576904296875,0.194122314453125,1,0.96
2020-05-16 12:43:02.625 -0400,11119.415073375,1.425979614257812,1.077362060546875,-0.46380615234375,1,0.96
2020-05-16 12:43:02.695 -0400,11119.484914375,0.91180419921875,0.45343017578125,-0.3485870361328125,1,0.96
2020-05-16 12:43:02.765 -0400,11119.554751875,0.6112213134765625,0.577178955078125,-0.2891082763671875,1,0.96
2020-05-16 12:43:02.836 -0400,11119.624591875,0.39556884765625,0.5422821044921875,-0.4514923095703125,1,0.96
2020-05-16 12:43:02.905 -0400,11119.694428875,0.2642059326171875,0.5072174072265625,-0.3939208984375,1,0.96
2020-05-16 12:43:02.974 -0400,11119.764267875,0.556793212890625,0.5348663330078125,-0.2200775146484375,1,0.96
2020-05-16 12:43:03.044 -0400,11119.834112875,2.828994750976562,0.85589599609375,0.3492889404296875,1,0.96
2020-05-16 12:43:03.114 -0400,11119.903954875,1.611053466796875,0.1495361328125,-0.058746337890625,1,0.96
2020-05-16 12:43:03.184 -0400,11119.973794875,1.002334594726562,0.5773468017578125,0.27801513671875,1,0.96
2020-05-16 12:43:03.254 -0400,11120.043634875,0.586761474609375,0.241424560546875,0.1953277587890625,1,0.96
2020-05-16 12:43:03.324 -0400,11120.113476875,0.3768768310546875,0.231201171875,0.13958740234375,1,0.96
2020-05-16 12:43:03.394 -0400,11120.183323875,0.505096435546875,0.2049102783203125,0.1275634765625,1,0.96
2020-05-16 12:43:03.464 -0400,11120.253173875,0.703155517578125,0.2562255859375,0.0529327392578125,1,0.96
2020-05-16 12:43:03.533 -0400,11120.323019875,0.6938323974609375,0.301422119140625,-0.0897369384765625,1,0.96
2020-05-16 12:43:03.603 -0400,11120.392867875,1.9183349609375,0.7188873291015625,-0.1773834228515625,1,0.96
2020-05-16 12:43:03.673 -0400,11120.462713875,1.362762451171875,0.7910919189453125,-0.793365478515625,1,0.96
2020-05-16 12:43:03.743 -0400,11120.5325585,1.060394287109375,0.5977020263671875,-0.5550537109375,1,0.96
2020-05-16 12:43:03.813 -0400,11120.6023995,0.769012451171875,0.6877593994140625,-0.3531646728515625,1,0.96
2020-05-16 12:43:03.882 -0400,11120.6722415,0.3297882080078125,0.6769256591796875,-0.37054443359375,1,0.96
2020-05-16 12:43:03.952 -0400,11120.7420835,0.22052001953125,0.59246826171875,-0.3539581298828125,1,0.96
2020-05-16 12:43:04.022 -0400,11120.8119295,1.817703247070312,1.182296752929688,-0.894073486328125,1,0.96
2020-05-16 12:43:04.092 -0400,11120.8817725,1.905532836914062,0.277587890625,0.4238739013671875,1,0.96
2020-05-16 12:43:04.162 -0400,11120.9516165,1.422637939453125,0.5469818115234375,-0.152191162109375,1,0.96
2020-05-16 12:43:04.232 -0400,11121.0214595,1.08087158203125,0.575836181640625,0.115325927734375,1,0.96
2020-05-16 12:43:04.301 -0400,11121.0913015,0.8281097412109375,0.2396697998046875,0.2219696044921875,1,0.96
2020-05-16 12:43:04.372 -0400,11121.1611455,0.52935791015625,0.0492706298828125,0.15972900390625,1,0.96
2020-05-16 12:43:04.441 -0400,11121.2309895,0.6826019287109375,0.10272216796875,0.062164306640625,1,0.96
2020-05-16 12:43:04.511 -0400,11121.3008335,0.8714752197265625,0.29132080078125,-0.0360260009765625,1,0.96
2020-05-16 12:43:04.581 -0400,11121.3706745,1.06243896484375,1.16876220703125,-0.6513824462890625,1,0.96
2020-05-16 12:43:04.651 -0400,11121.4405215,1.29888916015625,1.165771484375,-0.4978790283203125,1,0.96
2020-05-16 12:43:04.721 -0400,11121.510368,0.8121490478515625,0.9213714599609375,-0.474365234375,1,0.96
2020-05-16 12:43:04.790 -0400,11121.580215,0.3685150146484375,0.700103759765625,-0.1778411865234375,1,0.96
2020-05-16 12:43:04.860 -0400,11121.650062,0.8164520263671875,0.8471832275390625,-0.3310394287109375,1,0.96
2020-05-16 12:43:04.930 -0400,11121.719909,1.755218505859375,0.8834686279296875,-0.2333526611328125,1,0.96
2020-05-16 12:43:05.000 -0400,11121.789756,1.057525634765625,0.5128936767578125,-0.19232177734375,1,0.96
2020-05-16 12:43:05.070 -0400,11121.859602,1.526229858398438,0.55316162109375,0.009918212890625,1,0.96
2020-05-16 12:43:05.150 -0400,11121.929451,1.1806640625,0.3306427001953125,0.053253173828125,1,0.96
2020-05-16 12:43:05.210 -0400,11121.999297,0.763275146484375,0.2653350830078125,0.0753936767578125,1,0.96
2020-05-16 12:43:05.279 -0400,11122.069145,0.5015411376953125,0.1813201904296875,0.040435791015625,1,0.96
2020-05-16 12:43:05.349 -0400,11122.138991,0.239776611328125,0.062713623046875,0.0323333740234375,1,0.96
2020-05-16 12:43:05.419 -0400,11122.208836,0.15802001953125,0.0779876708984375,0.068817138671875,1,0.96
2020-05-16 12:43:05.489 -0400,11122.278679,0.6581878662109375,0.7850799560546875,-0.1526031494140625,1,0.96
2020-05-16 12:43:05.559 -0400,11122.348525,1.6865234375,1.092758178710938,-0.505279541015625,1,0.96
2020-05-16 12:43:05.629 -0400,11122.418367,2.147964477539062,1.065750122070312,-0.5336151123046875,1,0.96
2020-05-16 12:43:05.698 -0400,11122.488217,0.846282958984375,0.8484649658203125,-0.2542572021484375,1,0.96
2020-05-16 12:43:05.768 -0400,11122.558064,0.496734619140625,0.525146484375,-0.205352783203125,1,0.96
2020-05-16 12:43:05.838 -0400,11122.627909,0.3555145263671875,0.444366455078125,-0.1527862548828125,1,0.96
2020-05-16 12:43:05.908 -0400,11122.69776,0.35089111328125,0.465057373046875,-0.132049560546875,1,0.96
2020-05-16 12:43:05.978 -0400,11122.767611,0.8617095947265625,0.58544921875,-0.104705810546875,1,0.96
2020-05-16 12:43:06.048 -0400,11122.83746,2.351333618164062,0.9413909912109375,-0.100250244140625,1,0.96
2020-05-16 12:43:06.117 -0400,11122.907304,1.722412109375,0.5428314208984375,-0.3924102783203125,1,0.96
2020-05-16 12:43:06.187 -0400,11122.977151,1.165298461914062,0.6057281494140625,-0.0688018798828125,1,0.96
2020-05-16 12:43:06.257 -0400,11123.046996,0.593963623046875,0.2595977783203125,-0.076324462890625,1,0.96
2020-05-16 12:43:06.327 -0400,11123.116844,0.4936370849609375,0.227081298828125,-0.021209716796875,1,0.96
2020-05-16 12:43:06.397 -0400,11123.186689,0.5561676025390625,0.143402099609375,0.05706787109375,1,0.96
2020-05-16 12:43:06.467 -0400,11123.256535,0.5946807861328125,0.2379302978515625,0.1396636962890625,1,0.96
2020-05-16 12:43:06.537 -0400,11123.326381,0.80731201171875,0.456085205078125,0.0491943359375,1,0.96
2020-05-16 12:43:06.607 -0400,11123.396229,1.443206787109375,0.929290771484375,-0.2029266357421875,1,0.96
2020-05-16 12:43:06.676 -0400,11123.466072,1.540924072265625,0.8267974853515625,-0.36334228515625,1,0.96
2020-05-16 12:43:06.746 -0400,11123.535915875,0.967926025390625,0.8103179931640625,-0.23724365234375,1,0.96
2020-05-16 12:43:06.816 -0400,11123.605760875,0.62933349609375,0.6102752685546875,-0.2057952880859375,1,0.96
2020-05-16 12:43:06.886 -0400,11123.675607875,0.44134521484375,0.507904052734375,-0.2021484375,1,0.96
2020-05-16 12:43:06.956 -0400,11123.745449875,0.328857421875,0.4315948486328125,-0.24761962890625,1,0.96
2020-05-16 12:43:07.025 -0400,11123.815294875,0.3725128173828125,0.439361572265625,-0.264373779296875,1,0.96
2020-05-16 12:43:07.095 -0400,11123.885141875,0.88360595703125,0.414520263671875,-0.17852783203125,1,0.96
2020-05-16 12:43:07.165 -0400,11123.954983875,2.647186279296875,0.9957427978515625,-0.2234649658203125,1,0.96
2020-05-16 12:43:07.235 -0400,11124.024827875,1.841705322265625,0.634796142578125,-0.2859649658203125,1,0.96
2020-05-16 12:43:07.305 -0400,11124.094672875,1.12310791015625,0.5278778076171875,-0.1287994384765625,1,0.96
2020-05-16 12:43:07.375 -0400,11124.164519875,0.677276611328125,0.3393402099609375,0.0207977294921875,1,0.96
2020-05-16 12:43:07.445 -0400,11124.234365875,0.432281494140625,0.2125091552734375,0.0174407958984375,1,0.96
2020-05-16 12:43:07.514 -0400,11124.304210875,0.35308837890625,0.1829376220703125,0.0329742431640625,1,0.96
2020-05-16 12:43:07.584 -0400,11124.374054875,0.37548828125,0.15496826171875,0.103118896484375,1,0.96
2020-05-16 12:43:07.654 -0400,11124.443896875,0.9064178466796875,0.2880401611328125,0.164825439453125,1,0.96
2020-05-16 12:43:07.724 -0400,11124.513742,1.5435791015625,1.293807983398438,-0.277069091796875,1,0.96
2020-05-16 12:43:07.794 -0400,11124.583589,1.628677368164062,0.84173583984375,-0.646392822265625,1,0.96
2020-05-16 12:43:07.864 -0400,11124.653433,0.9298248291015625,0.6600341796875,-0.252838134765625,1,0.96
2020-05-16 12:43:07.933 -0400,11124.723282,0.4424896240234375,0.470062255859375,-0.20269775390625,1,0.96
2020-05-16 12:43:08.003 -0400,11124.793135,0.3610992431640625,0.425445556640625,-0.173675537109375,1,0.96
2020-05-16 12:43:08.073 -0400,11124.862985,0.374969482421875,0.412017822265625,-0.194183349609375,1,0.96
2020-05-16 12:43:08.143 -0400,11124.932836,0.7047576904296875,0.4989776611328125,-0.1309051513671875,1,0.96
2020-05-16 12:43:08.213 -0400,11125.002687,1.104995727539062,0.45947265625,-0.0550079345703125,1,0.96
2020-05-16 12:43:08.283 -0400,11125.072541,1.997802734375,0.9016571044921875,0.207244873046875,1,0.96
2020-05-16 12:43:08.353 -0400,11125.142398,1.481109619140625,0.4592437744140625,-0.404571533203125,1,0.96
2020-05-16 12:43:08.422 -0400,11125.212249,0.9916229248046875,0.498931884765625,-0.023223876953125,1,0.96
2020-05-16 12:43:08.492 -0400,11125.282101,0.6475982666015625,0.2761077880859375,0.0532989501953125,1,0.96
2020-05-16 12:43:08.562 -0400,11125.35196,0.4233856201171875,0.209564208984375,0.0713958740234375,1,0.96
2020-05-16 12:43:08.632 -0400,11125.421818,0.3348236083984375,0.1580810546875,0.075042724609375,1,0.96
2020-05-16 12:43:08.702 -0400,11125.491672,0.3600616455078125,0.1815032958984375,0.1407318115234375,1,0.96
2020-05-16 12:43:08.772 -0400,11125.56152466667,0.5547943115234375,0.3697662353515625,0.131561279296875,1,0.96
2020-05-16 12:43:08.842 -0400,11125.63137766667,2.413284301757812,1.423080444335938,-0.077606201171875,1,0.96
2020-05-16 12:43:08.912 -0400,11125.70123066667,1.308029174804688,0.8853912353515625,-0.7645721435546875,1,0.96
2020-05-16 12:43:08.981 -0400,11125.77108266667,1.051422119140625,0.5556182861328125,-0.2520751953125,1,0.96
2020-05-16 12:43:09.051 -0400,11125.84093266667,0.4141387939453125,0.516082763671875,-0.28826904296875,1,0.96
2020-05-16 12:43:09.121 -0400,11125.91078566667,0.2074432373046875,0.3954620361328125,-0.111175537109375,1,0.96
2020-05-16 12:43:09.191 -0400,11125.98063466667,0.351165771484375,0.4872894287109375,-0.1688232421875,1,0.96
2020-05-16 12:43:09.261 -0400,11126.05048166667,0.72467041015625,0.56170654296875,-0.15472412109375,1,0.96
2020-05-16 12:43:09.331 -0400,11126.12032966667,0.9610748291015625,0.5923614501953125,-0.2296142578125,1,0.96
2020-05-16 12:43:09.400 -0400,11126.19018466667,2.453155517578125,1.037673950195312,-0.2723541259765625,1,0.96
2020-05-16 12:43:09.470 -0400,11126.26003666667,1.638092041015625,0.644256591796875,-0.094818115234375,1,0.96
2020-05-16 12:43:09.540 -0400,11126.32988666667,1.0277099609375,0.5636749267578125,-0.0356292724609375,1,0.96
2020-05-16 12:43:09.610 -0400,11126.39973866667,0.69671630859375,0.2917633056640625,0.00836181640625,1,0.96
2020-05-16 12:43:09.680 -0400,11126.46958466667,0.583099365234375,0.2660980224609375,0.11505126953125,1,0.96
2020-05-16 12:43:09.750 -0400,11126.539431875,0.6633758544921875,0.209136962890625,0.16619873046875,1,0.96
2020-05-16 12:43:09.819 -0400,11126.609279875,0.6356048583984375,0.3536834716796875,0.158233642578125,1,0.96
2020-05-16 12:43:09.889 -0400,11126.679127875,0.3935546875,0.346588134765625,0.043731689453125,1,0.96
2020-05-16 12:43:09.959 -0400,11126.748975875,0.758697509765625,0.5467376708984375,-0.06787109375,1,0.96
2020-05-16 12:43:10.029 -0400,11126.818820875,1.580276489257812,0.708709716796875,-0.064453125,1,0.96
2020-05-16 12:43:10.099 -0400,11126.888664875,1.43994140625,0.945526123046875,-0.40472412109375,1,0.96
2020-05-16 12:43:10.169 -0400,11126.958513875,1.27191162109375,0.631622314453125,-0.47802734375,1,0.96
2020-05-16 12:43:10.239 -0400,11127.028358875,0.5370635986328125,0.574005126953125,-0.277099609375,1,0.96
2020-05-16 12:43:10.308 -0400,11127.098204875,0.29974365234375,0.40240478515625,-0.197540283203125,1,0.96
2020-05-16 12:43:10.378 -0400,11127.168056875,0.4691925048828125,0.3983001708984375,-0.1724853515625,1,0.96
2020-05-16 12:43:10.448 -0400,11127.237904875,0.94024658203125,0.5388641357421875,-0.1293792724609375,1,0.96
2020-05-16 12:43:10.518 -0400,11127.307753875,0.8593902587890625,0.535064697265625,-0.2261199951171875,1,0.96
2020-05-16 12:43:10.588 -0400,11127.377599875,0.8688812255859375,0.4580841064453125,-0.1782379150390625,1,0.96
2020-05-16 12:43:10.658 -0400,11127.447447875,1.452987670898438,0.6813812255859375,-0.0740966796875,1,0.96
2020-05-16 12:43:10.727 -0400,11127.517299,1.090301513671875,0.4689788818359375,-0.0870513916015625,1,0.96
2020-05-16 12:43:10.798 -0400,11127.587152,1.226852416992188,0.46673583984375,-0.029571533203125,1,0.96
2020-05-16 12:43:10.867 -0400,11127.657003,0.6744232177734375,0.3451690673828125,-0.0329437255859375,1,0.96
2020-05-16 12:43:10.937 -0400,11127.726854,0.5804290771484375,0.3401947021484375,-0.0320892333984375,1,0.96
2020-05-16 12:43:11.007 -0400,11127.796706,0.583953857421875,0.2985992431640625,-0.0491485595703125,1,0.96
2020-05-16 12:43:11.077 -0400,11127.866563,0.6072845458984375,0.32073974609375,-0.0801544189453125,1,0.96
2020-05-16 12:43:11.147 -0400,11127.936417,0.5359039306640625,0.4225311279296875,-0.1194610595703125,1,0.96
2020-05-16 12:43:11.217 -0400,11128.006267,0.69464111328125,0.594024658203125,-0.18621826171875,1,0.96
2020-05-16 12:43:11.286 -0400,11128.076111,2.03216552734375,1.024215698242188,-0.226470947265625,1,0.96
2020-05-16 12:43:11.356 -0400,11128.145959,1.1802978515625,0.6309814453125,-0.30853271484375,1,0.96
2020-05-16 12:43:11.426 -0400,11128.21581,0.99749755859375,0.5295867919921875,-0.1125640869140625,1,0.96
2020-05-16 12:43:11.496 -0400,11128.285654,0.497589111328125,0.33367919921875,-0.2287139892578125,1,0.96
2020-05-16 12:43:11.566 -0400,11128.355501,0.198883056640625,0.390777587890625,-0.0753173828125,1,0.96
2020-05-16 12:43:11.636 -0400,11128.425346,0.2716217041015625,0.3157196044921875,-0.0658111572265625,1,0.96
2020-05-16 12:43:11.705 -0400,11128.495188,0.698638916015625,0.4188995361328125,-0.0980987548828125,1,0.96
2020-05-16 12:43:11.775 -0400,11128.565033875,0.930908203125,0.4712982177734375,-0.103302001953125,1,0.96
2020-05-16 12:43:11.845 -0400,11128.634873875,0.7206878662109375,0.548614501953125,-0.3258056640625,1,0.96
2020-05-16 12:43:11.915 -0400,11128.704716875,0.5743255615234375,0.51177978515625,-0.3158721923828125,1,0.96
2020-05-16 12:43:11.985 -0400,11128.774559875,1.779891967773438,0.9464569091796875,-0.572967529296875,1,0.96
2020-05-16 12:43:12.055 -0400,11128.844405875,1.802963256835938,0.5890655517578125,0.2976531982421875,1,0.96
2020-05-16 12:43:12.125 -0400,11128.914249875,1.2515869140625,0.4093170166015625,-0.131866455078125,1,0.96
2020-05-16 12:43:12.194 -0400,11128.984095875,0.60980224609375,0.3830413818359375,0.018707275390625,1,0.96
2020-05-16 12:43:12.264 -0400,11129.053943875,0.404327392578125,0.223388671875,0.048095703125,1,0.96
2020-05-16 12:43:12.334 -0400,11129.123790875,0.3338623046875,0.1959686279296875,-0.02264404296875,1,0.96
2020-05-16 12:43:12.404 -0400,11129.193640875,0.4060821533203125,0.2730255126953125,-0.00811767578125,1,0.96
2020-05-16 12:43:12.474 -0400,11129.263491875,0.4925994873046875,0.30926513671875,-0.046234130859375,1,0.96
2020-05-16 12:43:12.543 -0400,11129.333339875,0.8749847412109375,0.4736328125,-0.0505828857421875,1,0.96
2020-05-16 12:43:12.613 -0400,11129.403185875,1.901123046875,1.258132934570312,-0.389862060546875,1,0.96
2020-05-16 12:43:12.683 -0400,11129.473031875,1.372100830078125,0.7941436767578125,-0.327789306640625,1,0.96
2020-05-16 12:43:12.753 -0400,11129.54287679167,1.074752807617188,0.3414764404296875,-0.20330810546875,1,0.96
2020-05-16 12:43:12.823 -0400,11129.61272279167,0.4383392333984375,0.4654388427734375,-0.3008880615234375,1,0.96
2020-05-16 12:43:12.893 -0400,11129.68256979167,0.3292999267578125,0.4826812744140625,-0.140380859375,1,0.96
2020-05-16 12:43:12.963 -0400,11129.75241779167,0.4481964111328125,0.350921630859375,-0.07843017578125,1,0.96
2020-05-16 12:43:13.033 -0400,11129.82226679167,0.522857666015625,0.4415435791015625,-0.139801025390625,1,0.96
2020-05-16 12:43:13.102 -0400,11129.89211479167,0.9123992919921875,0.5133209228515625,-0.1019134521484375,1,0.96
2020-05-16 12:43:13.172 -0400,11129.96196679167,1.90142822265625,0.85076904296875,-0.148345947265625,1,0.96
2020-05-16 12:43:13.242 -0400,11130.03181779167,1.730575561523438,0.499420166015625,-0.2207183837890625,1,0.96
2020-05-16 12:43:13.312 -0400,11130.10166379167,1.109634399414062,0.5357818603515625,-0.14385986328125,1,0.96
2020-05-16 12:43:13.382 -0400,11130.17151179167,0.5999603271484375,0.3243865966796875,-0.0446929931640625,1,0.96
2020-05-16 12:43:13.451 -0400,11130.24135879167,0.4231109619140625,0.2705841064453125,0.0110321044921875,1,0.96
2020-05-16 12:43:13.521 -0400,11130.31120679167,0.50250244140625,0.230865478515625,-0.0012664794921875,1,0.96
2020-05-16 12:43:13.591 -0400,11130.38105779167,0.93890380859375,0.2620086669921875,0.11151123046875,1,0.96
2020-05-16 12:43:13.662 -0400,11130.45090979167,1.075469970703125,0.39630126953125,0.1446533203125,1,0.96
2020-05-16 12:43:13.731 -0400,11130.52076,1.670120239257812,0.7426910400390625,-0.1480865478515625,1,0.96
2020-05-16 12:43:13.801 -0400,11130.59061,0.868499755859375,0.7622528076171875,-0.6577911376953125,1,0.96
2020-05-16 12:43:13.871 -0400,11130.660458,1.113037109375,0.2339019775390625,-0.0977783203125,1,0.96
2020-05-16 12:43:13.940 -0400,11130.73031,0.7164764404296875,0.21221923828125,-0.259368896484375,1,0.96
2020-05-16 12:43:14.011 -0400,11130.800158,0.5185546875,0.579437255859375,-0.3152618408203125,1,0.96
2020-05-16 12:43:14.080 -0400,11130.870003,0.5805511474609375,0.536102294921875,-0.2972564697265625,1,0.96
2020-05-16 12:43:14.150 -0400,11130.93985,0.73492431640625,0.4418182373046875,-0.2291259765625,1,0.96
2020-05-16 12:43:14.220 -0400,11131.009694,0.778076171875,0.3653106689453125,-0.1902313232421875,1,0.96
2020-05-16 12:43:14.290 -0400,11131.079538,0.78948974609375,0.4176025390625,-0.1588592529296875,1,0.96
2020-05-16 12:43:14.359 -0400,11131.149386,0.9225311279296875,0.52618408203125,-0.0647735595703125,1,0.96
2020-05-16 12:43:14.429 -0400,11131.219236,2.33782958984375,1.129318237304688,-0.511993408203125,1,0.96
2020-05-16 12:43:14.499 -0400,11131.28908,1.76678466796875,0.255889892578125,-0.2093505859375,1,0.96
2020-05-16 12:43:14.569 -0400,11131.358926,1.39794921875,0.4748077392578125,0.0527496337890625,1,0.96
2020-05-16 12:43:14.639 -0400,11131.428772,0.916046142578125,0.369171142578125,-0.0389404296875,1,0.96
2020-05-16 12:43:14.709 -0400,11131.498618,0.561737060546875,0.1927032470703125,0.0158843994140625,1,0.96
2020-05-16 12:43:14.779 -0400,11131.5684625,0.4329986572265625,0.1178131103515625,-0.000152587890625,1,0.96
2020-05-16 12:43:14.848 -0400,11131.6383095,0.3653106689453125,0.086639404296875,-0.00164794921875,1,0.96
2020-05-16 12:43:14.918 -0400,11131.7081585,0.3682708740234375,0.1711883544921875,0.0776214599609375,1,0.96
2020-05-16 12:43:14.989 -0400,11131.7780105,0.6728668212890625,0.76129150390625,-0.1339569091796875,1,0.96
2020-05-16 12:43:15.058 -0400,11131.8478605,2.627365112304688,1.072998046875,-0.31915283203125,1,0.96
2020-05-16 12:43:15.128 -0400,11131.9177095,1.364120483398438,0.8948516845703125,-0.5811920166015625,1,0.96
2020-05-16 12:43:15.200 -0400,11131.9875605,0.8845062255859375,0.3316802978515625,-0.2109832763671875,1,0.96
2020-05-16 12:43:15.268 -0400,11132.0574115,0.4422760009765625,0.650299072265625,-0.1940155029296875,1,0.96
2020-05-16 12:43:15.338 -0400,11132.1272565,0.176605224609375,0.67840576171875,-0.0919342041015625,1,0.96
2020-05-16 12:43:15.407 -0400,11132.1971065,0.89105224609375,0.9143218994140625,-0.3179931640625,1,0.96
2020-05-16 12:43:15.477 -0400,11132.2669555,1.45709228515625,0.50079345703125,-0.121734619140625,1,0.96
2020-05-16 12:43:15.547 -0400,11132.3368015,1.3653564453125,0.53662109375,-0.30902099609375,1,0.96
2020-05-16 12:43:15.617 -0400,11132.4066525,1.72747802734375,0.5410003662109375,-0.0347900390625,1,0.96
2020-05-16 12:43:15.687 -0400,11132.4765005,1.583740234375,0.318023681640625,-0.089263916015625,1,0.96
2020-05-16 12:43:15.756 -0400,11132.54634825,1.002044677734375,0.2861785888671875,-0.0905303955078125,1,0.96
2020-05-16 12:43:15.826 -0400,11132.61619525,0.663299560546875,0.2324676513671875,-0.0258636474609375,1,0.96
2020-05-16 12:43:15.896 -0400,11132.68604225,0.4760894775390625,0.169464111328125,-0.021575927734375,1,0.96
2020-05-16 12:43:15.966 -0400,11132.75589025,0.4364013671875,0.220184326171875,0.0240020751953125,1,0.96
2020-05-16 12:43:16.036 -0400,11132.82573625,0.5249481201171875,0.3492584228515625,0.0103912353515625,1,0.96
2020-05-16 12:43:16.106 -0400,11132.89558225,0.7982940673828125,0.6253814697265625,0.022003173828125,1,0.96
2020-05-16 12:43:16.175 -0400,11132.96542925,1.124099731445312,0.63507080078125,-0.0455322265625,1,0.96
2020-05-16 12:43:16.246 -0400,11133.03528125,1.312896728515625,0.818328857421875,-0.1103668212890625,1,0.96
2020-05-16 12:43:16.315 -0400,11133.10513925,0.9743804931640625,0.584930419921875,-0.2027130126953125,1,0.96
2020-05-16 12:43:16.385 -0400,11133.17499025,0.7633819580078125,0.4775238037109375,-0.2785797119140625,1,0.96
2020-05-16 12:43:16.455 -0400,11133.24483625,2.596481323242188,0.9964141845703125,-0.328216552734375,1,0.96
2020-05-16 12:43:16.525 -0400,11133.31468725,0.8570556640625,0.644683837890625,-0.86090087890625,1,0.96
2020-05-16 12:43:16.595 -0400,11133.38453825,0.409332275390625,0.487213134765625,-0.402740478515625,1,0.96
2020-05-16 12:43:16.665 -0400,11133.45439125,0.106781005859375,-0.022979736328125,-0.2633514404296875,1,0.96
2020-05-16 12:43:16.735 -0400,11133.52424541667,0.171112060546875,0.267608642578125,-0.2373199462890625,1,0.96
2020-05-16 12:43:16.804 -0400,11133.59409841667,1.42218017578125,0.72216796875,-0.1326904296875,1,0.96
2020-05-16 12:43:16.874 -0400,11133.66394941667,1.529891967773438,0.5825347900390625,0.059478759765625,1,0.96
2020-05-16 12:43:16.944 -0400,11133.73379841667,1.144424438476562,0.368072509765625,-0.1782989501953125,1,0.96
2020-05-16 12:43:17.014 -0400,11133.80365341667,1.114837646484375,0.5433349609375,0.0008544921875,1,0.96
2020-05-16 12:43:17.084 -0400,11133.87350541667,0.6694488525390625,0.3092498779296875,-0.1075286865234375,1,0.96
2020-05-16 12:43:17.154 -0400,11133.94335741667,0.6654815673828125,0.3082733154296875,-0.0478668212890625,1,0.96
2020-05-16 12:43:17.223 -0400,11134.01321241667,0.6755523681640625,0.252410888671875,-0.0836944580078125,1,0.96
2020-05-16 12:43:17.293 -0400,11134.08306741667,0.771697998046875,0.3231353759765625,-0.102935791015625,1,0.96
2020-05-16 12:43:17.363 -0400,11134.15292441667,1.091506958007812,0.464813232421875,0.027008056640625,1,0.96
2020-05-16 12:43:17.433 -0400,11134.22277641667,0.60931396484375,0.57305908203125,-0.171539306640625,1,0.96
2020-05-16 12:43:17.503 -0400,11134.29262941667,0.6458740234375,0.36334228515625,-0.0146942138671875,1,0.96
2020-05-16 12:43:17.573 -0400,11134.36248441667,1.622833251953125,0.6529083251953125,-0.088836669921875,1,0.96
2020-05-16 12:43:17.642 -0400,11134.43233841667,0.593475341796875,0.7546539306640625,-0.25701904296875,1,0.96
2020-05-16 12:43:17.712 -0400,11134.50218841667,0.80035400390625,0.3801727294921875,-0.2675628662109375,1,0.96
2020-05-16 12:43:17.782 -0400,11134.57203841667,0.6067047119140625,0.4550323486328125,-0.1848602294921875,1,0.96
2020-05-16 12:43:17.852 -0400,11134.64189141667,0.2653656005859375,0.5384979248046875,-0.2586822509765625,1,0.96
2020-05-16 12:43:17.922 -0400,11134.71174641667,1.72119140625,1.024307250976562,-0.66668701171875,1,0.96
2020-05-16 12:43:17.992 -0400,11134.78160241667,1.762680053710938,0.3812255859375,0.2921295166015625,1,0.96
2020-05-16 12:43:18.062 -0400,11134.85144941667,1.307510375976562,0.35821533203125,-0.279388427734375,1,0.96
2020-05-16 12:43:18.131 -0400,11134.92130041667,0.8922271728515625,0.4410400390625,0.1392974853515625,1,0.96
2020-05-16 12:43:18.201 -0400,11134.99115041667,0.77227783203125,0.209930419921875,0.1702728271484375,1,0.96
2020-05-16 12:43:18.271 -0400,11135.06100241667,0.7154998779296875,0.19586181640625,0.1082916259765625,1,0.96
2020-05-16 12:43:18.342 -0400,11135.13085541667,0.7152557373046875,0.095001220703125,0.1363677978515625,1,0.96
2020-05-16 12:43:18.411 -0400,11135.20070641667,1.166183471679688,0.1832275390625,0.2361907958984375,1,0.96
2020-05-16 12:43:18.481 -0400,11135.27055941667,0.7568511962890625,0.9698944091796875,-0.53546142578125,1,0.96
2020-05-16 12:43:18.551 -0400,11135.34041041667,1.163833618164062,0.727386474609375,-0.409027099609375,1,0.96
2020-05-16 12:43:18.620 -0400,11135.41026241667,0.9595794677734375,0.73028564453125,-0.3846435546875,1,0.96
2020-05-16 12:43:18.690 -0400,11135.48011141667,0.63031005859375,0.6655731201171875,-0.2730560302734375,1,0.96
2020-05-16 12:43:18.760 -0400,11135.549958375,0.51824951171875,0.4992218017578125,-0.2771759033203125,1,0.96
2020-05-16 12:43:18.830 -0400,11135.619805375,0.5625762939453125,0.6486663818359375,-0.342620849609375,1,0.96
2020-05-16 12:43:18.900 -0400,11135.689656375,0.6960601806640625,0.4835357666015625,-0.1637725830078125,1,0.96
2020-05-16 12:43:18.970 -0400,11135.759504375,1.924484252929688,0.566986083984375,0.2076873779296875,1,0.96
2020-05-16 12:43:19.039 -0400,11135.829350375,1.67919921875,-0.0483551025390625,-0.2957611083984375,1,0.96
2020-05-16 12:43:19.109 -0400,11135.899201375,0.9590301513671875,0.796173095703125,-0.0361175537109375,1,0.96
2020-05-16 12:43:19.179 -0400,11135.969047375,0.58758544921875,0.3443145751953125,-0.0139617919921875,1,0.96
2020-05-16 12:43:19.257 -0400,11136.038896375,0.7604522705078125,0.208221435546875,0.1934356689453125,1,0.96
2020-05-16 12:43:19.319 -0400,11136.108745375,0.9217071533203125,0.210845947265625,0.2124176025390625,1,0.96
2020-05-16 12:43:19.389 -0400,11136.178595375,0.8063201904296875,0.3422698974609375,0.0829315185546875,1,0.96
2020-05-16 12:43:19.459 -0400,11136.248446375,1.052139282226562,0.3726654052734375,0.044158935546875,1,0.96
2020-05-16 12:43:19.528 -0400,11136.318291375,1.40631103515625,0.7281951904296875,-0.542449951171875,1,0.96
2020-05-16 12:43:19.598 -0400,11136.388131375,1.269134521484375,0.3489990234375,-0.6961822509765625,1,0.96
2020-05-16 12:43:19.668 -0400,11136.457969375,0.8244476318359375,0.0677032470703125,-0.243621826171875,1,0.96
2020-05-16 12:43:19.738 -0400,11136.527811875,0.5526885986328125,0.6804351806640625,-0.332000732421875,1,0.96
2020-05-16 12:43:19.808 -0400,11136.597659875,0.759185791015625,0.5321502685546875,-0.2578277587890625,1,0.96
2020-05-16 12:43:19.878 -0400,11136.667505875,0.91949462890625,0.614166259765625,-0.2434539794921875,1,0.96
2020-05-16 12:43:19.947 -0400,11136.737357875,0.6588592529296875,0.4553375244140625,-0.2615814208984375,1,0.96
2020-05-16 12:43:20.017 -0400,11136.807209875,0.7257232666015625,0.39776611328125,-0.2493438720703125,1,0.96
2020-05-16 12:43:20.087 -0400,11136.877052875,0.7418212890625,0.349761962890625,-0.221038818359375,1,0.96
2020-05-16 12:43:20.157 -0400,11136.946897875,1.275161743164062,0.570159912109375,-0.2859344482421875,1,0.96
2020-05-16 12:43:20.227 -0400,11137.016744875,1.367080688476562,0.4892730712890625,-0.0953216552734375,1,0.96
2020-05-16 12:43:20.297 -0400,11137.086593875,1.444900512695312,0.3494110107421875,-0.2249603271484375,1,0.96
2020-05-16 12:43:20.367 -0400,11137.156439875,0.9078369140625,0.4055328369140625,-0.1085357666015625,1,0.96
2020-05-16 12:43:20.436 -0400,11137.226288875,0.5185089111328125,0.271270751953125,-0.07366943359375,1,0.96
2020-05-16 12:43:20.506 -0400,11137.296135875,0.4996185302734375,0.3180999755859375,-0.0466766357421875,1,0.96
2020-05-16 12:43:20.576 -0400,11137.365983875,0.661956787109375,0.297271728515625,-0.0240020751953125,1,0.96
2020-05-16 12:43:20.646 -0400,11137.435832875,0.7896270751953125,0.3310394287109375,-0.00128173828125,1,0.96
2020-05-16 12:43:20.716 -0400,11137.505679875,0.853240966796875,0.417877197265625,-0.078582763671875,1,0.96
2020-05-16 12:43:20.786 -0400,11137.575527125,1.294235229492188,0.5164337158203125,-0.3020477294921875,1,0.96
2020-05-16 12:43:20.855 -0400,11137.645372125,1.310562133789062,0.4586944580078125,-0.2659149169921875,1,0.96
2020-05-16 12:43:20.925 -0400,11137.715221125,1.209381103515625,0.6020660400390625,-0.4836578369140625,1,0.96
2020-05-16 12:43:20.995 -0400,11137.785069125,0.840576171875,0.3887176513671875,-0.444549560546875,1,0.96
2020-05-16 12:43:21.065 -0400,11137.854917125,0.6258697509765625,0.3827972412109375,-0.343475341796875,1,0.96
2020-05-16 12:43:21.135 -0400,11137.924765125,0.3947296142578125,0.5479583740234375,-0.4429473876953125,1,0.96
2020-05-16 12:43:21.205 -0400,11137.994615125,0.4738006591796875,0.7049560546875,-0.490631103515625,1,0.96
2020-05-16 12:43:21.275 -0400,11138.064462125,0.728546142578125,0.54345703125,-0.23828125,1,0.96
2020-05-16 12:43:21.345 -0400,11138.134314125,2.552520751953125,0.9027099609375,-0.5638580322265625,1,0.96
2020-05-16 12:43:21.414 -0400,11138.204163125,1.69439697265625,0.1974639892578125,-0.1134033203125,1,0.96
2020-05-16 12:43:21.484 -0400,11138.274010125,1.3956298828125,0.60198974609375,0.0678863525390625,1,0.96
2020-05-16 12:43:21.554 -0400,11138.343857125,0.8029327392578125,0.4363861083984375,-0.035736083984375,1,0.96
2020-05-16 12:43:21.624 -0400,11138.413699125,0.643463134765625,0.3675537109375,0.050933837890625,1,0.96
2020-05-16 12:43:21.694 -0400,11138.483545125,0.5468292236328125,0.17486572265625,0.1087799072265625,1,0.96
2020-05-16 12:43:21.764 -0400,11138.55339075,0.4263458251953125,0.1486663818359375,0.0436248779296875,1,0.96
2020-05-16 12:43:21.833 -0400,11138.62323475,0.3592529296875,0.2349853515625,-0.04095458984375,1,0.96
2020-05-16 12:43:21.903 -0400,11138.69307875,0.4690093994140625,0.402740478515625,-0.13153076171875,1,0.96
2020-05-16 12:43:21.973 -0400,11138.76292175,1.456146240234375,0.946258544921875,-0.224334716796875,1,0.96
2020-05-16 12:43:22.043 -0400,11138.83276575,1.910125732421875,1.22845458984375,-0.770477294921875,1,0.96
2020-05-16 12:43:22.113 -0400,11138.90261375,1.441421508789062,0.691253662109375,-0.527984619140625,1,0.96
2020-05-16 12:43:22.183 -0400,11138.97246075,0.7189483642578125,0.3448028564453125,-0.31085205078125,1,0.96
2020-05-16 12:43:22.253 -0400,11139.04230775,0.3482666015625,0.5016632080078125,-0.2732086181640625,1,0.96
2020-05-16 12:43:22.323 -0400,11139.11215275,0.2573394775390625,0.6597747802734375,-0.3217620849609375,1,0.96
2020-05-16 12:43:22.392 -0400,11139.18199975,0.5591278076171875,0.46441650390625,-0.35882568359375,1,0.96
2020-05-16 12:43:22.462 -0400,11139.25184275,0.8405303955078125,0.27484130859375,-0.334564208984375,1,0.96
2020-05-16 12:43:22.532 -0400,11139.32168475,1.173751831054688,0.3838348388671875,-0.319610595703125,1,0.96
2020-05-16 12:43:22.602 -0400,11139.39152975,1.787826538085938,0.627349853515625,-0.239532470703125,1,0.96
2020-05-16 12:43:22.672 -0400,11139.46137375,1.691665649414062,0.490509033203125,-0.44622802734375,1,0.96
2020-05-16 12:43:22.741 -0400,11139.531218,1.025161743164062,0.5367889404296875,-0.1715545654296875,1,0.96
2020-05-16 12:43:22.811 -0400,11139.601066,0.673675537109375,0.314453125,-0.1038970947265625,1,0.96
2020-05-16 12:43:22.881 -0400,11139.670916,0.5595855712890625,0.2021331787109375,-0.002197265625,1,0.96
2020-05-16 12:43:22.951 -0400,11139.740766,0.4613800048828125,0.262908935546875,-0.0589141845703125,1,0.96
2020-05-16 12:43:23.021 -0400,11139.810616,0.521331787109375,0.2584686279296875,0.004547119140625,1,0.96
2020-05-16 12:43:23.091 -0400,11139.880466,0.657318115234375,0.283966064453125,0.0194549560546875,1,0.96
2020-05-16 12:43:23.160 -0400,11139.950312,1.21014404296875,0.3952484130859375,-0.0641021728515625,1,0.96
2020-05-16 12:43:23.230 -0400,11140.020159,1.567520141601562,0.850799560546875,-0.57568359375,1,0.96
2020-05-16 12:43:23.300 -0400,11140.090009,1.52911376953125,0.56878662109375,-0.6693267822265625,1,0.96
2020-05-16 12:43:23.370 -0400,11140.159859,0.9377593994140625,-0.18792724609375,-0.394744873046875,1,0.96
2020-05-16 12:43:23.440 -0400,11140.229708,0.5060577392578125,0.327850341796875,-0.296478271484375,1,0.96
2020-05-16 12:43:23.510 -0400,11140.299556,0.390106201171875,0.5295867919921875,-0.398529052734375,1,0.96
2020-05-16 12:43:23.580 -0400,11140.369405,0.5485992431640625,0.501007080078125,-0.3860015869140625,1,0.96
2020-05-16 12:43:23.649 -0400,11140.439255,0.911407470703125,0.4260406494140625,-0.361114501953125,1,0.96
2020-05-16 12:43:23.719 -0400,11140.509107,1.089584350585938,0.2822113037109375,-0.326629638671875,1,0.96
2020-05-16 12:43:23.789 -0400,11140.578953625,1.856658935546875,0.492431640625,-0.523345947265625,1,0.96
2020-05-16 12:43:23.859 -0400,11140.648803625,1.34527587890625,0.2606353759765625,-0.1518096923828125,1,0.96
2020-05-16 12:43:23.929 -0400,11140.718656625,1.523147583007812,0.3707275390625,-0.01123046875,1,0.96
2020-05-16 12:43:23.999 -0400,11140.788510625,0.771148681640625,0.4351654052734375,-0.08123779296875,1,0.96
2020-05-16 12:43:24.068 -0400,11140.858363625,0.6562042236328125,0.3639678955078125,0.038909912109375,1,0.96
2020-05-16 12:43:24.138 -0400,11140.928215625,0.632843017578125,0.1903533935546875,0.11102294921875,1,0.96
2020-05-16 12:43:24.208 -0400,11140.998068625,0.6206207275390625,0.2393798828125,0.0635528564453125,1,0.96
2020-05-16 12:43:24.278 -0400,11141.067918625,0.657012939453125,0.2563629150390625,0.1018524169921875,1,0.96
2020-05-16 12:43:24.348 -0400,11141.137763625,0.9876708984375,0.490997314453125,-0.120025634765625,1,0.96
2020-05-16 12:43:24.418 -0400,11141.207610625,1.162811279296875,0.580413818359375,-0.528900146484375,1,0.96
2020-05-16 12:43:24.487 -0400,11141.277458625,1.4649658203125,0.4406585693359375,-0.3133087158203125,1,0.96
2020-05-16 12:43:24.557 -0400,11141.347308625,0.8645477294921875,0.4175872802734375,-0.5242919921875,1,0.96
2020-05-16 12:43:24.627 -0400,11141.417157625,0.59442138671875,0.3382110595703125,-0.3558807373046875,1,0.96
2020-05-16 12:43:24.697 -0400,11141.487006625,0.567108154296875,0.3671722412109375,-0.4456329345703125,1,0.96
2020-05-16 12:43:24.767 -0400,11141.55685729167,0.4798431396484375,0.3148193359375,-0.440093994140625,1,0.96
2020-05-16 12:43:24.837 -0400,11141.62670229167,0.6262359619140625,0.3661651611328125,-0.427276611328125,1,0.96
2020-05-16 12:43:24.907 -0400,11141.69654129167,1.033828735351562,0.0535888671875,-0.329315185546875,1,0.96
2020-05-16 12:43:24.977 -0400,11141.76638429167,2.391799926757812,0.3239898681640625,-0.091827392578125,1,0.96
2020-05-16 12:43:25.057 -0400,11141.83622929167,1.862289428710938,0.3401947021484375,-0.51861572265625,1,0.96
2020-05-16 12:43:25.116 -0400,11141.90607329167,1.021621704101562,0.728912353515625,-0.05096435546875,1,0.96
2020-05-16 12:43:25.186 -0400,11141.97591829167,0.5901641845703125,0.3438568115234375,0.025115966796875,1,0.96
2020-05-16 12:43:25.256 -0400,11142.04576029167,0.3492889404296875,0.1308746337890625,0.0174560546875,1,0.96
2020-05-16 12:43:25.326 -0400,11142.11560329167,0.3777313232421875,0.207061767578125,-0.023040771484375,1,0.96
2020-05-16 12:43:25.396 -0400,11142.18544629167,0.6298980712890625,0.2586517333984375,0.0382232666015625,1,0.96
2020-05-16 12:43:25.466 -0400,11142.25529029167,1.259445190429688,0.3812103271484375,0.006103515625,1,0.96
2020-05-16 12:43:25.535 -0400,11142.32513329167,1.53094482421875,0.8143157958984375,-0.5961456298828125,1,0.96
2020-05-16 12:43:25.605 -0400,11142.39497629167,1.284271240234375,0.486480712890625,-0.37701416015625,1,0.96
2020-05-16 12:43:25.675 -0400,11142.46481929167,0.8578033447265625,0.69573974609375,-0.3484649658203125,1,0.96
2020-05-16 12:43:25.745 -0400,11142.534665875,0.589813232421875,0.4836883544921875,-0.2810516357421875,1,0.96
2020-05-16 12:43:25.815 -0400,11142.604512875,0.55902099609375,0.4835357666015625,-0.4002532958984375,1,0.96
2020-05-16 12:43:25.885 -0400,11142.674358875,0.7572784423828125,0.5862274169921875,-0.4323272705078125,1,0.96
2020-05-16 12:43:25.954 -0400,11142.744198875,1.289321899414062,0.4810943603515625,-0.3056793212890625,1,0.96
2020-05-16 12:43:26.024 -0400,11142.814042875,1.479400634765625,0.8179473876953125,-0.15032958984375,1,0.96
2020-05-16 12:43:26.094 -0400,11142.883884875,1.514251708984375,-0.428985595703125,-0.170654296875,1,0.96
2020-05-16 12:43:26.164 -0400,11142.953724875,1.106338500976562,0.69775390625,0.1699371337890625,1,0.96
2020-05-16 12:43:26.234 -0400,11143.023569875,0.712005615234375,0.617767333984375,-0.0514984130859375,1,0.96
2020-05-16 12:43:26.307 -0400,11143.093416875,0.6663665771484375,0.338043212890625,0.100006103515625,1,0.96
2020-05-16 12:43:26.374 -0400,11143.163264875,0.7017364501953125,0.2645721435546875,0.0419464111328125,1,0.96
2020-05-16 12:43:26.443 -0400,11143.233113875,0.614288330078125,0.2573699951171875,0.083709716796875,1,0.96
2020-05-16 12:43:26.513 -0400,11143.302962875,0.965576171875,0.3314666748046875,0.0778350830078125,1,0.96
2020-05-16 12:43:26.583 -0400,11143.372812875,1.065155029296875,0.568145751953125,-0.2556304931640625,1,0.96
2020-05-16 12:43:26.653 -0400,11143.442661875,1.377471923828125,0.7693939208984375,-0.735076904296875,1,0.96
2020-05-16 12:43:26.723 -0400,11143.512510875,0.9627227783203125,-0.392059326171875,-0.547515869140625,1,0.96
2020-05-16 12:43:26.793 -0400,11143.58235866667,0.5125885009765625,0.5375213623046875,-0.4838409423828125,1,0.96
2020-05-16 12:43:26.862 -0400,11143.65220466667,0.43499755859375,0.4481658935546875,-0.3614654541015625,1,0.96
2020-05-16 12:43:26.932 -0400,11143.72204966667,0.7284393310546875,0.310821533203125,-0.4070892333984375,1,0.96
2020-05-16 12:43:27.002 -0400,11143.79189466667,0.71649169921875,0.3502960205078125,-0.2219085693359375,1,0.96
2020-05-16 12:43:27.072 -0400,11143.86173766667,1.433059692382812,0.5234527587890625,-0.1737213134765625,1,0.96
2020-05-16 12:43:27.142 -0400,11143.93157866667,1.593612670898438,0.6670074462890625,-0.213623046875,1,0.96
2020-05-16 12:43:27.212 -0400,11144.00141966667,1.611328125,0.39251708984375,-0.2245941162109375,1,0.96
2020-05-16 12:43:27.281 -0400,11144.07126466667,0.796417236328125,0.386932373046875,-0.1059417724609375,1,0.96
2020-05-16 12:43:27.351 -0400,11144.14111066667,0.452178955078125,0.2997283935546875,-0.1090240478515625,1,0.96
2020-05-16 12:43:27.421 -0400,11144.21095766667,0.4425201416015625,0.1821136474609375,-0.0587615966796875,1,0.96
2020-05-16 12:43:27.491 -0400,11144.28080366667,0.7850799560546875,0.172515869140625,0.0393524169921875,1,0.96
2020-05-16 12:43:27.561 -0400,11144.35064666667,0.954986572265625,0.2773284912109375,-0.01507568359375,1,0.96
2020-05-16 12:43:27.631 -0400,11144.42048966667,1.779006958007812,0.8530120849609375,-0.2770233154296875,1,0.96
2020-05-16 12:43:27.701 -0400,11144.49033066667,1.035446166992188,0.58380126953125,-0.8844451904296875,1,0.96
2020-05-16 12:43:27.770 -0400,11144.56017241667,0.6497955322265625,-0.26531982421875,-0.2199859619140625,1,0.96
2020-05-16 12:43:27.840 -0400,11144.63001641667,0.56732177734375,0.321319580078125,-0.1774749755859375,1,0.96
2020-05-16 12:43:27.910 -0400,11144.69986241667,0.7821044921875,0.673309326171875,-0.474761962890625,1,0.96
2020-05-16 12:43:27.980 -0400,11144.76970241667,0.8785247802734375,0.60186767578125,-0.398468017578125,1,0.96
2020-05-16 12:43:28.050 -0400,11144.83954641667,1.422500610351562,0.522979736328125,-0.2516326904296875,1,0.96
2020-05-16 12:43:28.120 -0400,11144.90939341667,1.48370361328125,0.4152679443359375,-0.2006683349609375,1,0.96
2020-05-16 12:43:28.189 -0400,11144.97924141667,1.65679931640625,0.22198486328125,-0.104522705078125,1,0.96
2020-05-16 12:43:28.259 -0400,11145.04908541667,1.161376953125,0.4409027099609375,-0.1941070556640625,1,0.96
2020-05-16 12:43:28.329 -0400,11145.11893241667,0.7066650390625,0.3303375244140625,-0.0745391845703125,1,0.96
2020-05-16 12:43:28.399 -0400,11145.18877841667,0.47216796875,0.1583099365234375,0.010894775390625,1,0.96
2020-05-16 12:43:28.469 -0400,11145.25862641667,0.3283538818359375,0.08184814453125,0.0472412109375,1,0.96
2020-05-16 12:43:28.539 -0400,11145.32847541667,0.4954986572265625,0.1983795166015625,0.0114898681640625,1,0.96
2020-05-16 12:43:28.608 -0400,11145.39832141667,1.237319946289062,0.3797454833984375,0.1180877685546875,1,0.96
2020-05-16 12:43:28.678 -0400,11145.46816841667,1.806472778320312,1.111480712890625,-0.345428466796875,1,0.96
2020-05-16 12:43:28.748 -0400,11145.53801675,1.190826416015625,1.142715454101562,-0.746063232421875,1,0.96
2020-05-16 12:43:28.818 -0400,11145.60786875,0.8895111083984375,0.29754638671875,-0.13275146484375,1,0.96
2020-05-16 12:43:28.888 -0400,11145.67771775,0.6165924072265625,0.4198455810546875,-0.4145965576171875,1,0.96
2020-05-16 12:43:28.957 -0400,11145.74756475,0.2088623046875,0.5959930419921875,-0.434906005859375,1,0.96
2020-05-16 12:43:29.028 -0400,11145.81741075,0.701995849609375,0.841644287109375,-0.553466796875,1,0.96
2020-05-16 12:43:29.097 -0400,11145.88726175,1.612564086914062,0.170623779296875,-0.209930419921875,1,0.96
2020-05-16 12:43:29.167 -0400,11145.95710775,2.098587036132812,0.360626220703125,0.1914215087890625,1,0.96
2020-05-16 12:43:29.237 -0400,11146.02695675,1.470870971679688,0.6854248046875,-0.1363677978515625,1,0.96
2020-05-16 12:43:29.307 -0400,11146.09680475,1.031829833984375,0.410980224609375,0.0088653564453125,1,0.96
2020-05-16 12:43:29.377 -0400,11146.16665475,0.6800537109375,0.2500457763671875,0.180084228515625,1,0.96
2020-05-16 12:43:29.447 -0400,11146.23649875,0.5422821044921875,-0.0295867919921875,0.11529541015625,1,0.96
2020-05-16 12:43:29.516 -0400,11146.30634875,0.5534515380859375,-0.0422821044921875,0.07403564453125,1,0.96
2020-05-16 12:43:29.586 -0400,11146.37619775,1.026412963867188,0.613616943359375,0.11376953125,1,0.96
2020-05-16 12:43:29.657 -0400,11146.44604775,1.245773315429688,0.74871826171875,-0.98333740234375,1,0.96
2020-05-16 12:43:29.726 -0400,11146.51589675,1.547195434570312,0.655364990234375,-0.37200927734375,1,0.96
2020-05-16 12:43:29.796 -0400,11146.58574325,0.6775970458984375,1.009536743164062,-0.3269195556640625,1,0.96
2020-05-16 12:43:29.866 -0400,11146.65559025,0.4477386474609375,0.300445556640625,-0.3252105712890625,1,0.96
2020-05-16 12:43:29.936 -0400,11146.72543625,0.6465301513671875,0.6638946533203125,-0.245819091796875,1,0.96
2020-05-16 12:43:30.006 -0400,11146.79528325,1.01947021484375,0.9637451171875,-0.09844970703125,1,0.96
2020-05-16 12:43:30.075 -0400,11146.86512925,1.11920166015625,0.384979248046875,-0.3325653076171875,1,0.96
2020-05-16 12:43:30.145 -0400,11146.93497725,2.294143676757812,0.6242523193359375,-0.2546539306640625,1,0.96
2020-05-16 12:43:30.215 -0400,11147.00482525,1.7200927734375,0.321502685546875,-0.0579071044921875,1,0.96
2020-05-16 12:43:30.285 -0400,11147.07467725,1.092117309570312,0.3956756591796875,-0.15118408203125,1,0.96
2020-05-16 12:43:30.355 -0400,11147.14452525,0.6199951171875,0.34661865234375,-0.0743865966796875,1,0.96
2020-05-16 12:43:30.424 -0400,11147.21437625,0.43115234375,0.098052978515625,0.012237548828125,1,0.96
2020-05-16 12:43:30.495 -0400,11147.28422725,0.3761444091796875,0.0049285888671875,0.0575408935546875,1,0.96
2020-05-16 12:43:30.564 -0400,11147.35407825,0.520904541015625,0.268646240234375,0.06103515625,1,0.96
2020-05-16 12:43:30.634 -0400,11147.42392825,0.8654327392578125,0.8836822509765625,-0.0678558349609375,1,0.96
2020-05-16 12:43:30.704 -0400,11147.49377525,1.67431640625,0.7917022705078125,-0.351959228515625,1,0.96
2020-05-16 12:43:30.774 -0400,11147.563621125,1.540374755859375,0.818634033203125,-0.6361236572265625,1,0.96
2020-05-16 12:43:30.844 -0400,11147.633468125,0.947845458984375,0.362152099609375,-0.2177734375,1,0.96
2020-05-16 12:43:30.914 -0400,11147.703320125,0.60369873046875,0.37176513671875,-0.3314056396484375,1,0.96
2020-05-16 12:43:30.983 -0400,11147.773172125,0.3177642822265625,0.5608367919921875,-0.2145843505859375,1,0.96
2020-05-16 12:43:31.053 -0400,11147.843021125,0.4019317626953125,0.60986328125,-0.26605224609375,1,0.96
2020-05-16 12:43:31.123 -0400,11147.912869125,0.7254638671875,0.65338134765625,-0.3397979736328125,1,0.96
2020-05-16 12:43:31.193 -0400,11147.982713125,1.641342163085938,0.593994140625,-0.4123687744140625,1,0.96
2020-05-16 12:43:31.263 -0400,11148.052557125,1.428543090820312,0.527252197265625,-0.0609130859375,1,0.96
2020-05-16 12:43:31.333 -0400,11148.122401125,1.330429077148438,0.0760955810546875,-0.126068115234375,1,0.96
2020-05-16 12:43:31.402 -0400,11148.192245125,0.8246002197265625,0.5241546630859375,-0.097808837890625,1,0.96
2020-05-16 12:43:31.472 -0400,11148.262090125,0.5739593505859375,0.302215576171875,0.01092529296875,1,0.96
2020-05-16 12:43:31.543 -0400,11148.331934125,0.4511871337890625,0.1065216064453125,0.111602783203125,1,0.96
2020-05-16 12:43:31.612 -0400,11148.401779125,0.465179443359375,0.19268798828125,0.059326171875,1,0.96
2020-05-16 12:43:31.682 -0400,11148.471627125,1.684707641601562,0.8926239013671875,0.11407470703125,1,0.96
2020-05-16 12:43:31.752 -0400,11148.54147641667,1.408309936523438,0.8468475341796875,-0.6745147705078125,1,0.96
2020-05-16 12:43:31.822 -0400,11148.61132541667,1.3111572265625,0.7801361083984375,-0.303253173828125,1,0.96
2020-05-16 12:43:31.891 -0400,11148.68117041667,0.8722076416015625,0.4052734375,-0.428131103515625,1,0.96
2020-05-16 12:43:31.961 -0400,11148.75101941667,0.4307861328125,0.5756072998046875,-0.407562255859375,1,0.96
2020-05-16 12:43:32.031 -0400,11148.82086541667,0.489501953125,0.7584381103515625,-0.366119384765625,1,0.96
2020-05-16 12:43:32.101 -0400,11148.89071341667,0.7378082275390625,0.6710968017578125,-0.349517822265625,1,0.96
2020-05-16 12:43:32.171 -0400,11148.96056241667,2.496139526367188,1.222015380859375,-0.6879730224609375,1,0.96
2020-05-16 12:43:32.241 -0400,11149.03041641667,1.934494018554688,0.002532958984375,0.2019500732421875,1,0.96
2020-05-16 12:43:32.310 -0400,11149.10026441667,1.431732177734375,0.73638916015625,-0.005828857421875,1,0.96
2020-05-16 12:43:32.380 -0400,11149.17011441667,1.31732177734375,0.2586212158203125,0.1270751953125,1,0.96
2020-05-16 12:43:32.450 -0400,11149.23996241667,0.670684814453125,-0.0053863525390625,0.08673095703125,1,0.96
2020-05-16 12:43:32.520 -0400,11149.30981241667,0.3625030517578125,-0.1231231689453125,0.02130126953125,1,0.96
2020-05-16 12:43:32.590 -0400,11149.37966241667,0.2518310546875,0.1167449951171875,-0.1093597412109375,1,0.96
2020-05-16 12:43:32.660 -0400,11149.44950941667,0.2187042236328125,0.39892578125,-0.1926727294921875,1,0.96
2020-05-16 12:43:32.729 -0400,11149.51935141667,0.2895965576171875,0.9354095458984375,-0.0728759765625,1,0.96
2020-05-16 12:43:32.799 -0400,11149.5891915,1.198471069335938,1.512008666992188,-0.2295379638671875,1,0.96
2020-05-16 12:43:32.869 -0400,11149.6590345,1.124008178710938,1.302078247070312,-0.24761962890625,1,0.96
2020-05-16 12:43:32.939 -0400,11149.7288765,1.1075439453125,0.9792633056640625,-0.1055755615234375,1,0.96
2020-05-16 12:43:33.009 -0400,11149.7987175,0.7952880859375,0.695648193359375,0.02301025390625,1,0.96
2020-05-16 12:43:33.079 -0400,11149.8685565,0.8897857666015625,0.5100555419921875,0.00531005859375,1,0.96
2020-05-16 12:43:33.149 -0400,11149.9384035,0.621337890625,0.6322784423828125,-0.113433837890625,1,0.96
2020-05-16 12:43:33.218 -0400,11150.0082505,0.51885986328125,0.71142578125,-0.1905975341796875,1,0.96
2020-05-16 12:43:33.288 -0400,11150.0780935,0.40716552734375,0.6114501953125,-0.2433013916015625,1,0.96
2020-05-16 12:43:33.358 -0400,11150.1479385,2.407516479492188,1.2137451171875,-0.3600616455078125,1,0.96
2020-05-16 12:43:33.428 -0400,11150.2177835,1.861862182617188,0.7373504638671875,-0.0531005859375,1,0.96
2020-05-16 12:43:33.498 -0400,11150.2876275,1.764572143554688,0.430755615234375,0.430908203125,1,0.96
2020-05-16 12:43:33.568 -0400,11150.3574715,1.0936279296875,0.2354888916015625,0.3013153076171875,1,0.96
2020-05-16 12:43:33.637 -0400,11150.4273185,0.4444732666015625,0.195098876953125,0.2178192138671875,1,0.96
2020-05-16 12:43:33.707 -0400,11150.4971625,0.3886566162109375,0.2635955810546875,0.203521728515625,1,0.96
2020-05-16 12:43:33.777 -0400,11150.56700704167,0.70123291015625,0.25653076171875,0.1687774658203125,1,0.96
2020-05-16 12:43:33.847 -0400,11150.63685104167,1.396575927734375,0.30804443359375,0.27740478515625,1,0.96
2020-05-16 12:43:33.917 -0400,11150.70669904167,0.942230224609375,0.696868896484375,-0.593048095703125,1,0.96
2020-05-16 12:43:33.987 -0400,11150.77654704167,1.275726318359375,0.46905517578125,-0.4700927734375,1,0.96
2020-05-16 12:43:34.056 -0400,11150.84639204167,0.9832305908203125,-0.233001708984375,-0.560760498046875,1,0.96
2020-05-16 12:43:34.127 -0400,11150.91624004167,0.77154541015625,0.1289825439453125,-0.70458984375,1,0.96
2020-05-16 12:43:34.196 -0400,11150.98608904167,0.5385284423828125,0.9293670654296875,-0.4069366455078125,1,0.96
2020-05-16 12:43:34.266 -0400,11151.05593604167,0.4979705810546875,0.20794677734375,-0.267303466796875,1,0.96
2020-05-16 12:43:34.336 -0400,11151.12578304167,0.7832489013671875,0.3619537353515625,-0.41668701171875,1,0.96
2020-05-16 12:43:34.406 -0400,11151.19562804167,0.724639892578125,0.43890380859375,-0.4438018798828125,1,0.96
2020-05-16 12:43:34.476 -0400,11151.26546904167,0.5175933837890625,0.3151092529296875,-0.2050018310546875,1,0.96
2020-05-16 12:43:34.545 -0400,11151.33531204167,0.828460693359375,0.58636474609375,-0.206207275390625,1,0.96
2020-05-16 12:43:34.615 -0400,11151.40515604167,2.453125,1.588958740234375,0.219085693359375,1,0.96
2020-05-16 12:43:34.685 -0400,11151.47500304167,1.834716796875,-0.0885162353515625,-0.3075714111328125,1,0.96
2020-05-16 12:43:34.755 -0400,11151.54484854167,1.15301513671875,1.13592529296875,-0.0845184326171875,1,0.96
2020-05-16 12:43:34.825 -0400,11151.61469454167,0.71502685546875,0.337432861328125,-0.2427215576171875,1,0.96
2020-05-16 12:43:34.895 -0400,11151.68453954167,0.8694305419921875,0.0594329833984375,-0.0713653564453125,1,0.96
2020-05-16 12:43:34.965 -0400,11151.75438354167,0.798828125,-0.2930145263671875,0.149017333984375,1,0.96
2020-05-16 12:43:35.034 -0400,11151.82423054167,0.749908447265625,0.75750732421875,-0.0266876220703125,1,0.96
2020-05-16 12:43:35.104 -0400,11151.89407754167,1.063583374023438,0.9890594482421875,-0.188934326171875,1,0.96
2020-05-16 12:43:35.174 -0400,11151.96392554167,1.10003662109375,0.5552978515625,-0.04205322265625,1,0.96
2020-05-16 12:43:35.244 -0400,11152.03377254167,1.282058715820312,1.082565307617188,-0.2450714111328125,1,0.96
2020-05-16 12:43:35.314 -0400,11152.10362254167,0.6289520263671875,0.70758056640625,-0.09088134765625,1,0.96
2020-05-16 12:43:35.384 -0400,11152.17347654167,0.6477813720703125,0.6717071533203125,-0.3661346435546875,1,0.96
2020-05-16 12:43:35.453 -0400,11152.24332354167,0.7256011962890625,0.68560791015625,-0.4634857177734375,1,0.96
2020-05-16 12:43:35.523 -0400,11152.31317454167,1.224563598632812,0.5423583984375,-0.3975067138671875,1,0.96
2020-05-16 12:43:35.593 -0400,11152.38302254167,1.624359130859375,0.3568878173828125,0.05194091796875,1,0.96
2020-05-16 12:43:35.663 -0400,11152.45286854167,2.271728515625,0.4904022216796875,-0.4831390380859375,1,0.96
2020-05-16 12:43:35.733 -0400,11152.52271654167,1.282455444335938,0.602996826171875,-0.183197021484375,1,0.96
2020-05-16 12:43:35.803 -0400,11152.592558125,0.6973724365234375,0.0408935546875,-0.0393829345703125,1,0.96
2020-05-16 12:43:35.873 -0400,11152.662404125,0.2964324951171875,-0.174713134765625,0.0247344970703125,1,0.96
2020-05-16 12:43:35.943 -0400,11152.732249125,0.2112579345703125,-0.0480499267578125,0.038330078125,1,0.96
2020-05-16 12:43:36.012 -0400,11152.802097125,0.352508544921875,0.198089599609375,-0.1271209716796875,1,0.96
2020-05-16 12:43:36.082 -0400,11152.871946125,1.578125,1.626480102539062,0.0361328125,1,0.96
2020-05-16 12:43:36.152 -0400,11152.941793125,1.638931274414062,0.6210479736328125,-0.7234649658203125,1,0.96
2020-05-16 12:43:36.222 -0400,11153.011640125,1.253219604492188,0.8955841064453125,-0.161590576171875,1,0.96
2020-05-16 12:43:36.296 -0400,11153.081488125,0.7740478515625,0.903045654296875,-0.2722015380859375,1,0.96
2020-05-16 12:43:36.362 -0400,11153.151335125,0.53369140625,0.554443359375,-0.3460235595703125,1,0.96
2020-05-16 12:43:36.431 -0400,11153.221182125,0.418121337890625,0.614959716796875,-0.2837066650390625,1,0.96
2020-05-16 12:43:36.501 -0400,11153.291029125,0.6030120849609375,0.6578216552734375,-0.37652587890625,1,0.96
2020-05-16 12:43:36.571 -0400,11153.360877125,0.7412109375,0.5933990478515625,-0.42938232421875,1,0.96
2020-05-16 12:43:36.641 -0400,11153.430727125,2.098983764648438,0.976165771484375,-0.7598419189453125,1,0.96
2020-05-16 12:43:36.711 -0400,11153.500571125,1.106689453125,0.0943450927734375,0.0620574951171875,1,0.96
2020-05-16 12:43:36.781 -0400,11153.57041579167,1.58636474609375,0.089508056640625,0.1513214111328125,1,0.96
2020-05-16 12:43:36.850 -0400,11153.64025779167,0.7479400634765625,0.5653839111328125,0.0701446533203125,1,0.96
2020-05-16 12:43:36.920 -0400,11153.71010279167,0.4808197021484375,0.3065643310546875,0.2330780029296875,1,0.96
2020-05-16 12:43:36.990 -0400,11153.77994579167,0.48345947265625,0.210845947265625,0.1847381591796875,1,0.96
2020-05-16 12:43:37.060 -0400,11153.84978779167,0.6576080322265625,0.2885284423828125,0.122039794921875,1,0.96
2020-05-16 12:43:37.130 -0400,11153.91963479167,1.3846435546875,0.344970703125,0.11468505859375,1,0.96
2020-05-16 12:43:37.200 -0400,11153.98948179167,1.499191284179688,0.93292236328125,-0.642730712890625,1,0.96
2020-05-16 12:43:37.269 -0400,11154.05933479167,1.331008911132812,0.576629638671875,-0.7602691650390625,1,0.96
2020-05-16 12:43:37.346 -0400,11154.12918879167,0.712738037109375,-0.1545562744140625,-0.3954620361328125,1,0.96
2020-05-16 12:43:37.409 -0400,11154.19903979167,0.37469482421875,0.425079345703125,-0.4359588623046875,1,0.96
2020-05-16 12:43:37.479 -0400,11154.26888379167,0.3426361083984375,0.4311676025390625,-0.3561859130859375,1,0.96
2020-05-16 12:43:37.549 -0400,11154.33872779167,0.860137939453125,0.3638458251953125,-0.27606201171875,1,0.96
2020-05-16 12:43:37.619 -0400,11154.40857379167,1.06353759765625,0.310943603515625,0.030364990234375,1,0.96
2020-05-16 12:43:37.689 -0400,11154.47841979167,1.486709594726562,0.3958892822265625,-0.0018310546875,1,0.96
2020-05-16 12:43:37.758 -0400,11154.54826729167,1.390167236328125,0.4892120361328125,-0.1048431396484375,1,0.96
2020-05-16 12:43:37.828 -0400,11154.61811529167,0.8424835205078125,0.5276031494140625,-0.18670654296875,1,0.96
2020-05-16 12:43:37.898 -0400,11154.68796529167,0.790679931640625,0.32733154296875,-0.1389312744140625,1,0.96
2020-05-16 12:43:37.968 -0400,11154.75782029167,0.4625091552734375,0.1073150634765625,-0.075103759765625,1,0.96
2020-05-16 12:43:38.038 -0400,11154.82767529167,0.2628173828125,0.13385009765625,-0.1507720947265625,1,0.96
2020-05-16 12:43:38.108 -0400,11154.89752729167,0.3164215087890625,0.1893768310546875,-0.1015472412109375,1,0.96
2020-05-16 12:43:38.178 -0400,11154.96737729167,2.196853637695312,0.571990966796875,-0.0448150634765625,1,0.96
2020-05-16 12:43:38.248 -0400,11155.03722729167,1.596588134765625,1.047988891601562,-1.201370239257812,1,0.96
2020-05-16 12:43:38.317 -0400,11155.10707729167,0.6361083984375,-0.2844085693359375,-0.0156707763671875,1,0.96
2020-05-16 12:43:38.387 -0400,11155.17692929167,0.561370849609375,0.470489501953125,-0.1219940185546875,1,0.96
2020-05-16 12:43:38.457 -0400,11155.24678129167,0.2752227783203125,0.4287872314453125,-0.126220703125,1,0.96
2020-05-16 12:43:38.527 -0400,11155.31663329167,0.2825927734375,0.366668701171875,-0.102630615234375,1,0.96
2020-05-16 12:43:38.597 -0400,11155.38648629167,0.7938385009765625,0.6596221923828125,-0.3031768798828125,1,0.96
2020-05-16 12:43:38.666 -0400,11155.45633729167,1.290939331054688,0.5803070068359375,-0.2687835693359375,1,0.96
2020-05-16 12:43:38.736 -0400,11155.52618329167,1.635360717773438,0.39935302734375,-0.1099700927734375,1,0.96
2020-05-16 12:43:38.806 -0400,11155.596032875,1.485000610351562,-0.140289306640625,0.031402587890625,1,0.96
2020-05-16 12:43:38.876 -0400,11155.665883875,0.8391571044921875,0.1227264404296875,-0.0601654052734375,1,0.96
2020-05-16 12:43:38.946 -0400,11155.735731875,0.5323486328125,0.6206817626953125,0.0778045654296875,1,0.96
2020-05-16 12:43:39.016 -0400,11155.805577875,0.3988189697265625,0.2893218994140625,0.1024169921875,1,0.96
2020-05-16 12:43:39.085 -0400,11155.875422875,0.4614105224609375,0.1241455078125,0.0536346435546875,1,0.96
2020-05-16 12:43:39.155 -0400,11155.945268875,0.4215087890625,0.1823883056640625,0.1009368896484375,1,0.96
2020-05-16 12:43:39.225 -0400,11156.015110875,1.940872192382812,0.71575927734375,0.160858154296875,1,0.96
2020-05-16 12:43:39.297 -0400,11156.084950875,1.310897827148438,0.823028564453125,-1.01708984375,1,0.96
2020-05-16 12:43:39.365 -0400,11156.154794875,1.035964965820312,0.3719940185546875,-0.26800537109375,1,0.96
2020-05-16 12:43:39.435 -0400,11156.224637875,0.5815887451171875,0.2159881591796875,-0.306732177734375,1,0.96
2020-05-16 12:43:39.505 -0400,11156.294482875,0.4482421875,0.35699462890625,-0.31524658203125,1,0.96
2020-05-16 12:43:39.574 -0400,11156.364329875,0.3574981689453125,0.44842529296875,-0.3334503173828125,1,0.96
2020-05-16 12:43:39.644 -0400,11156.434177875,0.5512542724609375,0.5133056640625,-0.3338623046875,1,0.96
2020-05-16 12:43:39.714 -0400,11156.504023875,0.8503570556640625,0.5162506103515625,-0.2042694091796875,1,0.96
2020-05-16 12:43:39.784 -0400,11156.57386925,3.303176879882812,1.357040405273438,-0.28778076171875,1,0.96
2020-05-16 12:43:39.854 -0400,11156.64371325,1.993270874023438,-0.80108642578125,-0.373260498046875,1,0.96
2020-05-16 12:43:39.924 -0400,11156.71355825,0.8797149658203125,0.6124114990234375,-0.1344757080078125,1,0.96
2020-05-16 12:43:39.993 -0400,11156.78340425,0.4976959228515625,0.5490264892578125,-0.065765380859375,1,0.96
2020-05-16 12:43:40.063 -0400,11156.85325225,0.278717041015625,0.2353668212890625,0.0664215087890625,1,0.96
2020-05-16 12:43:40.133 -0400,11156.92309725,0.2572784423828125,0.0747833251953125,0.011260986328125,1,0.96
2020-05-16 12:43:40.203 -0400,11156.99294025,0.5391693115234375,0.2574005126953125,-0.004119873046875,1,0.96
2020-05-16 12:43:40.273 -0400,11157.06277825,1.233291625976562,0.2431182861328125,0.219512939453125,1,0.96
2020-05-16 12:43:40.343 -0400,11157.13262125,1.673004150390625,1.0604248046875,-0.1450347900390625,1,0.96
2020-05-16 12:43:40.413 -0400,11157.20246625,1.203262329101562,0.95501708984375,-0.7447509765625,1,0.96
2020-05-16 12:43:40.483 -0400,11157.27230725,1.080596923828125,-1.276641845703125,-0.609466552734375,1,0.96
2020-05-16 12:43:40.552 -0400,11157.34215225,0.51666259765625,0.8137664794921875,-0.28179931640625,1,0.96
2020-05-16 12:43:40.622 -0400,11157.41199925,0.5551910400390625,0.5349273681640625,-0.4552154541015625,1,0.96
2020-05-16 12:43:40.692 -0400,11157.48184525,1.102920532226562,1.178680419921875,-0.6038665771484375,1,0.96
2020-05-16 12:43:40.762 -0400,11157.55169,0.9743194580078125,0.2942352294921875,-0.317291259765625,1,0.96
2020-05-16 12:43:40.832 -0400,11157.621534,1.917465209960938,0.6220550537109375,-0.465057373046875,1,0.96
2020-05-16 12:43:40.901 -0400,11157.691379,1.5157470703125,0.267242431640625,-0.259857177734375,1,0.96
2020-05-16 12:43:40.972 -0400,11157.761224,1.429595947265625,0.488189697265625,-0.019378662109375,1,0.96
2020-05-16 12:43:41.041 -0400,11157.83107,0.889495849609375,0.4294586181640625,-0.07904052734375,1,0.96
2020-05-16 12:43:41.111 -0400,11157.900913,0.601776123046875,0.2447052001953125,0.029541015625,1,0.96
2020-05-16 12:43:41.181 -0400,11157.970757,0.341766357421875,0.09368896484375,0.0708770751953125,1,0.96
2020-05-16 12:43:41.251 -0400,11158.040603,0.123626708984375,0.08660888671875,0.0576324462890625,1,0.96
2020-05-16 12:43:41.321 -0400,11158.110448,0.1341094970703125,0.147125244140625,0.0998992919921875,1,0.96
2020-05-16 12:43:41.390 -0400,11158.18029,0.39239501953125,0.403045654296875,0.00299072265625,1,0.96
2020-05-16 12:43:41.460 -0400,11158.250136,3.303009033203125,1.430801391601562,-0.3572998046875,1,0.96
2020-05-16 12:43:41.530 -0400,11158.31998,0.9589996337890625,1.15936279296875,-1.339019775390625,1,0.96
2020-05-16 12:43:41.600 -0400,11158.389821,0.929718017578125,-0.51153564453125,-0.2761993408203125,1,0.96
2020-05-16 12:43:41.670 -0400,11158.459666,0.3770294189453125,0.6893310546875,-0.6128997802734375,1,0.96
2020-05-16 12:43:41.740 -0400,11158.529512,0.1637725830078125,0.667633056640625,-0.4433135986328125,1,0.96
2020-05-16 12:43:41.810 -0400,11158.59935525,0.6179046630859375,0.4339447021484375,-0.37091064453125,1,0.96
2020-05-16 12:43:41.880 -0400,11158.66920225,1.682907104492188,0.725555419921875,-0.172210693359375,1,0.96
2020-05-16 12:43:41.949 -0400,11158.73904925,1.499679565429688,0.3484954833984375,-0.1884918212890625,1,0.96
2020-05-16 12:43:42.019 -0400,11158.80889625,1.194900512695312,0.8171844482421875,-0.4236602783203125,1,0.96
2020-05-16 12:43:42.089 -0400,11158.87874325,1.655593872070312,0.5043487548828125,-0.1982269287109375,1,0.96
2020-05-16 12:43:42.159 -0400,11158.94859325,1.128860473632812,0.12664794921875,-0.2722930908203125,1,0.96
2020-05-16 12:43:42.229 -0400,11159.01843925,0.849853515625,0.2483062744140625,-0.1115875244140625,1,0.96
2020-05-16 12:43:42.298 -0400,11159.08828325,0.6190643310546875,0.1234130859375,-0.16485595703125,1,0.96
2020-05-16 12:43:42.368 -0400,11159.15812725,0.423675537109375,0.2030181884765625,-0.2489013671875,1,0.96
2020-05-16 12:43:42.438 -0400,11159.22796725,0.432830810546875,0.0597381591796875,-0.189208984375,1,0.96
2020-05-16 12:43:42.508 -0400,11159.29780925,0.8771514892578125,0.079498291015625,-0.1016387939453125,1,0.96
2020-05-16 12:43:42.578 -0400,11159.36765225,1.70166015625,0.818878173828125,-0.5192108154296875,1,0.96
2020-05-16 12:43:42.648 -0400,11159.43749825,1.758682250976562,0.080291748046875,-0.84326171875,1,0.96
2020-05-16 12:43:42.718 -0400,11159.50734625,0.8554229736328125,0.596221923828125,-0.1570892333984375,1,0.96
2020-05-16 12:43:42.787 -0400,11159.57719591667,0.460784912109375,0.588531494140625,-0.052459716796875,1,0.96
2020-05-16 12:43:42.857 -0400,11159.64704391667,0.479736328125,0.5273590087890625,-0.155029296875,1,0.96
2020-05-16 12:43:42.927 -0400,11159.71689091667,0.524932861328125,0.6348876953125,-0.2091064453125,1,0.96
2020-05-16 12:43:42.997 -0400,11159.78673891667,0.6532135009765625,0.6738128662109375,-0.194244384765625,1,0.96
2020-05-16 12:43:43.067 -0400,11159.85658391667,1.18878173828125,0.586822509765625,-0.2986907958984375,1,0.96
2020-05-16 12:43:43.137 -0400,11159.92642891667,2.2694091796875,0.7351837158203125,-0.2866363525390625,1,0.96
2020-05-16 12:43:43.206 -0400,11159.99627491667,1.838302612304688,0.570831298828125,-0.473419189453125,1,0.96
2020-05-16 12:43:43.276 -0400,11160.06612191667,1.586288452148438,0.377899169921875,-0.2861785888671875,1,0.96
2020-05-16 12:43:43.346 -0400,11160.13596991667,0.7322540283203125,0.1091766357421875,-0.1949310302734375,1,0.96
2020-05-16 12:43:43.416 -0400,11160.20581691667,0.393402099609375,0.1105804443359375,-0.0908203125,1,0.96
2020-05-16 12:43:43.486 -0400,11160.27566391667,0.25347900390625,0.0983123779296875,-0.0824432373046875,1,0.96
2020-05-16 12:43:43.556 -0400,11160.34551591667,0.42596435546875,0.0627593994140625,0.1130218505859375,1,0.96
2020-05-16 12:43:43.625 -0400,11160.41536391667,0.992584228515625,0.2129058837890625,0.3210296630859375,1,0.96
2020-05-16 12:43:43.697 -0400,11160.48520891667,1.920516967773438,1.314865112304688,-0.0258331298828125,1,0.96
2020-05-16 12:43:43.765 -0400,11160.555052875,1.588485717773438,0.44195556640625,-0.2307586669921875,1,0.96
2020-05-16 12:43:43.835 -0400,11160.624896875,1.364028930664062,0.424957275390625,0.116851806640625,1,0.96
2020-05-16 12:43:43.905 -0400,11160.694742875,0.73150634765625,0.4839324951171875,-0.23419189453125,1,0.96
2020-05-16 12:43:43.975 -0400,11160.764584875,0.52459716796875,0.6554107666015625,-0.23486328125,1,0.96
2020-05-16 12:43:44.045 -0400,11160.834426875,0.4539337158203125,0.6383209228515625,-0.212432861328125,1,0.96
2020-05-16 12:43:44.114 -0400,11160.904268875,0.701171875,0.8119354248046875,-0.28857421875,1,0.96
2020-05-16 12:43:44.184 -0400,11160.974110875,0.919342041015625,0.7323455810546875,-0.363983154296875,1,0.96
2020-05-16 12:43:44.254 -0400,11161.043950875,1.31719970703125,0.996002197265625,-0.2651824951171875,1,0.96
2020-05-16 12:43:44.324 -0400,11161.113788875,1.8963623046875,0.6035919189453125,-0.3789215087890625,1,0.96
2020-05-16 12:43:44.394 -0400,11161.183626875,1.288726806640625,0.4047088623046875,-0.41729736328125,1,0.96
2020-05-16 12:43:44.464 -0400,11161.253467875,0.8559417724609375,0.2910614013671875,-0.4789276123046875,1,0.96
2020-05-16 12:43:44.534 -0400,11161.323308875,0.495819091796875,0.2513427734375,-0.423248291015625,1,0.96
2020-05-16 12:43:44.603 -0400,11161.393147875,0.3647613525390625,0.24822998046875,-0.6009368896484375,1,0.96
2020-05-16 12:43:44.673 -0400,11161.462988875,0.2814788818359375,0.1343231201171875,-0.7707061767578125,1,0.96
2020-05-16 12:43:44.743 -0400,11161.532831875,0.1859588623046875,0.1746978759765625,-0.85003662109375,1,0.96
2020-05-16 12:43:44.815 -0400,11161.60267125,0.1141815185546875,0.1703033447265625,-0.942138671875,1,0.96
2020-05-16 12:43:44.882 -0400,11161.67250925,0.1068267822265625,0.0886383056640625,-0.9677581787109375,1,0.96
2020-05-16 12:43:45.002 -0400,11161.79223825,0.10888671875,0.0248260498046875,-0.9334564208984375,1,0.96
2020-05-16 12:43:45.122 -0400,11161.91195925,0.1280059814453125,0.0593719482421875,-0.978485107421875,1,0.96
2020-05-16 12:43:45.242 -0400,11162.03167725,0.1553192138671875,-0.0164031982421875,-0.9776153564453125,1,0.96
