loggingTime(txt),locationTimestamp_since1970(s),locationLatitude(WGS84),locationLongitude(WGS84),locationAltitude(m),locationSpeed(m/s),locationCourse(°),locationVerticalAccuracy(m),locationHorizontalAccuracy(m),locationFloor(Z),accelerometerTimestamp_sinceReboot(s),accelerometerAccelerationX(G),accelerometerAccelerationY(G),accelerometerAccelerationZ(G),batteryState,batteryLevel
2020-05-19 15:04:29.385 -0400,1589915068.859852,41.37495542736311,-71.83004358412974,-1.401134,-1,-1,15.3377799987793,1146.078749560566,-9999,6958.336543791667,0.1803131103515625,0.030242919921875,-1.228485107421875,1,0.92
2020-05-19 15:04:29.420 -0400,1589915068.859852,41.37495542736311,-71.83004358412974,-1.401134,-1,-1,15.3377799987793,1146.078749560566,-9999,6958.386530416667,0.4032440185546875,0.0909271240234375,-1.289947509765625,1,0.92
2020-05-19 15:04:29.470 -0400,1589915068.859852,41.37495542736311,-71.83004358412974,-1.401134,-1,-1,15.3377799987793,1146.078749560566,-9999,6958.436517416667,0.3690643310546875,0.079376220703125,-1.099716186523438,1,0.92
2020-05-19 15:04:29.520 -0400,1589915068.859852,41.37495542736311,-71.83004358412974,-1.401134,-1,-1,15.3377799987793,1146.078749560566,-9999,6958.486505416667,0.3991546630859375,0.0513153076171875,-0.9970703125,1,0.92
2020-05-19 15:04:29.570 -0400,1589915068.859852,41.37495542736311,-71.83004358412974,-1.401134,-1,-1,15.3377799987793,1146.078749560566,-9999,6958.536492416667,0.3051910400390625,-0.068359375,-0.7116851806640625,1,0.92
2020-05-19 15:04:29.620 -0400,1589915068.859852,41.37495542736311,-71.83004358412974,-1.401134,-1,-1,15.3377799987793,1146.078749560566,-9999,6958.586480416667,0.197906494140625,-0.0535430908203125,-0.4379730224609375,1,0.92
2020-05-19 15:04:29.670 -0400,1589915068.859852,41.37495542736311,-71.83004358412974,-1.401134,-1,-1,15.3377799987793,1146.078749560566,-9999,6958.636467416667,0.206451416015625,-0.082977294921875,-0.290924072265625,1,0.92
2020-05-19 15:04:29.729 -0400,1589915068.859852,41.37495542736311,-71.83004358412974,-1.401134,-1,-1,15.3377799987793,1146.078749560566,-9999,6958.686455416667,0.32391357421875,0.1684112548828125,-0.41741943359375,1,0.92
2020-05-19 15:04:29.771 -0400,1589915068.859852,41.37495542736311,-71.83004358412974,-1.401134,-1,-1,15.3377799987793,1146.078749560566,-9999,6958.736442416667,0.384307861328125,0.237701416015625,-0.521087646484375,1,0.92
2020-05-19 15:04:29.820 -0400,1589915068.859852,41.37495542736311,-71.83004358412974,-1.401134,-1,-1,15.3377799987793,1146.078749560566,-9999,6958.786430416667,0.6616973876953125,0.556671142578125,-0.8318023681640625,1,0.92
2020-05-19 15:04:29.870 -0400,1589915068.859852,41.37495542736311,-71.83004358412974,-1.401134,-1,-1,15.3377799987793,1146.078749560566,-9999,6958.836417416667,0.899322509765625,0.866729736328125,-0.8292694091796875,1,0.92
2020-05-19 15:04:29.920 -0400,1589915068.859852,41.37495542736311,-71.83004358412974,-1.401134,-1,-1,15.3377799987793,1146.078749560566,-9999,6958.886405416667,1.088027954101562,1.148086547851562,-0.9412994384765625,1,0.92
2020-05-19 15:04:29.970 -0400,1589915068.859852,41.37495542736311,-71.83004358412974,-1.401134,-1,-1,15.3377799987793,1146.078749560566,-9999,6958.936392416667,0.9289398193359375,1.004638671875,-0.642730712890625,1,0.92
2020-05-19 15:04:30.020 -0400,1589915068.859852,41.37495542736311,-71.83004358412974,-1.401134,-1,-1,15.3377799987793,1146.078749560566,-9999,6958.986380416667,1.035812377929688,1.159149169921875,-0.5531158447265625,1,0.92
2020-05-19 15:04:30.070 -0400,1589915068.859852,41.37495542736311,-71.83004358412974,-1.401134,-1,-1,15.3377799987793,1146.078749560566,-9999,6959.036367416667,0.804901123046875,0.977294921875,-0.448760986328125,1,0.92
2020-05-19 15:04:30.121 -0400,1589915068.859852,41.37495542736311,-71.83004358412974,-1.401134,-1,-1,15.3377799987793,1146.078749560566,-9999,6959.086355416667,0.411407470703125,0.600982666015625,-0.335784912109375,1,0.92
2020-05-19 15:04:30.170 -0400,1589915068.859852,41.37495542736311,-71.83004358412974,-1.401134,-1,-1,15.3377799987793,1146.078749560566,-9999,6959.136342416668,0.37603759765625,0.605438232421875,-0.2893524169921875,1,0.92
2020-05-19 15:04:30.237 -0400,1589915068.859852,41.37495542736311,-71.83004358412974,-1.401134,-1,-1,15.3377799987793,1146.078749560566,-9999,6959.186329416667,0.4791717529296875,0.5283355712890625,-0.208831787109375,1,0.92
2020-05-19 15:04:30.270 -0400,1589915068.859852,41.37495542736311,-71.83004358412974,-1.401134,-1,-1,15.3377799987793,1146.078749560566,-9999,6959.236317416667,0.719940185546875,0.421905517578125,-0.1343536376953125,1,0.92
2020-05-19 15:04:30.320 -0400,1589915068.859852,41.37495542736311,-71.83004358412974,-1.401134,-1,-1,15.3377799987793,1146.078749560566,-9999,6959.286304416667,1.111724853515625,0.378509521484375,-0.115936279296875,1,0.92
2020-05-19 15:04:30.370 -0400,1589915068.859852,41.37495542736311,-71.83004358412974,-1.401134,-1,-1,15.3377799987793,1146.078749560566,-9999,6959.336292416667,1.023910522460938,0.3686370849609375,-0.134979248046875,1,0.92
2020-05-19 15:04:30.420 -0400,1589915068.859852,41.37495542736311,-71.83004358412974,-1.401134,-1,-1,15.3377799987793,1146.078749560566,-9999,6959.3862795,1.305313110351562,0.5027923583984375,-0.1565093994140625,1,0.92
2020-05-19 15:04:30.470 -0400,1589915068.859852,41.37495542736311,-71.83004358412974,-1.401134,-1,-1,15.3377799987793,1146.078749560566,-9999,6959.4362675,1.100936889648438,0.5095672607421875,-0.4014892578125,1,0.92
2020-05-19 15:04:30.520 -0400,1589915068.859852,41.37495542736311,-71.83004358412974,-1.401134,-1,-1,15.3377799987793,1146.078749560566,-9999,6959.486254500001,1.186141967773438,0.4014129638671875,-0.39788818359375,1,0.92
2020-05-19 15:04:30.570 -0400,1589915068.859852,41.37495542736311,-71.83004358412974,-1.401134,-1,-1,15.3377799987793,1146.078749560566,-9999,6959.5362425,0.7405548095703125,0.267425537109375,-0.29669189453125,1,0.92
2020-05-19 15:04:30.620 -0400,1589915068.859852,41.37495542736311,-71.83004358412974,-1.401134,-1,-1,15.3377799987793,1146.078749560566,-9999,6959.586229500001,0.393310546875,0.2167816162109375,-0.3146209716796875,1,0.92
2020-05-19 15:04:30.670 -0400,1589915068.859852,41.37495542736311,-71.83004358412974,-1.401134,-1,-1,15.3377799987793,1146.078749560566,-9999,6959.6362175,0.30865478515625,0.093048095703125,-0.3333740234375,1,0.92
2020-05-19 15:04:30.720 -0400,1589915068.859852,41.37495542736311,-71.83004358412974,-1.401134,-1,-1,15.3377799987793,1146.078749560566,-9999,6959.686204500001,0.406951904296875,0.6123504638671875,-0.3364715576171875,1,0.92
2020-05-19 15:04:30.770 -0400,1589915068.859852,41.37495542736311,-71.83004358412974,-1.401134,-1,-1,15.3377799987793,1146.078749560566,-9999,6959.7361925,0.7078094482421875,0.6369171142578125,-0.3020172119140625,1,0.92
2020-05-19 15:04:30.820 -0400,1589915068.859852,41.37495542736311,-71.83004358412974,-1.401134,-1,-1,15.3377799987793,1146.078749560566,-9999,6959.786179500001,1.099990844726562,0.7103424072265625,-0.344146728515625,1,0.92
2020-05-19 15:04:30.870 -0400,1589915068.859852,41.37495542736311,-71.83004358412974,-1.401134,-1,-1,15.3377799987793,1146.078749560566,-9999,6959.836167500001,1.222808837890625,0.6392669677734375,-0.33843994140625,1,0.92
2020-05-19 15:04:30.920 -0400,1589915068.859852,41.37495542736311,-71.83004358412974,-1.401134,-1,-1,15.3377799987793,1146.078749560566,-9999,6959.8861545,1.34814453125,0.5694580078125,-0.418365478515625,1,0.92
2020-05-19 15:04:30.970 -0400,1589915068.859852,41.37495542736311,-71.83004358412974,-1.401134,-1,-1,15.3377799987793,1146.078749560566,-9999,6959.936142500001,1.154830932617188,0.7927398681640625,-0.4362030029296875,1,0.92
2020-05-19 15:04:31.020 -0400,1589915068.859852,41.37495542736311,-71.83004358412974,-1.401134,-1,-1,15.3377799987793,1146.078749560566,-9999,6959.9861295,1.358627319335938,0.854522705078125,-0.2963409423828125,1,0.92
2020-05-19 15:04:31.070 -0400,1589915068.859852,41.37495542736311,-71.83004358412974,-1.401134,-1,-1,15.3377799987793,1146.078749560566,-9999,6960.036117500001,1.130111694335938,0.4606475830078125,-0.2964324951171875,1,0.92
2020-05-19 15:04:31.120 -0400,1589915068.859852,41.37495542736311,-71.83004358412974,-1.401134,-1,-1,15.3377799987793,1146.078749560566,-9999,6960.0861045,0.656494140625,0.2736968994140625,-0.3293609619140625,1,0.92
2020-05-19 15:04:31.170 -0400,1589915068.859852,41.37495542736311,-71.83004358412974,-1.401134,-1,-1,15.3377799987793,1146.078749560566,-9999,6960.136092500001,0.5990142822265625,0.3521728515625,-0.206573486328125,1,0.92
2020-05-19 15:04:31.220 -0400,1589915068.859852,41.37495542736311,-71.83004358412974,-1.401134,-1,-1,15.3377799987793,1146.078749560566,-9999,6960.1860795,0.7518310546875,0.393310546875,-0.1301422119140625,1,0.92
2020-05-19 15:04:31.270 -0400,1589915068.859852,41.37495542736311,-71.83004358412974,-1.401134,-1,-1,15.3377799987793,1146.078749560566,-9999,6960.2360675,0.9282073974609375,0.2989044189453125,-0.0923004150390625,1,0.92
2020-05-19 15:04:31.320 -0400,1589915068.859852,41.37495542736311,-71.83004358412974,-1.401134,-1,-1,15.3377799987793,1146.078749560566,-9999,6960.2860545,0.9888153076171875,0.2157745361328125,-0.0555267333984375,1,0.92
2020-05-19 15:04:31.370 -0400,1589915068.859852,41.37495542736311,-71.83004358412974,-1.401134,-1,-1,15.3377799987793,1146.078749560566,-9999,6960.3360425,0.8204193115234375,0.26507568359375,0.0041046142578125,1,0.92
2020-05-19 15:04:31.420 -0400,1589915068.859852,41.37495542736311,-71.83004358412974,-1.401134,-1,-1,15.3377799987793,1146.078749560566,-9999,6960.386030375001,0.9006195068359375,0.4180908203125,-0.183807373046875,1,0.92
2020-05-19 15:04:31.470 -0400,1589915068.859852,41.37495542736311,-71.83004358412974,-1.401134,-1,-1,15.3377799987793,1146.078749560566,-9999,6960.436018375,0.91656494140625,0.4683685302734375,-0.2983245849609375,1,0.92
2020-05-19 15:04:31.520 -0400,1589915068.859852,41.37495542736311,-71.83004358412974,-1.401134,-1,-1,15.3377799987793,1146.078749560566,-9999,6960.486005375001,1.2823486328125,0.4959259033203125,-0.4949951171875,1,0.92
2020-05-19 15:04:31.570 -0400,1589915068.859852,41.37495542736311,-71.83004358412974,-1.401134,-1,-1,15.3377799987793,1146.078749560566,-9999,6960.535992375,1.214736938476562,0.447784423828125,-0.412017822265625,1,0.92
2020-05-19 15:04:31.620 -0400,1589915068.859852,41.37495542736311,-71.83004358412974,-1.401134,-1,-1,15.3377799987793,1146.078749560566,-9999,6960.585980375001,0.6197052001953125,0.309844970703125,-0.4583587646484375,1,0.92
2020-05-19 15:04:31.670 -0400,1589915068.859852,41.37495542736311,-71.83004358412974,-1.401134,-1,-1,15.3377799987793,1146.078749560566,-9999,6960.635967375,0.4715728759765625,0.375762939453125,-0.3215484619140625,1,0.92
2020-05-19 15:04:31.720 -0400,1589915068.859852,41.37495542736311,-71.83004358412974,-1.401134,-1,-1,15.3377799987793,1146.078749560566,-9999,6960.685955375,0.530426025390625,0.5478057861328125,-0.2408447265625,1,0.92
2020-05-19 15:04:31.770 -0400,1589915068.859852,41.37495542736311,-71.83004358412974,-1.401134,-1,-1,15.3377799987793,1146.078749560566,-9999,6960.735942375,0.791290283203125,0.6227569580078125,-0.320770263671875,1,0.92
2020-05-19 15:04:31.820 -0400,1589915068.859852,41.37495542736311,-71.83004358412974,-1.401134,-1,-1,15.3377799987793,1146.078749560566,-9999,6960.785930375,1.01153564453125,0.69207763671875,-0.4407958984375,1,0.92
2020-05-19 15:04:31.870 -0400,1589915068.859852,41.37495542736311,-71.83004358412974,-1.401134,-1,-1,15.3377799987793,1146.078749560566,-9999,6960.835917375,1.284713745117188,0.7323150634765625,-0.4370269775390625,1,0.92
2020-05-19 15:04:31.920 -0400,1589915068.859852,41.37495542736311,-71.83004358412974,-1.401134,-1,-1,15.3377799987793,1146.078749560566,-9999,6960.885905375,1.53997802734375,0.7019195556640625,-0.465301513671875,1,0.92
2020-05-19 15:04:31.970 -0400,1589915068.859852,41.37495542736311,-71.83004358412974,-1.401134,-1,-1,15.3377799987793,1146.078749560566,-9999,6960.935892375001,1.0955810546875,0.541229248046875,-0.4112396240234375,1,0.92
2020-05-19 15:04:32.020 -0400,1589915068.859852,41.37495542736311,-71.83004358412974,-1.401134,-1,-1,15.3377799987793,1146.078749560566,-9999,6960.985880375,1.342819213867188,0.5677337646484375,-0.3576202392578125,1,0.92
2020-05-19 15:04:32.070 -0400,1589915068.859852,41.37495542736311,-71.83004358412974,-1.401134,-1,-1,15.3377799987793,1146.078749560566,-9999,6961.035867375001,1.130844116210938,0.9730224609375,-0.2580718994140625,1,0.92
2020-05-19 15:04:32.120 -0400,1589915068.859852,41.37495542736311,-71.83004358412974,-1.401134,-1,-1,15.3377799987793,1146.078749560566,-9999,6961.085855375,0.57122802734375,0.4455413818359375,-0.2890167236328125,1,0.92
2020-05-19 15:04:32.170 -0400,1589915068.859852,41.37495542736311,-71.83004358412974,-1.401134,-1,-1,15.3377799987793,1146.078749560566,-9999,6961.135842375001,0.597137451171875,0.249603271484375,-0.196685791015625,1,0.92
2020-05-19 15:04:32.220 -0400,1589915068.859852,41.37495542736311,-71.83004358412974,-1.401134,-1,-1,15.3377799987793,1146.078749560566,-9999,6961.185830375,0.6586456298828125,0.3697052001953125,-0.143096923828125,1,0.92
2020-05-19 15:04:32.270 -0400,1589915068.859852,41.37495542736311,-71.83004358412974,-1.401134,-1,-1,15.3377799987793,1146.078749560566,-9999,6961.235817375001,0.808258056640625,0.31353759765625,-0.0968780517578125,1,0.92
2020-05-19 15:04:32.320 -0400,1589915068.859852,41.37495542736311,-71.83004358412974,-1.401134,-1,-1,15.3377799987793,1146.078749560566,-9999,6961.285805375001,0.98846435546875,0.254974365234375,-0.0849761962890625,1,0.92
2020-05-19 15:04:32.370 -0400,1589915068.859852,41.37495542736311,-71.83004358412974,-1.401134,-1,-1,15.3377799987793,1146.078749560566,-9999,6961.335792375,0.8859100341796875,0.275970458984375,-0.0281829833984375,1,0.92
2020-05-19 15:04:32.420 -0400,1589915068.859852,41.37495542736311,-71.83004358412974,-1.401134,-1,-1,15.3377799987793,1146.078749560566,-9999,6961.385779125,1.0614013671875,0.3796234130859375,-0.0799407958984375,1,0.92
2020-05-19 15:04:32.470 -0400,1589915068.859852,41.37495542736311,-71.83004358412974,-1.401134,-1,-1,15.3377799987793,1146.078749560566,-9999,6961.435767125,0.8875732421875,0.45660400390625,-0.261688232421875,1,0.92
2020-05-19 15:04:32.520 -0400,1589915068.859852,41.37495542736311,-71.83004358412974,-1.401134,-1,-1,15.3377799987793,1146.078749560566,-9999,6961.485754125,1.289764404296875,0.60247802734375,-0.5108489990234375,1,0.92
2020-05-19 15:04:32.570 -0400,1589915068.859852,41.37495542736311,-71.83004358412974,-1.401134,-1,-1,15.3377799987793,1146.078749560566,-9999,6961.535742125,1.11895751953125,0.4807281494140625,-0.4559783935546875,1,0.92
2020-05-19 15:04:32.620 -0400,1589915068.859852,41.37495542736311,-71.83004358412974,-1.401134,-1,-1,15.3377799987793,1146.078749560566,-9999,6961.585729125,0.600067138671875,0.203704833984375,-0.3630523681640625,1,0.92
2020-05-19 15:04:32.670 -0400,1589915068.859852,41.37495542736311,-71.83004358412974,-1.401134,-1,-1,15.3377799987793,1146.078749560566,-9999,6961.635717125,0.582275390625,0.297271728515625,-0.3328704833984375,1,0.92
2020-05-19 15:04:32.720 -0400,1589915068.859852,41.37495542736311,-71.83004358412974,-1.401134,-1,-1,15.3377799987793,1146.078749560566,-9999,6961.685704125,0.69500732421875,0.4918975830078125,-0.3591156005859375,1,0.92
2020-05-19 15:04:32.770 -0400,1589915068.859852,41.37495542736311,-71.83004358412974,-1.401134,-1,-1,15.3377799987793,1146.078749560566,-9999,6961.735692125,0.80511474609375,0.5592803955078125,-0.4146881103515625,1,0.92
2020-05-19 15:04:32.820 -0400,1589915068.859852,41.37495542736311,-71.83004358412974,-1.401134,-1,-1,15.3377799987793,1146.078749560566,-9999,6961.785679125001,0.8939361572265625,0.5539703369140625,-0.4811248779296875,1,0.92
2020-05-19 15:04:32.870 -0400,1589915068.859852,41.37495542736311,-71.83004358412974,-1.401134,-1,-1,15.3377799987793,1146.078749560566,-9999,6961.835667125,1.13067626953125,0.5865631103515625,-0.392364501953125,1,0.92
2020-05-19 15:04:32.920 -0400,1589915068.859852,41.37495542736311,-71.83004358412974,-1.401134,-1,-1,15.3377799987793,1146.078749560566,-9999,6961.885654125001,1.228408813476562,0.64569091796875,-0.360992431640625,1,0.92
2020-05-19 15:04:32.970 -0400,1589915068.859852,41.37495542736311,-71.83004358412974,-1.401134,-1,-1,15.3377799987793,1146.078749560566,-9999,6961.935642125,1.273330688476562,0.91094970703125,-0.564910888671875,1,0.92
2020-05-19 15:04:33.020 -0400,1589915068.859852,41.37495542736311,-71.83004358412974,-1.401134,-1,-1,15.3377799987793,1146.078749560566,-9999,6961.985629125001,1.455429077148438,0.683502197265625,-0.2582244873046875,1,0.92
2020-05-19 15:04:33.070 -0400,1589915068.859852,41.37495542736311,-71.83004358412974,-1.401134,-1,-1,15.3377799987793,1146.078749560566,-9999,6962.035616125,1.247665405273438,0.218963623046875,-0.249908447265625,1,0.92
2020-05-19 15:04:33.120 -0400,1589915068.859852,41.37495542736311,-71.83004358412974,-1.401134,-1,-1,15.3377799987793,1146.078749560566,-9999,6962.085604125001,0.7920989990234375,0.21563720703125,-0.31158447265625,1,0.92
2020-05-19 15:04:33.170 -0400,1589915068.859852,41.37495542736311,-71.83004358412974,-1.401134,-1,-1,15.3377799987793,1146.078749560566,-9999,6962.135591125,0.656158447265625,0.3809814453125,-0.2335357666015625,1,0.92
2020-05-19 15:04:33.220 -0400,1589915068.859852,41.37495542736311,-71.83004358412974,-1.401134,-1,-1,15.3377799987793,1146.078749560566,-9999,6962.185579125,0.7549285888671875,0.4359283447265625,-0.1616668701171875,1,0.92
2020-05-19 15:04:33.270 -0400,1589915068.859852,41.37495542736311,-71.83004358412974,-1.401134,-1,-1,15.3377799987793,1146.078749560566,-9999,6962.235566125,0.877166748046875,0.260955810546875,-0.0830841064453125,1,0.92
2020-05-19 15:04:33.320 -0400,1589915068.859852,41.37495542736311,-71.83004358412974,-1.401134,-1,-1,15.3377799987793,1146.078749560566,-9999,6962.285554125,0.8869476318359375,0.2035369873046875,-0.06585693359375,1,0.92
2020-05-19 15:04:33.370 -0400,1589915068.859852,41.37495542736311,-71.83004358412974,-1.401134,-1,-1,15.3377799987793,1146.078749560566,-9999,6962.335541125,0.7339019775390625,0.28857421875,-0.0644989013671875,1,0.92
2020-05-19 15:04:33.419 -0400,1589915068.859852,41.37495542736311,-71.83004358412974,-1.401134,-1,-1,15.3377799987793,1146.078749560566,-9999,6962.385529125,0.972808837890625,0.3949432373046875,-0.1944580078125,1,0.92
2020-05-19 15:04:33.469 -0400,1589915068.859852,41.37495542736311,-71.83004358412974,-1.401134,-1,-1,15.3377799987793,1146.078749560566,-9999,6962.435516125001,1.087173461914062,0.4109039306640625,-0.259124755859375,1,0.92
2020-05-19 15:04:33.519 -0400,1589915068.859852,41.37495542736311,-71.83004358412974,-1.401134,-1,-1,15.3377799987793,1146.078749560566,-9999,6962.485503125001,1.445556640625,0.489898681640625,-0.5164947509765625,1,0.92
2020-05-19 15:04:33.569 -0400,1589915068.859852,41.37495542736311,-71.83004358412974,-1.401134,-1,-1,15.3377799987793,1146.078749560566,-9999,6962.535491125001,1.082122802734375,0.3878326416015625,-0.4923858642578125,1,0.92
2020-05-19 15:04:33.620 -0400,1589915068.859852,41.37495542736311,-71.83004358412974,-1.401134,-1,-1,15.3377799987793,1146.078749560566,-9999,6962.585478125,0.5858001708984375,0.1751251220703125,-0.3341217041015625,1,0.92
2020-05-19 15:04:33.670 -0400,1589915068.859852,41.37495542736311,-71.83004358412974,-1.401134,-1,-1,15.3377799987793,1146.078749560566,-9999,6962.635466125001,0.543975830078125,0.3018035888671875,-0.314605712890625,1,0.92
2020-05-19 15:04:33.719 -0400,1589915068.859852,41.37495542736311,-71.83004358412974,-1.401134,-1,-1,15.3377799987793,1146.078749560566,-9999,6962.685453125,0.6497344970703125,0.5811614990234375,-0.31988525390625,1,0.92
2020-05-19 15:04:33.769 -0400,1589915068.859852,41.37495542736311,-71.83004358412974,-1.401134,-1,-1,15.3377799987793,1146.078749560566,-9999,6962.735441125001,0.875274658203125,0.7097625732421875,-0.4159393310546875,1,0.92
2020-05-19 15:04:33.820 -0400,1589915068.859852,41.37495542736311,-71.83004358412974,-1.401134,-1,-1,15.3377799987793,1146.078749560566,-9999,6962.785428125,1.13629150390625,0.6699371337890625,-0.4610595703125,1,0.92
2020-05-19 15:04:33.869 -0400,1589915068.859852,41.37495542736311,-71.83004358412974,-1.401134,-1,-1,15.3377799987793,1146.078749560566,-9999,6962.835415125001,1.295501708984375,0.643951416015625,-0.3975677490234375,1,0.92
2020-05-19 15:04:33.919 -0400,1589915068.859852,41.37495542736311,-71.83004358412974,-1.401134,-1,-1,15.3377799987793,1146.078749560566,-9999,6962.885403125,1.299835205078125,0.7864837646484375,-0.5350341796875,1,0.92
2020-05-19 15:04:33.969 -0400,1589915068.859852,41.37495542736311,-71.83004358412974,-1.401134,-1,-1,15.3377799987793,1146.078749560566,-9999,6962.935390125001,1.241439819335938,0.7089996337890625,-0.4681549072265625,1,0.92
2020-05-19 15:04:34.019 -0400,1589915068.859852,41.37495542736311,-71.83004358412974,-1.401134,-1,-1,15.3377799987793,1146.078749560566,-9999,6962.985378125,1.6259765625,0.5077972412109375,-0.333160400390625,1,0.92
2020-05-19 15:04:34.069 -0400,1589915068.859852,41.37495542736311,-71.83004358412974,-1.401134,-1,-1,15.3377799987793,1146.078749560566,-9999,6963.035365125001,1.069244384765625,0.2055206298828125,-0.40618896484375,1,0.92
2020-05-19 15:04:34.119 -0400,1589915068.859852,41.37495542736311,-71.83004358412974,-1.401134,-1,-1,15.3377799987793,1146.078749560566,-9999,6963.085353125,0.571136474609375,0.2771759033203125,-0.39434814453125,1,0.92
2020-05-19 15:04:34.169 -0400,1589915068.859852,41.37495542736311,-71.83004358412974,-1.401134,-1,-1,15.3377799987793,1146.078749560566,-9999,6963.135340125001,0.49847412109375,0.304351806640625,-0.2032928466796875,1,0.92
2020-05-19 15:04:34.219 -0400,1589915068.859852,41.37495542736311,-71.83004358412974,-1.401134,-1,-1,15.3377799987793,1146.078749560566,-9999,6963.185327125,0.5610504150390625,0.2915496826171875,-0.102081298828125,1,0.92
2020-05-19 15:04:34.269 -0400,1589915068.859852,41.37495542736311,-71.83004358412974,-1.401134,-1,-1,15.3377799987793,1146.078749560566,-9999,6963.235315125001,0.7935791015625,0.2805023193359375,-0.07794189453125,1,0.92
2020-05-19 15:04:34.319 -0400,1589915068.859852,41.37495542736311,-71.83004358412974,-1.401134,-1,-1,15.3377799987793,1146.078749560566,-9999,6963.285302125,1.02880859375,0.2679901123046875,-0.085601806640625,1,0.92
2020-05-19 15:04:34.369 -0400,1589915068.859852,41.37495542736311,-71.83004358412974,-1.401134,-1,-1,15.3377799987793,1146.078749560566,-9999,6963.335290125,0.936767578125,0.32086181640625,-0.1046905517578125,1,0.92
2020-05-19 15:04:34.419 -0400,1589915068.859852,41.37495542736311,-71.83004358412974,-1.401134,-1,-1,15.3377799987793,1146.078749560566,-9999,6963.385276166667,1.15411376953125,0.395904541015625,-0.2017059326171875,1,0.92
2020-05-19 15:04:34.469 -0400,1589915068.859852,41.37495542736311,-71.83004358412974,-1.401134,-1,-1,15.3377799987793,1146.078749560566,-9999,6963.435264166667,1.074310302734375,0.3825225830078125,-0.3175506591796875,1,0.92
2020-05-19 15:04:34.519 -0400,1589915068.859852,41.37495542736311,-71.83004358412974,-1.401134,-1,-1,15.3377799987793,1146.078749560566,-9999,6963.485251166667,1.327056884765625,0.432708740234375,-0.4662628173828125,1,0.92
2020-05-19 15:04:34.569 -0400,1589915068.859852,41.37495542736311,-71.83004358412974,-1.401134,-1,-1,15.3377799987793,1146.078749560566,-9999,6963.535238166667,0.9386138916015625,0.3461151123046875,-0.442840576171875,1,0.92
2020-05-19 15:04:34.619 -0400,1589915068.859852,41.37495542736311,-71.83004358412974,-1.401134,-1,-1,15.3377799987793,1146.078749560566,-9999,6963.585226166667,0.537628173828125,0.1924591064453125,-0.3925933837890625,1,0.92
2020-05-19 15:04:34.669 -0400,1589915068.859852,41.37495542736311,-71.83004358412974,-1.401134,-1,-1,15.3377799987793,1146.078749560566,-9999,6963.635213166667,0.5143280029296875,0.3439178466796875,-0.3586578369140625,1,0.92
2020-05-19 15:04:34.719 -0400,1589915068.859852,41.37495542736311,-71.83004358412974,-1.401134,-1,-1,15.3377799987793,1146.078749560566,-9999,6963.685201166667,0.6506805419921875,0.54449462890625,-0.376922607421875,1,0.92
2020-05-19 15:04:34.769 -0400,1589915068.859852,41.37495542736311,-71.83004358412974,-1.401134,-1,-1,15.3377799987793,1146.078749560566,-9999,6963.735188166667,0.8682708740234375,0.6884918212890625,-0.4423980712890625,1,0.92
2020-05-19 15:04:34.819 -0400,1589915068.859852,41.37495542736311,-71.83004358412974,-1.401134,-1,-1,15.3377799987793,1146.078749560566,-9999,6963.785175166667,1.146087646484375,0.752166748046875,-0.5675506591796875,1,0.92
2020-05-19 15:04:34.869 -0400,1589915068.859852,41.37495542736311,-71.83004358412974,-1.401134,-1,-1,15.3377799987793,1146.078749560566,-9999,6963.835163166667,1.405899047851562,0.8316192626953125,-0.5299835205078125,1,0.92
2020-05-19 15:04:34.919 -0400,1589915068.859852,41.37495542736311,-71.83004358412974,-1.401134,-1,-1,15.3377799987793,1146.078749560566,-9999,6963.885150166667,1.277938842773438,0.649200439453125,-0.538055419921875,1,0.92
2020-05-19 15:04:34.969 -0400,1589915068.859852,41.37495542736311,-71.83004358412974,-1.401134,-1,-1,15.3377799987793,1146.078749560566,-9999,6963.935138166667,1.303024291992188,0.5692901611328125,-0.4844818115234375,1,0.92
2020-05-19 15:04:35.019 -0400,1589915068.859852,41.37495542736311,-71.83004358412974,-1.401134,-1,-1,15.3377799987793,1146.078749560566,-9999,6963.985125166667,1.434616088867188,0.5197906494140625,-0.39080810546875,1,0.92
2020-05-19 15:04:35.069 -0400,1589915068.859852,41.37495542736311,-71.83004358412974,-1.401134,-1,-1,15.3377799987793,1146.078749560566,-9999,6964.035112166667,1.002288818359375,0.3629302978515625,-0.3763885498046875,1,0.92
2020-05-19 15:04:35.119 -0400,1589915068.859852,41.37495542736311,-71.83004358412974,-1.401134,-1,-1,15.3377799987793,1146.078749560566,-9999,6964.085100166667,0.6243896484375,0.286407470703125,-0.3145294189453125,1,0.92
2020-05-19 15:04:35.169 -0400,1589915068.859852,41.37495542736311,-71.83004358412974,-1.401134,-1,-1,15.3377799987793,1146.078749560566,-9999,6964.135087166667,0.60198974609375,0.2946624755859375,-0.157989501953125,1,0.92
2020-05-19 15:04:35.219 -0400,1589915068.859852,41.37495542736311,-71.83004358412974,-1.401134,-1,-1,15.3377799987793,1146.078749560566,-9999,6964.185075166667,0.7063140869140625,0.2725067138671875,-0.114990234375,1,0.92
2020-05-19 15:04:35.269 -0400,1589915068.859852,41.37495542736311,-71.83004358412974,-1.401134,-1,-1,15.3377799987793,1146.078749560566,-9999,6964.235062166667,0.9050750732421875,0.2309722900390625,-0.06500244140625,1,0.92
2020-05-19 15:04:35.319 -0400,1589915068.859852,41.37495542736311,-71.83004358412974,-1.401134,-1,-1,15.3377799987793,1146.078749560566,-9999,6964.285049166667,0.9960174560546875,0.218170166015625,-0.0142059326171875,1,0.92
2020-05-19 15:04:35.369 -0400,1589915068.859852,41.37495542736311,-71.83004358412974,-1.401134,-1,-1,15.3377799987793,1146.078749560566,-9999,6964.335037166667,0.860504150390625,0.2841339111328125,-0.0572052001953125,1,0.92
2020-05-19 15:04:35.419 -0400,1589915068.859852,41.37495542736311,-71.83004358412974,-1.401134,-1,-1,15.3377799987793,1146.078749560566,-9999,6964.385025125001,0.9625091552734375,0.42803955078125,-0.12896728515625,1,0.92
2020-05-19 15:04:35.469 -0400,1589915068.859852,41.37495542736311,-71.83004358412974,-1.401134,-1,-1,15.3377799987793,1146.078749560566,-9999,6964.435013125,1.115325927734375,0.5035247802734375,-0.45294189453125,1,0.92
2020-05-19 15:04:35.519 -0400,1589915068.859852,41.37495542736311,-71.83004358412974,-1.401134,-1,-1,15.3377799987793,1146.078749560566,-9999,6964.485000125001,1.385101318359375,0.4976806640625,-0.517974853515625,1,0.92
2020-05-19 15:04:35.569 -0400,1589915068.859852,41.37495542736311,-71.83004358412974,-1.401134,-1,-1,15.3377799987793,1146.078749560566,-9999,6964.534987125,0.8450164794921875,0.3157958984375,-0.43658447265625,1,0.92
2020-05-19 15:04:35.619 -0400,1589915068.859852,41.37495542736311,-71.83004358412974,-1.401134,-1,-1,15.3377799987793,1146.078749560566,-9999,6964.584975125001,0.5800018310546875,0.278472900390625,-0.41754150390625,1,0.92
2020-05-19 15:04:35.669 -0400,1589915068.859852,41.37495542736311,-71.83004358412974,-1.401134,-1,-1,15.3377799987793,1146.078749560566,-9999,6964.634962125,0.5794525146484375,0.4482574462890625,-0.329681396484375,1,0.92
2020-05-19 15:04:35.719 -0400,1589915068.859852,41.37495542736311,-71.83004358412974,-1.401134,-1,-1,15.3377799987793,1146.078749560566,-9999,6964.684950125001,0.7232818603515625,0.6498260498046875,-0.3813323974609375,1,0.92
2020-05-19 15:04:35.769 -0400,1589915068.859852,41.37495542736311,-71.83004358412974,-1.401134,-1,-1,15.3377799987793,1146.078749560566,-9999,6964.734937125,0.954803466796875,0.678741455078125,-0.4890899658203125,1,0.92
2020-05-19 15:04:35.819 -0400,1589915068.859852,41.37495542736311,-71.83004358412974,-1.401134,-1,-1,15.3377799987793,1146.078749560566,-9999,6964.784924125001,1.104568481445312,0.64483642578125,-0.5054931640625,1,0.92
2020-05-19 15:04:35.869 -0400,1589915068.859852,41.37495542736311,-71.83004358412974,-1.401134,-1,-1,15.3377799987793,1146.078749560566,-9999,6964.834912125,1.170578002929688,0.6834869384765625,-0.4202423095703125,1,0.92
2020-05-19 15:04:35.919 -0400,1589915068.859852,41.37495542736311,-71.83004358412974,-1.401134,-1,-1,15.3377799987793,1146.078749560566,-9999,6964.884899125001,1.214508056640625,0.7894744873046875,-0.60382080078125,1,0.92
2020-05-19 15:04:35.969 -0400,1589915068.859852,41.37495542736311,-71.83004358412974,-1.401134,-1,-1,15.3377799987793,1146.078749560566,-9999,6964.934886125,1.4769287109375,0.662353515625,-0.436981201171875,1,0.92
2020-05-19 15:04:36.019 -0400,1589915068.859852,41.37495542736311,-71.83004358412974,-1.401134,-1,-1,15.3377799987793,1146.078749560566,-9999,6964.984874125001,1.571914672851562,0.363983154296875,-0.2747802734375,1,0.92
2020-05-19 15:04:36.069 -0400,1589915068.859852,41.37495542736311,-71.83004358412974,-1.401134,-1,-1,15.3377799987793,1146.078749560566,-9999,6965.034861125,0.9687957763671875,0.22601318359375,-0.3574066162109375,1,0.92
2020-05-19 15:04:36.119 -0400,1589915068.859852,41.37495542736311,-71.83004358412974,-1.401134,-1,-1,15.3377799987793,1146.078749560566,-9999,6965.084848125,0.6106109619140625,0.324798583984375,-0.277435302734375,1,0.92
2020-05-19 15:04:36.169 -0400,1589915068.859852,41.37495542736311,-71.83004358412974,-1.401134,-1,-1,15.3377799987793,1146.078749560566,-9999,6965.134836125,0.6573028564453125,0.3535003662109375,-0.135162353515625,1,0.92
2020-05-19 15:04:36.219 -0400,1589915068.859852,41.37495542736311,-71.83004358412974,-1.401134,-1,-1,15.3377799987793,1146.078749560566,-9999,6965.184823125001,0.71966552734375,0.284332275390625,-0.07623291015625,1,0.92
2020-05-19 15:04:36.269 -0400,1589915068.859852,41.37495542736311,-71.83004358412974,-1.401134,-1,-1,15.3377799987793,1146.078749560566,-9999,6965.234811125,0.8544769287109375,0.205230712890625,-0.048187255859375,1,0.92
2020-05-19 15:04:36.319 -0400,1589915068.859852,41.37495542736311,-71.83004358412974,-1.401134,-1,-1,15.3377799987793,1146.078749560566,-9999,6965.284798125001,0.9062652587890625,0.21588134765625,-0.00299072265625,1,0.92
2020-05-19 15:04:36.369 -0400,1589915068.859852,41.37495542736311,-71.83004358412974,-1.401134,-1,-1,15.3377799987793,1146.078749560566,-9999,6965.334785125,0.9758758544921875,0.3222503662109375,-0.00634765625,1,0.92
2020-05-19 15:04:36.419 -0400,1589915068.859852,41.37495542736311,-71.83004358412974,-1.401134,-1,-1,15.3377799987793,1146.078749560566,-9999,6965.384773166667,0.7958526611328125,0.4315948486328125,-0.1903228759765625,1,0.92
2020-05-19 15:04:36.469 -0400,1589915068.859852,41.37495542736311,-71.83004358412974,-1.401134,-1,-1,15.3377799987793,1146.078749560566,-9999,6965.434760166667,1.347442626953125,0.6566619873046875,-0.5637664794921875,1,0.92
2020-05-19 15:04:36.519 -0400,1589915068.859852,41.37495542736311,-71.83004358412974,-1.401134,-1,-1,15.3377799987793,1146.078749560566,-9999,6965.484747166667,1.410354614257812,0.5142974853515625,-0.4251861572265625,1,0.92
2020-05-19 15:04:36.569 -0400,1589915068.859852,41.37495542736311,-71.83004358412974,-1.401134,-1,-1,15.3377799987793,1146.078749560566,-9999,6965.534735166667,0.7173919677734375,0.2021026611328125,-0.292816162109375,1,0.92
2020-05-19 15:04:36.619 -0400,1589915068.859852,41.37495542736311,-71.83004358412974,-1.401134,-1,-1,15.3377799987793,1146.078749560566,-9999,6965.584722166667,0.5766143798828125,0.283294677734375,-0.3425445556640625,1,0.92
2020-05-19 15:04:36.669 -0400,1589915068.859852,41.37495542736311,-71.83004358412974,-1.401134,-1,-1,15.3377799987793,1146.078749560566,-9999,6965.634709166667,0.644378662109375,0.4471588134765625,-0.336761474609375,1,0.92
2020-05-19 15:04:36.719 -0400,1589915068.859852,41.37495542736311,-71.83004358412974,-1.401134,-1,-1,15.3377799987793,1146.078749560566,-9999,6965.684697166667,0.77227783203125,0.57916259765625,-0.34698486328125,1,0.92
2020-05-19 15:04:36.769 -0400,1589915068.859852,41.37495542736311,-71.83004358412974,-1.401134,-1,-1,15.3377799987793,1146.078749560566,-9999,6965.734684166667,0.944091796875,0.5367279052734375,-0.5514068603515625,1,0.92
2020-05-19 15:04:36.818 -0400,1589915068.859852,41.37495542736311,-71.83004358412974,-1.401134,-1,-1,15.3377799987793,1146.078749560566,-9999,6965.784672166667,1.164886474609375,0.5417327880859375,-0.55621337890625,1,0.92
2020-05-19 15:04:36.869 -0400,1589915068.859852,41.37495542736311,-71.83004358412974,-1.401134,-1,-1,15.3377799987793,1146.078749560566,-9999,6965.834659166667,1.440093994140625,0.6793212890625,-0.577911376953125,1,0.92
2020-05-19 15:04:36.919 -0400,1589915068.859852,41.37495542736311,-71.83004358412974,-1.401134,-1,-1,15.3377799987793,1146.078749560566,-9999,6965.884646166667,1.223190307617188,0.7065582275390625,-0.6003875732421875,1,0.92
2020-05-19 15:04:36.969 -0400,1589915068.859852,41.37495542736311,-71.83004358412974,-1.401134,-1,-1,15.3377799987793,1146.078749560566,-9999,6965.934634166667,1.432235717773438,0.528564453125,-0.3713531494140625,1,0.92
2020-05-19 15:04:37.019 -0400,1589915068.859852,41.37495542736311,-71.83004358412974,-1.401134,-1,-1,15.3377799987793,1146.078749560566,-9999,6965.984621166667,1.315887451171875,0.337127685546875,-0.19573974609375,1,0.92
2020-05-19 15:04:37.069 -0400,1589915068.859852,41.37495542736311,-71.83004358412974,-1.401134,-1,-1,15.3377799987793,1146.078749560566,-9999,6966.034608166667,0.925933837890625,0.273101806640625,-0.2277069091796875,1,0.92
2020-05-19 15:04:37.119 -0400,1589915068.859852,41.37495542736311,-71.83004358412974,-1.401134,-1,-1,15.3377799987793,1146.078749560566,-9999,6966.084596166667,0.6403350830078125,0.3130035400390625,-0.1328582763671875,1,0.92
2020-05-19 15:04:37.169 -0400,1589915068.859852,41.37495542736311,-71.83004358412974,-1.401134,-1,-1,15.3377799987793,1146.078749560566,-9999,6966.134583166667,0.7280426025390625,0.3802947998046875,-0.0576019287109375,1,0.92
2020-05-19 15:04:37.219 -0400,1589915068.859852,41.37495542736311,-71.83004358412974,-1.401134,-1,-1,15.3377799987793,1146.078749560566,-9999,6966.184570166667,0.7751617431640625,0.3076629638671875,-0.011810302734375,1,0.92
2020-05-19 15:04:37.269 -0400,1589915068.859852,41.37495542736311,-71.83004358412974,-1.401134,-1,-1,15.3377799987793,1146.078749560566,-9999,6966.234558166667,0.899444580078125,0.232025146484375,0.0237579345703125,1,0.92
2020-05-19 15:04:37.319 -0400,1589915068.859852,41.37495542736311,-71.83004358412974,-1.401134,-1,-1,15.3377799987793,1146.078749560566,-9999,6966.284545166667,0.8108062744140625,0.24871826171875,0.0382843017578125,1,0.92
2020-05-19 15:04:37.368 -0400,1589915068.859852,41.37495542736311,-71.83004358412974,-1.401134,-1,-1,15.3377799987793,1146.078749560566,-9999,6966.334532166667,0.932220458984375,0.350341796875,-0.1459808349609375,1,0.92
2020-05-19 15:04:37.418 -0400,1589915068.859852,41.37495542736311,-71.83004358412974,-1.401134,-1,-1,15.3377799987793,1146.078749560566,-9999,6966.384520625001,0.9770660400390625,0.4075927734375,-0.213134765625,1,0.92
2020-05-19 15:04:37.468 -0400,1589915068.859852,41.37495542736311,-71.83004358412974,-1.401134,-1,-1,15.3377799987793,1146.078749560566,-9999,6966.434507625,1.383056640625,0.6104888916015625,-0.5320587158203125,1,0.92
2020-05-19 15:04:37.518 -0400,1589915068.859852,41.37495542736311,-71.83004358412974,-1.401134,-1,-1,15.3377799987793,1146.078749560566,-9999,6966.484494625,1.249893188476562,0.4149169921875,-0.3446044921875,1,0.92
2020-05-19 15:04:37.569 -0400,1589915068.859852,41.37495542736311,-71.83004358412974,-1.401134,-1,-1,15.3377799987793,1146.078749560566,-9999,6966.534482625,0.74407958984375,0.287750244140625,-0.343505859375,1,0.92
2020-05-19 15:04:37.618 -0400,1589915068.859852,41.37495542736311,-71.83004358412974,-1.401134,-1,-1,15.3377799987793,1146.078749560566,-9999,6966.584469625001,0.6021881103515625,0.337890625,-0.30462646484375,1,0.92
2020-05-19 15:04:37.668 -0400,1589915068.859852,41.37495542736311,-71.83004358412974,-1.401134,-1,-1,15.3377799987793,1146.078749560566,-9999,6966.634456625,0.6292572021484375,0.6408233642578125,-0.423980712890625,1,0.92
2020-05-19 15:04:37.718 -0400,1589915068.859852,41.37495542736311,-71.83004358412974,-1.401134,-1,-1,15.3377799987793,1146.078749560566,-9999,6966.684444625001,0.7441864013671875,0.495208740234375,-0.4195404052734375,1,0.92
2020-05-19 15:04:37.768 -0400,1589915068.859852,41.37495542736311,-71.83004358412974,-1.401134,-1,-1,15.3377799987793,1146.078749560566,-9999,6966.734431625,1.045562744140625,0.5508880615234375,-0.4814605712890625,1,0.92
2020-05-19 15:04:37.818 -0400,1589915068.859852,41.37495542736311,-71.83004358412974,-1.401134,-1,-1,15.3377799987793,1146.078749560566,-9999,6966.784418625,1.214950561523438,0.6484527587890625,-0.3896331787109375,1,0.92
2020-05-19 15:04:37.868 -0400,1589915068.859852,41.37495542736311,-71.83004358412974,-1.401134,-1,-1,15.3377799987793,1146.078749560566,-9999,6966.834406625,1.391143798828125,0.7160797119140625,-0.5522918701171875,1,0.92
2020-05-19 15:04:37.918 -0400,1589915068.859852,41.37495542736311,-71.83004358412974,-1.401134,-1,-1,15.3377799987793,1146.078749560566,-9999,6966.884393625,1.289138793945312,0.6960601806640625,-0.43365478515625,1,0.92
2020-05-19 15:04:37.968 -0400,1589915068.859852,41.37495542736311,-71.83004358412974,-1.401134,-1,-1,15.3377799987793,1146.078749560566,-9999,6966.934380625001,1.59039306640625,0.5996246337890625,-0.2883148193359375,1,0.92
2020-05-19 15:04:38.018 -0400,1589915068.859852,41.37495542736311,-71.83004358412974,-1.401134,-1,-1,15.3377799987793,1146.078749560566,-9999,6966.984367625,1.1549072265625,0.29638671875,-0.2263336181640625,1,0.92
2020-05-19 15:04:38.068 -0400,1589915068.859852,41.37495542736311,-71.83004358412974,-1.401134,-1,-1,15.3377799987793,1146.078749560566,-9999,6967.034355625,0.681854248046875,0.253143310546875,-0.2363739013671875,1,0.92
2020-05-19 15:04:38.118 -0400,1589915068.859852,41.37495542736311,-71.83004358412974,-1.401134,-1,-1,15.3377799987793,1146.078749560566,-9999,6967.084342625,0.6277618408203125,0.3076171875,-0.1206817626953125,1,0.92
2020-05-19 15:04:38.168 -0400,1589915068.859852,41.37495542736311,-71.83004358412974,-1.401134,-1,-1,15.3377799987793,1146.078749560566,-9999,6967.134329625001,0.674285888671875,0.3144989013671875,-0.0854034423828125,1,0.92
2020-05-19 15:04:38.218 -0400,1589915068.859852,41.37495542736311,-71.83004358412974,-1.401134,-1,-1,15.3377799987793,1146.078749560566,-9999,6967.184317625,0.7698211669921875,0.2332000732421875,-0.0265960693359375,1,0.92
2020-05-19 15:04:38.268 -0400,1589915068.859852,41.37495542736311,-71.83004358412974,-1.401134,-1,-1,15.3377799987793,1146.078749560566,-9999,6967.234304625001,0.8662109375,0.230560302734375,0.01788330078125,1,0.92
2020-05-19 15:04:38.318 -0400,1589915068.859852,41.37495542736311,-71.83004358412974,-1.401134,-1,-1,15.3377799987793,1146.078749560566,-9999,6967.284291625,0.7577362060546875,0.3332672119140625,-0.03118896484375,1,0.92
2020-05-19 15:04:38.368 -0400,1589915068.859852,41.37495542736311,-71.83004358412974,-1.401134,-1,-1,15.3377799987793,1146.078749560566,-9999,6967.334279625001,0.9432525634765625,0.46728515625,-0.1636810302734375,1,0.92
2020-05-19 15:04:38.418 -0400,1589915068.859852,41.37495542736311,-71.83004358412974,-1.401134,-1,-1,15.3377799987793,1146.078749560566,-9999,6967.384266625,1.181350708007812,0.5661773681640625,-0.4274444580078125,1,0.92
2020-05-19 15:04:38.470 -0400,1589915068.859852,41.37495542736311,-71.83004358412974,-1.401134,-1,-1,15.3377799987793,1146.078749560566,-9999,6967.434253166667,1.45196533203125,0.5360565185546875,-0.5178680419921875,1,0.92
2020-05-19 15:04:38.518 -0400,1589915068.859852,41.37495542736311,-71.83004358412974,-1.401134,-1,-1,15.3377799987793,1146.078749560566,-9999,6967.484240166667,0.7503662109375,0.2910919189453125,-0.3336029052734375,1,0.92
2020-05-19 15:04:38.568 -0400,1589915068.859852,41.37495542736311,-71.83004358412974,-1.401134,-1,-1,15.3377799987793,1146.078749560566,-9999,6967.534228166667,0.4870758056640625,0.209930419921875,-0.331756591796875,1,0.92
2020-05-19 15:04:38.618 -0400,1589915068.859852,41.37495542736311,-71.83004358412974,-1.401134,-1,-1,15.3377799987793,1146.078749560566,-9999,6967.584215166667,0.4604949951171875,0.332427978515625,-0.2974853515625,1,0.92
2020-05-19 15:04:38.668 -0400,1589915068.859852,41.37495542736311,-71.83004358412974,-1.401134,-1,-1,15.3377799987793,1146.078749560566,-9999,6967.634202166667,0.581756591796875,0.6849365234375,-0.3225555419921875,1,0.92
2020-05-19 15:04:38.718 -0400,1589915068.859852,41.37495542736311,-71.83004358412974,-1.401134,-1,-1,15.3377799987793,1146.078749560566,-9999,6967.684190166667,0.924224853515625,0.646087646484375,-0.4434967041015625,1,0.92
2020-05-19 15:04:38.768 -0400,1589915068.859852,41.37495542736311,-71.83004358412974,-1.401134,-1,-1,15.3377799987793,1146.078749560566,-9999,6967.734177166667,1.244461059570312,0.5924224853515625,-0.4788360595703125,1,0.92
2020-05-19 15:04:38.818 -0400,1589915068.859852,41.37495542736311,-71.83004358412974,-1.401134,-1,-1,15.3377799987793,1146.078749560566,-9999,6967.784164166667,1.225753784179688,0.5424041748046875,-0.403594970703125,1,0.92
2020-05-19 15:04:38.868 -0400,1589915068.859852,41.37495542736311,-71.83004358412974,-1.401134,-1,-1,15.3377799987793,1146.078749560566,-9999,6967.834151166667,1.161224365234375,0.6664581298828125,-0.5368804931640625,1,0.92
2020-05-19 15:04:38.918 -0400,1589915068.859852,41.37495542736311,-71.83004358412974,-1.401134,-1,-1,15.3377799987793,1146.078749560566,-9999,6967.884139166667,1.3292236328125,0.735870361328125,-0.3373870849609375,1,0.92
2020-05-19 15:04:38.968 -0400,1589915068.859852,41.37495542736311,-71.83004358412974,-1.401134,-1,-1,15.3377799987793,1146.078749560566,-9999,6967.934126166667,1.372421264648438,0.4908905029296875,-0.213592529296875,1,0.92
2020-05-19 15:04:39.018 -0400,1589915068.859852,41.37495542736311,-71.83004358412974,-1.401134,-1,-1,15.3377799987793,1146.078749560566,-9999,6967.984113166667,0.858978271484375,0.21875,-0.217010498046875,1,0.92
2020-05-19 15:04:39.068 -0400,1589915068.859852,41.37495542736311,-71.83004358412974,-1.401134,-1,-1,15.3377799987793,1146.078749560566,-9999,6968.034101166667,0.4873199462890625,0.287261962890625,-0.2044830322265625,1,0.92
2020-05-19 15:04:39.118 -0400,1589915068.859852,41.37495542736311,-71.83004358412974,-1.401134,-1,-1,15.3377799987793,1146.078749560566,-9999,6968.084088166667,0.573974609375,0.432861328125,-0.1136016845703125,1,0.92
2020-05-19 15:04:39.168 -0400,1589915068.859852,41.37495542736311,-71.83004358412974,-1.401134,-1,-1,15.3377799987793,1146.078749560566,-9999,6968.134075166667,0.715606689453125,0.359130859375,-0.0416412353515625,1,0.92
2020-05-19 15:04:39.220 -0400,1589915068.859852,41.37495542736311,-71.83004358412974,-1.401134,-1,-1,15.3377799987793,1146.078749560566,-9999,6968.184062166667,0.9430084228515625,0.2520904541015625,-0.0118560791015625,1,0.92
2020-05-19 15:04:39.268 -0400,1589915068.859852,41.37495542736311,-71.83004358412974,-1.401134,-1,-1,15.3377799987793,1146.078749560566,-9999,6968.234050166667,1.014877319335938,0.254119873046875,0.0700531005859375,1,0.92
2020-05-19 15:04:39.318 -0400,1589915068.859852,41.37495542736311,-71.83004358412974,-1.401134,-1,-1,15.3377799987793,1146.078749560566,-9999,6968.284037166667,0.93157958984375,0.41314697265625,-0.0791778564453125,1,0.92
2020-05-19 15:04:39.368 -0400,1589915068.859852,41.37495542736311,-71.83004358412974,-1.401134,-1,-1,15.3377799987793,1146.078749560566,-9999,6968.334024166667,0.8793487548828125,0.5352325439453125,-0.1885986328125,1,0.92
2020-05-19 15:04:39.418 -0400,1589915068.859852,41.37495542736311,-71.83004358412974,-1.401134,-1,-1,15.3377799987793,1146.078749560566,-9999,6968.384011166667,1.1630859375,0.6128082275390625,-0.349395751953125,1,0.92
2020-05-19 15:04:39.468 -0400,1589915068.859852,41.37495542736311,-71.83004358412974,-1.401134,-1,-1,15.3377799987793,1146.078749560566,-9999,6968.433999000001,1.325088500976562,0.5753326416015625,-0.434844970703125,1,0.92
2020-05-19 15:04:39.518 -0400,1589915068.859852,41.37495542736311,-71.83004358412974,-1.401134,-1,-1,15.3377799987793,1146.078749560566,-9999,6968.483986,0.669464111328125,0.1945037841796875,-0.257476806640625,1,0.92
2020-05-19 15:04:39.568 -0400,1589915068.859852,41.37495542736311,-71.83004358412974,-1.401134,-1,-1,15.3377799987793,1146.078749560566,-9999,6968.533973000001,0.5388946533203125,0.327606201171875,-0.3200531005859375,1,0.92
2020-05-19 15:04:39.618 -0400,1589915068.859852,41.37495542736311,-71.83004358412974,-1.401134,-1,-1,15.3377799987793,1146.078749560566,-9999,6968.583961,0.4851531982421875,0.515380859375,-0.363067626953125,1,0.92
2020-05-19 15:04:39.668 -0400,1589915068.859852,41.37495542736311,-71.83004358412974,-1.401134,-1,-1,15.3377799987793,1146.078749560566,-9999,6968.633948000001,0.606231689453125,0.666168212890625,-0.3568267822265625,1,0.92
2020-05-19 15:04:39.718 -0400,1589915068.859852,41.37495542736311,-71.83004358412974,-1.401134,-1,-1,15.3377799987793,1146.078749560566,-9999,6968.683935,0.86029052734375,0.5592803955078125,-0.359588623046875,1,0.92
2020-05-19 15:04:39.768 -0400,1589915068.859852,41.37495542736311,-71.83004358412974,-1.401134,-1,-1,15.3377799987793,1146.078749560566,-9999,6968.733922,1.25927734375,0.568023681640625,-0.525543212890625,1,0.92
2020-05-19 15:04:39.818 -0400,1589915068.859852,41.37495542736311,-71.83004358412974,-1.401134,-1,-1,15.3377799987793,1146.078749560566,-9999,6968.78391,1.164077758789062,0.732177734375,-0.2284393310546875,1,0.92
2020-05-19 15:04:39.868 -0400,1589915068.859852,41.37495542736311,-71.83004358412974,-1.401134,-1,-1,15.3377799987793,1146.078749560566,-9999,6968.833897,1.217910766601562,0.8183746337890625,-0.4235076904296875,1,0.92
2020-05-19 15:04:39.918 -0400,1589915068.859852,41.37495542736311,-71.83004358412974,-1.401134,-1,-1,15.3377799987793,1146.078749560566,-9999,6968.883884000001,1.153564453125,0.590362548828125,0.1824493408203125,1,0.92
2020-05-19 15:04:39.969 -0400,1589915068.859852,41.37495542736311,-71.83004358412974,-1.401134,-1,-1,15.3377799987793,1146.078749560566,-9999,6968.933871,1.054046630859375,0.5146331787109375,0.4712066650390625,1,0.92
2020-05-19 15:04:40.018 -0400,1589915068.859852,41.37495542736311,-71.83004358412974,-1.401134,-1,-1,15.3377799987793,1146.078749560566,-9999,6968.983859000001,0.6313629150390625,0.5111083984375,0.232940673828125,1,0.92
2020-05-19 15:04:40.068 -0400,1589915068.859852,41.37495542736311,-71.83004358412974,-1.401134,-1,-1,15.3377799987793,1146.078749560566,-9999,6969.033846,0.239288330078125,0.411407470703125,0.2414703369140625,1,0.92
2020-05-19 15:04:40.118 -0400,1589915068.859852,41.37495542736311,-71.83004358412974,-1.401134,-1,-1,15.3377799987793,1146.078749560566,-9999,6969.083833000001,0.458251953125,-0.2989044189453125,0.06585693359375,1,0.92
2020-05-19 15:04:40.168 -0400,1589915068.859852,41.37495542736311,-71.83004358412974,-1.401134,-1,-1,15.3377799987793,1146.078749560566,-9999,6969.13382,0.76336669921875,0.376312255859375,0.0579833984375,1,0.92
2020-05-19 15:04:40.218 -0400,1589915068.859852,41.37495542736311,-71.83004358412974,-1.401134,-1,-1,15.3377799987793,1146.078749560566,-9999,6969.183808000001,1.03387451171875,0.519195556640625,0.2108612060546875,1,0.92
2020-05-19 15:04:40.268 -0400,1589915068.859852,41.37495542736311,-71.83004358412974,-1.401134,-1,-1,15.3377799987793,1146.078749560566,-9999,6969.233795,0.9967803955078125,0.9676361083984375,0.600341796875,1,0.92
2020-05-19 15:04:40.318 -0400,1589915068.859852,41.37495542736311,-71.83004358412974,-1.401134,-1,-1,15.3377799987793,1146.078749560566,-9999,6969.283782,0.903900146484375,0.8146514892578125,-0.0012359619140625,1,0.92
2020-05-19 15:04:40.368 -0400,1589915068.859852,41.37495542736311,-71.83004358412974,-1.401134,-1,-1,15.3377799987793,1146.078749560566,-9999,6969.333769000001,1.099258422851562,0.588592529296875,-0.4095916748046875,1,0.92
2020-05-19 15:04:40.418 -0400,1589915068.859852,41.37495542736311,-71.83004358412974,-1.401134,-1,-1,15.3377799987793,1146.078749560566,-9999,6969.383757000001,1.33294677734375,0.54681396484375,-0.1997528076171875,1,0.92
2020-05-19 15:04:40.468 -0400,1589915068.859852,41.37495542736311,-71.83004358412974,-1.401134,-1,-1,15.3377799987793,1146.078749560566,-9999,6969.433744125,1.017898559570312,0.5292816162109375,-0.098663330078125,1,0.92
2020-05-19 15:04:40.518 -0400,1589915068.859852,41.37495542736311,-71.83004358412974,-1.401134,-1,-1,15.3377799987793,1146.078749560566,-9999,6969.483731125,0.5862884521484375,0.4861602783203125,-0.0851593017578125,1,0.92
2020-05-19 15:04:40.568 -0400,1589915068.859852,41.37495542736311,-71.83004358412974,-1.401134,-1,-1,15.3377799987793,1146.078749560566,-9999,6969.533718125001,0.7561798095703125,0.282073974609375,-0.7529296875,1,0.92
2020-05-19 15:04:40.618 -0400,1589915068.859852,41.37495542736311,-71.83004358412974,-1.401134,-1,-1,15.3377799987793,1146.078749560566,-9999,6969.583706125,0.627166748046875,0.1879730224609375,-0.0850830078125,1,0.92
2020-05-19 15:04:40.668 -0400,1589915068.859852,41.37495542736311,-71.83004358412974,-1.401134,-1,-1,15.3377799987793,1146.078749560566,-9999,6969.633693125001,0.70013427734375,0.04693603515625,0.2767791748046875,1,0.92
2020-05-19 15:04:40.718 -0400,1589915068.859852,41.37495542736311,-71.83004358412974,-1.401134,-1,-1,15.3377799987793,1146.078749560566,-9999,6969.683680125,1.187545776367188,0.6355438232421875,-0.167205810546875,1,0.92
2020-05-19 15:04:40.768 -0400,1589915068.859852,41.37495542736311,-71.83004358412974,-1.401134,-1,-1,15.3377799987793,1146.078749560566,-9999,6969.733667125,1.586212158203125,0.7561187744140625,-1.830917358398438,1,0.92
2020-05-19 15:04:40.818 -0400,1589915068.859852,41.37495542736311,-71.83004358412974,-1.401134,-1,-1,15.3377799987793,1146.078749560566,-9999,6969.783654125001,1.141952514648438,0.8791046142578125,-0.377105712890625,1,0.92
2020-05-19 15:04:40.868 -0400,1589915068.859852,41.37495542736311,-71.83004358412974,-1.401134,-1,-1,15.3377799987793,1146.078749560566,-9999,6969.833642125001,0.8935546875,0.5628662109375,0.1525726318359375,1,0.92
2020-05-19 15:04:40.918 -0400,1589915068.859852,41.37495542736311,-71.83004358412974,-1.401134,-1,-1,15.3377799987793,1146.078749560566,-9999,6969.883629125,0.96063232421875,0.137786865234375,0.42779541015625,1,0.92
2020-05-19 15:04:40.968 -0400,1589915068.859852,41.37495542736311,-71.83004358412974,-1.401134,-1,-1,15.3377799987793,1146.078749560566,-9999,6969.933616125,0.9078216552734375,1.167587280273438,0.283935546875,1,0.92
2020-05-19 15:04:41.018 -0400,1589915068.859852,41.37495542736311,-71.83004358412974,-1.401134,-1,-1,15.3377799987793,1146.078749560566,-9999,6969.983603125001,0.6794281005859375,0.610504150390625,-0.06158447265625,1,0.92
2020-05-19 15:04:41.067 -0400,1589915068.859852,41.37495542736311,-71.83004358412974,-1.401134,-1,-1,15.3377799987793,1146.078749560566,-9999,6970.033590125,0.5037994384765625,0.217529296875,-0.2042236328125,1,0.92
2020-05-19 15:04:41.118 -0400,1589915068.859852,41.37495542736311,-71.83004358412974,-1.401134,-1,-1,15.3377799987793,1146.078749560566,-9999,6970.083578125001,0.392791748046875,0.2315521240234375,-0.117828369140625,1,0.92
2020-05-19 15:04:41.167 -0400,1589915068.859852,41.37495542736311,-71.83004358412974,-1.401134,-1,-1,15.3377799987793,1146.078749560566,-9999,6970.133565125,0.4374542236328125,0.514434814453125,0.0459136962890625,1,0.92
2020-05-19 15:04:41.217 -0400,1589915068.859852,41.37495542736311,-71.83004358412974,-1.401134,-1,-1,15.3377799987793,1146.078749560566,-9999,6970.183552125,0.661376953125,0.4360809326171875,-0.1314239501953125,1,0.92
2020-05-19 15:04:41.267 -0400,1589915068.859852,41.37495542736311,-71.83004358412974,-1.401134,-1,-1,15.3377799987793,1146.078749560566,-9999,6970.233539125001,1.07977294921875,1.171646118164062,0.0040435791015625,1,0.92
2020-05-19 15:04:41.317 -0400,1589915068.859852,41.37495542736311,-71.83004358412974,-1.401134,-1,-1,15.3377799987793,1146.078749560566,-9999,6970.283527125001,1.11029052734375,1.114364624023438,-0.3826141357421875,1,0.92
2020-05-19 15:04:41.367 -0400,1589915068.859852,41.37495542736311,-71.83004358412974,-1.401134,-1,-1,15.3377799987793,1146.078749560566,-9999,6970.333514125001,1.087310791015625,0.799072265625,-0.17559814453125,1,0.92
2020-05-19 15:04:41.417 -0400,1589915068.859852,41.37495542736311,-71.83004358412974,-1.401134,-1,-1,15.3377799987793,1146.078749560566,-9999,6970.383501125,1.070281982421875,0.9770050048828125,-0.157440185546875,1,0.92
2020-05-19 15:04:41.467 -0400,1589915068.859852,41.37495542736311,-71.83004358412974,-1.401134,-1,-1,15.3377799987793,1146.078749560566,-9999,6970.433488125001,0.515411376953125,0.648956298828125,-0.447235107421875,1,0.92
2020-05-19 15:04:41.517 -0400,1589915068.859852,41.37495542736311,-71.83004358412974,-1.401134,-1,-1,15.3377799987793,1146.078749560566,-9999,6970.483475125,0.2358551025390625,0.0813751220703125,-0.2193145751953125,1,0.92
2020-05-19 15:04:41.568 -0400,1589915068.859852,41.37495542736311,-71.83004358412974,-1.401134,-1,-1,15.3377799987793,1146.078749560566,-9999,6970.533463125001,0.183685302734375,0.089935302734375,0.2606964111328125,1,0.92
2020-05-19 15:04:41.617 -0400,1589915068.859852,41.37495542736311,-71.83004358412974,-1.401134,-1,-1,15.3377799987793,1146.078749560566,-9999,6970.583450125,0.524810791015625,0.57562255859375,-0.099884033203125,1,0.92
2020-05-19 15:04:41.667 -0400,1589915068.859852,41.37495542736311,-71.83004358412974,-1.401134,-1,-1,15.3377799987793,1146.078749560566,-9999,6970.633437125,0.720428466796875,0.6992340087890625,-0.0509033203125,1,0.92
2020-05-19 15:04:41.717 -0400,1589915068.859852,41.37495542736311,-71.83004358412974,-1.401134,-1,-1,15.3377799987793,1146.078749560566,-9999,6970.683424125001,1.011734008789062,0.4578857421875,-0.532470703125,1,0.92
2020-05-19 15:04:41.767 -0400,1589915068.859852,41.37495542736311,-71.83004358412974,-1.401134,-1,-1,15.3377799987793,1146.078749560566,-9999,6970.733411125,1.377456665039062,0.731109619140625,-1.602828979492188,1,0.92
2020-05-19 15:04:41.817 -0400,1589915068.859852,41.37495542736311,-71.83004358412974,-1.401134,-1,-1,15.3377799987793,1146.078749560566,-9999,6970.783399125001,0.94268798828125,0.5388946533203125,-0.4286041259765625,1,0.92
2020-05-19 15:04:41.868 -0400,1589915068.859852,41.37495542736311,-71.83004358412974,-1.401134,-1,-1,15.3377799987793,1146.078749560566,-9999,6970.833386125,0.87158203125,0.5872039794921875,-0.43695068359375,1,0.92
2020-05-19 15:04:41.917 -0400,1589915068.859852,41.37495542736311,-71.83004358412974,-1.401134,-1,-1,15.3377799987793,1146.078749560566,-9999,6970.883373125001,0.8375091552734375,0.3570098876953125,-0.410491943359375,1,0.92
2020-05-19 15:04:41.967 -0400,1589915068.859852,41.37495542736311,-71.83004358412974,-1.401134,-1,-1,15.3377799987793,1146.078749560566,-9999,6970.933360125,0.94305419921875,0.580078125,-0.5023193359375,1,0.92
2020-05-19 15:04:42.017 -0400,1589915081.665481,41.37484782324512,-71.83046035519546,-49.77576,1.686426,325.6691338361127,220.3617936101076,122.0385778595398,-9999,6970.983347125,0.6925811767578125,0.3690338134765625,-0.25860595703125,1,0.92
2020-05-19 15:04:42.067 -0400,1589915081.665481,41.37484782324512,-71.83046035519546,-49.77576,1.686426,325.6691338361127,220.3617936101076,122.0385778595398,-9999,6971.033335125,0.4519805908203125,0.40399169921875,-0.464935302734375,1,0.92
2020-05-19 15:04:42.117 -0400,1589915081.665481,41.37484782324512,-71.83046035519546,-49.77576,1.686426,325.6691338361127,220.3617936101076,122.0385778595398,-9999,6971.083322125,0.36407470703125,-0.041168212890625,-0.4405975341796875,1,0.92
2020-05-19 15:04:42.167 -0400,1589915081.665481,41.37484782324512,-71.83046035519546,-49.77576,1.686426,325.6691338361127,220.3617936101076,122.0385778595398,-9999,6971.133309125001,0.6472930908203125,0.3778076171875,-0.3305511474609375,1,0.92
2020-05-19 15:04:42.217 -0400,1589915081.665481,41.37484782324512,-71.83046035519546,-49.77576,1.686426,325.6691338361127,220.3617936101076,122.0385778595398,-9999,6971.183296125,1.117355346679688,0.4266357421875,-0.2377777099609375,1,0.92
2020-05-19 15:04:42.267 -0400,1589915081.665481,41.37484782324512,-71.83046035519546,-49.77576,1.686426,325.6691338361127,220.3617936101076,122.0385778595398,-9999,6971.233283125001,1.216094970703125,0.544525146484375,-0.4564361572265625,1,0.92
2020-05-19 15:04:42.317 -0400,1589915081.665481,41.37484782324512,-71.83046035519546,-49.77576,1.686426,325.6691338361127,220.3617936101076,122.0385778595398,-9999,6971.283271125,1.35693359375,0.5806121826171875,-0.286956787109375,1,0.92
2020-05-19 15:04:42.367 -0400,1589915081.665481,41.37484782324512,-71.83046035519546,-49.77576,1.686426,325.6691338361127,220.3617936101076,122.0385778595398,-9999,6971.333258125001,1.161346435546875,0.5225830078125,-0.22698974609375,1,0.92
2020-05-19 15:04:42.417 -0400,1589915081.665481,41.37484782324512,-71.83046035519546,-49.77576,1.686426,325.6691338361127,220.3617936101076,122.0385778595398,-9999,6971.383245125,1.062957763671875,0.3834075927734375,-0.187225341796875,1,0.92
2020-05-19 15:04:42.467 -0400,1589915081.665481,41.37484782324512,-71.83046035519546,-49.77576,1.686426,325.6691338361127,220.3617936101076,122.0385778595398,-9999,6971.433232541667,0.9777984619140625,0.4611663818359375,-0.2504119873046875,1,0.92
2020-05-19 15:04:42.517 -0400,1589915081.665481,41.37484782324512,-71.83046035519546,-49.77576,1.686426,325.6691338361127,220.3617936101076,122.0385778595398,-9999,6971.483219541667,0.659942626953125,0.27880859375,-0.3342437744140625,1,0.92
2020-05-19 15:04:42.567 -0400,1589915081.665481,41.37484782324512,-71.83046035519546,-49.77576,1.686426,325.6691338361127,220.3617936101076,122.0385778595398,-9999,6971.533206541667,0.5202789306640625,0.1941680908203125,-0.440887451171875,1,0.92
2020-05-19 15:04:42.617 -0400,1589915081.665481,41.37484782324512,-71.83046035519546,-49.77576,1.686426,325.6691338361127,220.3617936101076,122.0385778595398,-9999,6971.583194541667,0.672332763671875,0.5951385498046875,-0.6200714111328125,1,0.92
2020-05-19 15:04:42.667 -0400,1589915081.665481,41.37484782324512,-71.83046035519546,-49.77576,1.686426,325.6691338361127,220.3617936101076,122.0385778595398,-9999,6971.633181541667,0.5675506591796875,0.28857421875,-0.507965087890625,1,0.92
2020-05-19 15:04:42.717 -0400,1589915081.665481,41.37484782324512,-71.83046035519546,-49.77576,1.686426,325.6691338361127,220.3617936101076,122.0385778595398,-9999,6971.683168541667,0.3912200927734375,0.53656005859375,-0.5257415771484375,1,0.92
2020-05-19 15:04:42.767 -0400,1589915081.665481,41.37484782324512,-71.83046035519546,-49.77576,1.686426,325.6691338361127,220.3617936101076,122.0385778595398,-9999,6971.733155541667,0.55517578125,0.91156005859375,-0.3657989501953125,1,0.92
2020-05-19 15:04:42.817 -0400,1589915081.665481,41.37484782324512,-71.83046035519546,-49.77576,1.686426,325.6691338361127,220.3617936101076,122.0385778595398,-9999,6971.783142541667,0.51007080078125,0.9158935546875,-0.49407958984375,1,0.92
2020-05-19 15:04:42.867 -0400,1589915081.665481,41.37484782324512,-71.83046035519546,-49.77576,1.686426,325.6691338361127,220.3617936101076,122.0385778595398,-9999,6971.833129541667,0.540252685546875,1.224136352539062,0.0215301513671875,1,0.92
2020-05-19 15:04:42.925 -0400,1589915081.665481,41.37484782324512,-71.83046035519546,-49.77576,1.686426,325.6691338361127,220.3617936101076,122.0385778595398,-9999,6971.883117541667,0.660369873046875,0.8524169921875,0.0860748291015625,1,0.92
2020-05-19 15:04:42.970 -0400,1589915082.665488,41.37484672661494,-71.83071819546542,5.067189,1.686426,299.0106480160272,20.26705203568894,96.9194798005846,-9999,6971.933104541667,0.69830322265625,0.9434356689453125,0.2260284423828125,1,0.92
2020-05-19 15:04:43.017 -0400,1589915082.665488,41.37484672661494,-71.83071819546542,5.067189,1.686426,299.0106480160272,20.26705203568894,96.9194798005846,-9999,6971.983091541667,0.5714874267578125,0.81243896484375,0.2540435791015625,1,0.92
2020-05-19 15:04:43.067 -0400,1589915082.665488,41.37484672661494,-71.83071819546542,5.067189,1.686426,299.0106480160272,20.26705203568894,96.9194798005846,-9999,6972.033078541667,0.5012359619140625,0.656341552734375,0.1025848388671875,1,0.92
2020-05-19 15:04:43.117 -0400,1589915082.665488,41.37484672661494,-71.83071819546542,5.067189,1.686426,299.0106480160272,20.26705203568894,96.9194798005846,-9999,6972.083065541667,0.4512939453125,0.381927490234375,0.2515716552734375,1,0.92
2020-05-19 15:04:43.167 -0400,1589915082.665488,41.37484672661494,-71.83071819546542,5.067189,1.686426,299.0106480160272,20.26705203568894,96.9194798005846,-9999,6972.133052541667,0.693939208984375,0.66680908203125,0.23004150390625,1,0.92
2020-05-19 15:04:43.217 -0400,1589915082.665488,41.37484672661494,-71.83071819546542,5.067189,1.686426,299.0106480160272,20.26705203568894,96.9194798005846,-9999,6972.183039541667,0.6999664306640625,0.73492431640625,0.394744873046875,1,0.92
2020-05-19 15:04:43.267 -0400,1589915082.665488,41.37484672661494,-71.83071819546542,5.067189,1.686426,299.0106480160272,20.26705203568894,96.9194798005846,-9999,6972.233027541667,0.8720550537109375,0.9525604248046875,0.45758056640625,1,0.92
2020-05-19 15:04:43.317 -0400,1589915082.665488,41.37484672661494,-71.83071819546542,5.067189,1.686426,299.0106480160272,20.26705203568894,96.9194798005846,-9999,6972.283014541667,0.7944793701171875,0.8572845458984375,0.749298095703125,1,0.92
2020-05-19 15:04:43.367 -0400,1589915082.665488,41.37484672661494,-71.83071819546542,5.067189,1.686426,299.0106480160272,20.26705203568894,96.9194798005846,-9999,6972.333001541667,0.654144287109375,0.866485595703125,0.719696044921875,1,0.92
2020-05-19 15:04:43.417 -0400,1589915082.665488,41.37484672661494,-71.83071819546542,5.067189,1.686426,299.0106480160272,20.26705203568894,96.9194798005846,-9999,6972.382988541667,0.559051513671875,1.118423461914062,0.4980926513671875,1,0.92
2020-05-19 15:04:43.467 -0400,1589915082.665488,41.37484672661494,-71.83071819546542,5.067189,1.686426,299.0106480160272,20.26705203568894,96.9194798005846,-9999,6972.432975041667,0.4067230224609375,0.88848876953125,0.4069366455078125,1,0.92
2020-05-19 15:04:43.517 -0400,1589915082.665488,41.37484672661494,-71.83071819546542,5.067189,1.686426,299.0106480160272,20.26705203568894,96.9194798005846,-9999,6972.482962041667,0.248992919921875,0.463958740234375,0.689453125,1,0.92
2020-05-19 15:04:43.567 -0400,1589915082.665488,41.37484672661494,-71.83071819546542,5.067189,1.686426,299.0106480160272,20.26705203568894,96.9194798005846,-9999,6972.532949041667,0.2455291748046875,0.7220458984375,0.2344818115234375,1,0.92
2020-05-19 15:04:43.617 -0400,1589915082.665488,41.37484672661494,-71.83071819546542,5.067189,1.686426,299.0106480160272,20.26705203568894,96.9194798005846,-9999,6972.582937041667,0.2738037109375,0.5909881591796875,0.0485992431640625,1,0.92
2020-05-19 15:04:43.667 -0400,1589915082.665488,41.37484672661494,-71.83071819546542,5.067189,1.686426,299.0106480160272,20.26705203568894,96.9194798005846,-9999,6972.632924041667,0.40252685546875,0.2014617919921875,0.0099029541015625,1,0.92
2020-05-19 15:04:43.717 -0400,1589915082.665488,41.37484672661494,-71.83071819546542,5.067189,1.686426,299.0106480160272,20.26705203568894,96.9194798005846,-9999,6972.682911041667,0.5851898193359375,0.0812835693359375,-0.2230072021484375,1,0.92
2020-05-19 15:04:43.767 -0400,1589915082.665488,41.37484672661494,-71.83071819546542,5.067189,1.686426,299.0106480160272,20.26705203568894,96.9194798005846,-9999,6972.732898041667,1.01202392578125,0.9714813232421875,-0.58123779296875,1,0.92
2020-05-19 15:04:43.817 -0400,1589915082.665488,41.37484672661494,-71.83071819546542,5.067189,1.686426,299.0106480160272,20.26705203568894,96.9194798005846,-9999,6972.782885041667,1.082565307617188,0.919647216796875,-0.6132659912109375,1,0.92
2020-05-19 15:04:43.867 -0400,1589915082.665488,41.37484672661494,-71.83071819546542,5.067189,1.686426,299.0106480160272,20.26705203568894,96.9194798005846,-9999,6972.832872041668,1.046096801757812,0.8985595703125,-0.55810546875,1,0.92
2020-05-19 15:04:43.917 -0400,1589915082.665488,41.37484672661494,-71.83071819546542,5.067189,1.686426,299.0106480160272,20.26705203568894,96.9194798005846,-9999,6972.882859041667,0.7570037841796875,1.153167724609375,-0.3407135009765625,1,0.92
2020-05-19 15:04:43.967 -0400,1589915083.665494,41.37486586059889,-71.83088194435597,4.68916,0.7775369,8.91965582095823,20.20340661153186,46.72436163105922,-9999,6972.932846041667,0.760162353515625,1.197906494140625,-0.265655517578125,1,0.92
2020-05-19 15:04:44.017 -0400,1589915083.665494,41.37486586059889,-71.83088194435597,4.68916,0.7775369,8.91965582095823,20.20340661153186,46.72436163105922,-9999,6972.982834041667,0.626190185546875,0.7237396240234375,-0.2090606689453125,1,0.92
2020-05-19 15:04:44.067 -0400,1589915083.665494,41.37486586059889,-71.83088194435597,4.68916,0.7775369,8.91965582095823,20.20340661153186,46.72436163105922,-9999,6973.032821041667,0.4718170166015625,0.46044921875,-0.2085113525390625,1,0.92
2020-05-19 15:04:44.117 -0400,1589915083.665494,41.37486586059889,-71.83088194435597,4.68916,0.7775369,8.91965582095823,20.20340661153186,46.72436163105922,-9999,6973.082808041667,0.471405029296875,0.3818511962890625,-0.1401214599609375,1,0.92
2020-05-19 15:04:44.167 -0400,1589915083.665494,41.37486586059889,-71.83088194435597,4.68916,0.7775369,8.91965582095823,20.20340661153186,46.72436163105922,-9999,6973.132795041667,0.64752197265625,0.3993072509765625,-0.1134796142578125,1,0.92
2020-05-19 15:04:44.217 -0400,1589915083.665494,41.37486586059889,-71.83088194435597,4.68916,0.7775369,8.91965582095823,20.20340661153186,46.72436163105922,-9999,6973.182782041667,1.064071655273438,0.363037109375,-0.0643310546875,1,0.92
2020-05-19 15:04:44.267 -0400,1589915083.665494,41.37486586059889,-71.83088194435597,4.68916,0.7775369,8.91965582095823,20.20340661153186,46.72436163105922,-9999,6973.232769041667,1.019805908203125,0.350799560546875,-0.037017822265625,1,0.92
2020-05-19 15:04:44.317 -0400,1589915083.665494,41.37486586059889,-71.83088194435597,4.68916,0.7775369,8.91965582095823,20.20340661153186,46.72436163105922,-9999,6973.282756041667,0.9217376708984375,0.443756103515625,-0.2348480224609375,1,0.92
2020-05-19 15:04:44.367 -0400,1589915083.665494,41.37486586059889,-71.83088194435597,4.68916,0.7775369,8.91965582095823,20.20340661153186,46.72436163105922,-9999,6973.332743041668,1.131698608398438,0.54571533203125,-0.2905120849609375,1,0.92
2020-05-19 15:04:44.417 -0400,1589915083.665494,41.37486586059889,-71.83088194435597,4.68916,0.7775369,8.91965582095823,20.20340661153186,46.72436163105922,-9999,6973.382730041667,1.093704223632812,0.5367889404296875,-0.4375,1,0.92
2020-05-19 15:04:44.467 -0400,1589915083.665494,41.37486586059889,-71.83088194435597,4.68916,0.7775369,8.91965582095823,20.20340661153186,46.72436163105922,-9999,6973.432718125,1.17340087890625,0.39630126953125,-0.455963134765625,1,0.92
2020-05-19 15:04:44.517 -0400,1589915083.665494,41.37486586059889,-71.83088194435597,4.68916,0.7775369,8.91965582095823,20.20340661153186,46.72436163105922,-9999,6973.482705125,0.8075714111328125,0.241943359375,-0.2999114990234375,1,0.92
2020-05-19 15:04:44.567 -0400,1589915083.665494,41.37486586059889,-71.83088194435597,4.68916,0.7775369,8.91965582095823,20.20340661153186,46.72436163105922,-9999,6973.532692125001,0.5043182373046875,0.3304443359375,-0.2942352294921875,1,0.92
2020-05-19 15:04:44.617 -0400,1589915083.665494,41.37486586059889,-71.83088194435597,4.68916,0.7775369,8.91965582095823,20.20340661153186,46.72436163105922,-9999,6973.582679125,0.4278106689453125,0.3777313232421875,-0.355194091796875,1,0.92
2020-05-19 15:04:44.667 -0400,1589915083.665494,41.37486586059889,-71.83088194435597,4.68916,0.7775369,8.91965582095823,20.20340661153186,46.72436163105922,-9999,6973.632666125,0.5542449951171875,0.5450592041015625,-0.284912109375,1,0.92
2020-05-19 15:04:44.717 -0400,1589915083.665494,41.37486586059889,-71.83088194435597,4.68916,0.7775369,8.91965582095823,20.20340661153186,46.72436163105922,-9999,6973.682653125001,0.8255462646484375,0.608154296875,-0.35748291015625,1,0.92
2020-05-19 15:04:44.767 -0400,1589915083.665494,41.37486586059889,-71.83088194435597,4.68916,0.7775369,8.91965582095823,20.20340661153186,46.72436163105922,-9999,6973.732640125,1.013671875,0.55047607421875,-0.360870361328125,1,0.92
2020-05-19 15:04:44.817 -0400,1589915083.665494,41.37486586059889,-71.83088194435597,4.68916,0.7775369,8.91965582095823,20.20340661153186,46.72436163105922,-9999,6973.782627125001,1.194534301757812,0.5665283203125,-0.41619873046875,1,0.92
2020-05-19 15:04:44.867 -0400,1589915083.665494,41.37486586059889,-71.83088194435597,4.68916,0.7775369,8.91965582095823,20.20340661153186,46.72436163105922,-9999,6973.832614125001,1.386566162109375,0.5861968994140625,-0.401611328125,1,0.92
2020-05-19 15:04:44.917 -0400,1589915084.665501,41.3748593789357,-71.83086034950395,4.363864,0.1287456,321.8829504961951,20.67828594968681,35.68744849229275,-9999,6973.882601125,0.96209716796875,0.5388641357421875,-0.341339111328125,1,0.92
2020-05-19 15:04:44.967 -0400,1589915084.665501,41.3748593789357,-71.83086034950395,4.363864,0.1287456,321.8829504961951,20.67828594968681,35.68744849229275,-9999,6973.932589125,1.090423583984375,0.5333099365234375,-0.1806488037109375,1,0.92
2020-05-19 15:04:45.017 -0400,1589915084.665501,41.3748593789357,-71.83086034950395,4.363864,0.1287456,321.8829504961951,20.67828594968681,35.68744849229275,-9999,6973.982576125,1.166595458984375,0.4495391845703125,-0.16851806640625,1,0.92
2020-05-19 15:04:45.067 -0400,1589915084.665501,41.3748593789357,-71.83086034950395,4.363864,0.1287456,321.8829504961951,20.67828594968681,35.68744849229275,-9999,6974.032563125001,0.73626708984375,0.4109344482421875,-0.1728973388671875,1,0.92
2020-05-19 15:04:45.117 -0400,1589915084.665501,41.3748593789357,-71.83086034950395,4.363864,0.1287456,321.8829504961951,20.67828594968681,35.68744849229275,-9999,6974.082550125,0.66943359375,0.3549041748046875,-0.1378326416015625,1,0.92
2020-05-19 15:04:45.166 -0400,1589915084.665501,41.3748593789357,-71.83086034950395,4.363864,0.1287456,321.8829504961951,20.67828594968681,35.68744849229275,-9999,6974.132537125,0.802947998046875,0.3800811767578125,-0.09564208984375,1,0.92
2020-05-19 15:04:45.217 -0400,1589915084.665501,41.3748593789357,-71.83086034950395,4.363864,0.1287456,321.8829504961951,20.67828594968681,35.68744849229275,-9999,6974.182524125001,0.90985107421875,0.28912353515625,-0.0504150390625,1,0.92
2020-05-19 15:04:45.266 -0400,1589915084.665501,41.3748593789357,-71.83086034950395,4.363864,0.1287456,321.8829504961951,20.67828594968681,35.68744849229275,-9999,6974.232511125,0.9951171875,0.254608154296875,-0.0250701904296875,1,0.92
2020-05-19 15:04:45.317 -0400,1589915084.665501,41.3748593789357,-71.83086034950395,4.363864,0.1287456,321.8829504961951,20.67828594968681,35.68744849229275,-9999,6974.282498125001,0.881256103515625,0.31640625,-0.0689544677734375,1,0.92
2020-05-19 15:04:45.366 -0400,1589915084.665501,41.3748593789357,-71.83086034950395,4.363864,0.1287456,321.8829504961951,20.67828594968681,35.68744849229275,-9999,6974.332485125001,0.93634033203125,0.4158172607421875,-0.2369842529296875,1,0.92
2020-05-19 15:04:45.416 -0400,1589915084.665501,41.3748593789357,-71.83086034950395,4.363864,0.1287456,321.8829504961951,20.67828594968681,35.68744849229275,-9999,6974.382472125,0.8986053466796875,0.455078125,-0.2516937255859375,1,0.92
2020-05-19 15:04:45.466 -0400,1589915084.665501,41.3748593789357,-71.83086034950395,4.363864,0.1287456,321.8829504961951,20.67828594968681,35.68744849229275,-9999,6974.432459375001,1.048980712890625,0.4455718994140625,-0.47149658203125,1,0.92
2020-05-19 15:04:45.516 -0400,1589915084.665501,41.3748593789357,-71.83086034950395,4.363864,0.1287456,321.8829504961951,20.67828594968681,35.68744849229275,-9999,6974.482446375,1.137786865234375,0.4029541015625,-0.390838623046875,1,0.92
2020-05-19 15:04:45.566 -0400,1589915084.665501,41.3748593789357,-71.83086034950395,4.363864,0.1287456,321.8829504961951,20.67828594968681,35.68744849229275,-9999,6974.532434375001,0.7202911376953125,0.2559051513671875,-0.3023834228515625,1,0.92
2020-05-19 15:04:45.616 -0400,1589915084.665501,41.3748593789357,-71.83086034950395,4.363864,0.1287456,321.8829504961951,20.67828594968681,35.68744849229275,-9999,6974.582421375,0.6006011962890625,0.36944580078125,-0.338958740234375,1,0.92
2020-05-19 15:04:45.666 -0400,1589915084.665501,41.3748593789357,-71.83086034950395,4.363864,0.1287456,321.8829504961951,20.67828594968681,35.68744849229275,-9999,6974.632408375001,0.630859375,0.534149169921875,-0.304931640625,1,0.92
2020-05-19 15:04:45.716 -0400,1589915084.665501,41.3748593789357,-71.83086034950395,4.363864,0.1287456,321.8829504961951,20.67828594968681,35.68744849229275,-9999,6974.682395375001,0.7329254150390625,0.502410888671875,-0.353302001953125,1,0.92
2020-05-19 15:04:45.766 -0400,1589915084.665501,41.3748593789357,-71.83086034950395,4.363864,0.1287456,321.8829504961951,20.67828594968681,35.68744849229275,-9999,6974.732382375,0.8826446533203125,0.4678192138671875,-0.37603759765625,1,0.92
2020-05-19 15:04:45.816 -0400,1589915084.665501,41.3748593789357,-71.83086034950395,4.363864,0.1287456,321.8829504961951,20.67828594968681,35.68744849229275,-9999,6974.782369375001,1.005340576171875,0.517974853515625,-0.348358154296875,1,0.92
2020-05-19 15:04:45.866 -0400,1589915084.665501,41.3748593789357,-71.83086034950395,4.363864,0.1287456,321.8829504961951,20.67828594968681,35.68744849229275,-9999,6974.832356375,1.20660400390625,0.5706634521484375,-0.330902099609375,1,0.92
2020-05-19 15:04:45.916 -0400,1589915084.665501,41.3748593789357,-71.83086034950395,4.363864,0.1287456,321.8829504961951,20.67828594968681,35.68744849229275,-9999,6974.882343375,1.093338012695312,0.6015472412109375,-0.411590576171875,1,0.92
2020-05-19 15:04:45.968 -0400,1589915085.665507,41.374890104894,-71.83081765916093,3.920132,0.4969481,21.62976619520606,16.98733401514788,30.32527434542702,-9999,6974.932330375001,1.228134155273438,0.6435546875,-0.302154541015625,1,0.92
2020-05-19 15:04:46.016 -0400,1589915085.665507,41.374890104894,-71.83081765916093,3.920132,0.4969481,21.62976619520606,16.98733401514788,30.32527434542702,-9999,6974.982317375,1.285675048828125,0.4840545654296875,-0.20037841796875,1,0.92
2020-05-19 15:04:46.066 -0400,1589915085.665507,41.374890104894,-71.83081765916093,3.920132,0.4969481,21.62976619520606,16.98733401514788,30.32527434542702,-9999,6975.032304375,0.896453857421875,0.353515625,-0.2630462646484375,1,0.92
2020-05-19 15:04:46.116 -0400,1589915085.665507,41.374890104894,-71.83081765916093,3.920132,0.4969481,21.62976619520606,16.98733401514788,30.32527434542702,-9999,6975.082291375001,0.6319732666015625,0.3468780517578125,-0.2357940673828125,1,0.92
2020-05-19 15:04:46.166 -0400,1589915085.665507,41.374890104894,-71.83081765916093,3.920132,0.4969481,21.62976619520606,16.98733401514788,30.32527434542702,-9999,6975.132278375,0.6391754150390625,0.34063720703125,-0.189483642578125,1,0.92
2020-05-19 15:04:46.216 -0400,1589915085.665507,41.374890104894,-71.83081765916093,3.920132,0.4969481,21.62976619520606,16.98733401514788,30.32527434542702,-9999,6975.182265375,0.7718353271484375,0.2596282958984375,-0.100189208984375,1,0.92
2020-05-19 15:04:46.266 -0400,1589915085.665507,41.374890104894,-71.83081765916093,3.920132,0.4969481,21.62976619520606,16.98733401514788,30.32527434542702,-9999,6975.232252375001,0.9254608154296875,0.246917724609375,-0.0977783203125,1,0.92
2020-05-19 15:04:46.316 -0400,1589915085.665507,41.374890104894,-71.83081765916093,3.920132,0.4969481,21.62976619520606,16.98733401514788,30.32527434542702,-9999,6975.282239375,0.966400146484375,0.303192138671875,-0.07574462890625,1,0.92
2020-05-19 15:04:46.366 -0400,1589915085.665507,41.374890104894,-71.83081765916093,3.920132,0.4969481,21.62976619520606,16.98733401514788,30.32527434542702,-9999,6975.332226375001,0.984130859375,0.3875885009765625,-0.13800048828125,1,0.92
2020-05-19 15:04:46.416 -0400,1589915085.665507,41.374890104894,-71.83081765916093,3.920132,0.4969481,21.62976619520606,16.98733401514788,30.32527434542702,-9999,6975.382213375,0.963409423828125,0.4879150390625,-0.27850341796875,1,0.92
2020-05-19 15:04:46.466 -0400,1589915085.665507,41.374890104894,-71.83081765916093,3.920132,0.4969481,21.62976619520606,16.98733401514788,30.32527434542702,-9999,6975.432200541667,0.950592041015625,0.53594970703125,-0.4950714111328125,1,0.92
2020-05-19 15:04:46.517 -0400,1589915085.665507,41.374890104894,-71.83081765916093,3.920132,0.4969481,21.62976619520606,16.98733401514788,30.32527434542702,-9999,6975.482188541667,1.2646484375,0.43682861328125,-0.3876190185546875,1,0.92
2020-05-19 15:04:46.566 -0400,1589915085.665507,41.374890104894,-71.83081765916093,3.920132,0.4969481,21.62976619520606,16.98733401514788,30.32527434542702,-9999,6975.532175541667,0.8908233642578125,0.2434539794921875,-0.238006591796875,1,0.92
2020-05-19 15:04:46.617 -0400,1589915085.665507,41.374890104894,-71.83081765916093,3.920132,0.4969481,21.62976619520606,16.98733401514788,30.32527434542702,-9999,6975.582162541667,0.6606292724609375,0.3476104736328125,-0.3694610595703125,1,0.92
2020-05-19 15:04:46.666 -0400,1589915085.665507,41.374890104894,-71.83081765916093,3.920132,0.4969481,21.62976619520606,16.98733401514788,30.32527434542702,-9999,6975.632149541667,0.659881591796875,0.5193023681640625,-0.2959136962890625,1,0.92
2020-05-19 15:04:46.716 -0400,1589915085.665507,41.374890104894,-71.83081765916093,3.920132,0.4969481,21.62976619520606,16.98733401514788,30.32527434542702,-9999,6975.682136541667,0.6983184814453125,0.606903076171875,-0.3379974365234375,1,0.92
2020-05-19 15:04:46.766 -0400,1589915085.665507,41.374890104894,-71.83081765916093,3.920132,0.4969481,21.62976619520606,16.98733401514788,30.32527434542702,-9999,6975.732123541668,0.7607269287109375,0.5492401123046875,-0.3380889892578125,1,0.92
2020-05-19 15:04:46.816 -0400,1589915085.665507,41.374890104894,-71.83081765916093,3.920132,0.4969481,21.62976619520606,16.98733401514788,30.32527434542702,-9999,6975.782110541667,0.9249114990234375,0.59869384765625,-0.3307952880859375,1,0.92
2020-05-19 15:04:46.866 -0400,1589915085.665507,41.374890104894,-71.83081765916093,3.920132,0.4969481,21.62976619520606,16.98733401514788,30.32527434542702,-9999,6975.832097541667,1.12310791015625,0.701690673828125,-0.338165283203125,1,0.92
2020-05-19 15:04:46.916 -0400,1589915085.665507,41.374890104894,-71.83081765916093,3.920132,0.4969481,21.62976619520606,16.98733401514788,30.32527434542702,-9999,6975.882084541667,1.210479736328125,0.74658203125,-0.4981689453125,1,0.92
2020-05-19 15:04:46.966 -0400,1589915086.665514,41.37490490300733,-71.83081401002813,4.142659,0.4969481,21.38382467660651,16.49153236952742,25.21653363099287,-9999,6975.932071541667,1.203048706054688,0.611541748046875,-0.3537750244140625,1,0.92
2020-05-19 15:04:47.016 -0400,1589915086.665514,41.37490490300733,-71.83081401002813,4.142659,0.4969481,21.38382467660651,16.49153236952742,25.21653363099287,-9999,6975.982058541667,1.365081787109375,0.4738922119140625,-0.1990509033203125,1,0.92
2020-05-19 15:04:47.066 -0400,1589915086.665514,41.37490490300733,-71.83081401002813,4.142659,0.4969481,21.38382467660651,16.49153236952742,25.21653363099287,-9999,6976.032045541667,1.0189208984375,0.334625244140625,-0.262908935546875,1,0.92
2020-05-19 15:04:47.116 -0400,1589915086.665514,41.37490490300733,-71.83081401002813,4.142659,0.4969481,21.38382467660651,16.49153236952742,25.21653363099287,-9999,6976.082032541667,0.6986846923828125,0.3719482421875,-0.2554168701171875,1,0.92
2020-05-19 15:04:47.166 -0400,1589915086.665514,41.37490490300733,-71.83081401002813,4.142659,0.4969481,21.38382467660651,16.49153236952742,25.21653363099287,-9999,6976.132019541667,0.7077484130859375,0.405303955078125,-0.1856536865234375,1,0.92
2020-05-19 15:04:47.216 -0400,1589915086.665514,41.37490490300733,-71.83081401002813,4.142659,0.4969481,21.38382467660651,16.49153236952742,25.21653363099287,-9999,6976.182006541667,0.8705291748046875,0.3116912841796875,-0.1016082763671875,1,0.92
2020-05-19 15:04:47.266 -0400,1589915086.665514,41.37490490300733,-71.83081401002813,4.142659,0.4969481,21.38382467660651,16.49153236952742,25.21653363099287,-9999,6976.231993541667,1.00006103515625,0.232391357421875,-0.056365966796875,1,0.92
2020-05-19 15:04:47.316 -0400,1589915086.665514,41.37490490300733,-71.83081401002813,4.142659,0.4969481,21.38382467660651,16.49153236952742,25.21653363099287,-9999,6976.281980541668,0.9776611328125,0.242218017578125,-0.04541015625,1,0.92
2020-05-19 15:04:47.366 -0400,1589915086.665514,41.37490490300733,-71.83081401002813,4.142659,0.4969481,21.38382467660651,16.49153236952742,25.21653363099287,-9999,6976.331967541667,0.6984405517578125,0.315399169921875,-0.087371826171875,1,0.92
2020-05-19 15:04:47.416 -0400,1589915086.665514,41.37490490300733,-71.83081401002813,4.142659,0.4969481,21.38382467660651,16.49153236952742,25.21653363099287,-9999,6976.381954541667,0.8628997802734375,0.4327545166015625,-0.2682952880859375,1,0.92
2020-05-19 15:04:47.467 -0400,1589915086.665514,41.37490490300733,-71.83081401002813,4.142659,0.4969481,21.38382467660651,16.49153236952742,25.21653363099287,-9999,6976.431940875001,0.877410888671875,0.437164306640625,-0.2783966064453125,1,0.92
2020-05-19 15:04:47.516 -0400,1589915086.665514,41.37490490300733,-71.83081401002813,4.142659,0.4969481,21.38382467660651,16.49153236952742,25.21653363099287,-9999,6976.481927875,1.182098388671875,0.4539794921875,-0.508636474609375,1,0.92
2020-05-19 15:04:47.566 -0400,1589915086.665514,41.37490490300733,-71.83081401002813,4.142659,0.4969481,21.38382467660651,16.49153236952742,25.21653363099287,-9999,6976.531914875,1.070541381835938,0.3916168212890625,-0.4880218505859375,1,0.92
2020-05-19 15:04:47.616 -0400,1589915086.665514,41.37490490300733,-71.83081401002813,4.142659,0.4969481,21.38382467660651,16.49153236952742,25.21653363099287,-9999,6976.581901875001,0.6652069091796875,0.254119873046875,-0.3521728515625,1,0.92
2020-05-19 15:04:47.666 -0400,1589915086.665514,41.37490490300733,-71.83081401002813,4.142659,0.4969481,21.38382467660651,16.49153236952742,25.21653363099287,-9999,6976.631888875,0.6196136474609375,0.3375396728515625,-0.28863525390625,1,0.92
2020-05-19 15:04:47.716 -0400,1589915086.665514,41.37490490300733,-71.83081401002813,4.142659,0.4969481,21.38382467660651,16.49153236952742,25.21653363099287,-9999,6976.681875875001,0.7098236083984375,0.67816162109375,-0.277374267578125,1,0.92
2020-05-19 15:04:47.766 -0400,1589915086.665514,41.37490490300733,-71.83081401002813,4.142659,0.4969481,21.38382467660651,16.49153236952742,25.21653363099287,-9999,6976.731862875001,0.9263916015625,0.7398681640625,-0.3695220947265625,1,0.92
2020-05-19 15:04:47.816 -0400,1589915086.665514,41.37490490300733,-71.83081401002813,4.142659,0.4969481,21.38382467660651,16.49153236952742,25.21653363099287,-9999,6976.781849875,1.073837280273438,0.7451171875,-0.4554290771484375,1,0.92
2020-05-19 15:04:47.866 -0400,1589915086.665514,41.37490490300733,-71.83081401002813,4.142659,0.4969481,21.38382467660651,16.49153236952742,25.21653363099287,-9999,6976.831836875001,1.1497802734375,0.659454345703125,-0.4151153564453125,1,0.92
2020-05-19 15:04:47.916 -0400,1589915086.665514,41.37490490300733,-71.83081401002813,4.142659,0.4969481,21.38382467660651,16.49153236952742,25.21653363099287,-9999,6976.881823875,1.241607666015625,0.543975830078125,-0.451812744140625,1,0.92
2020-05-19 15:04:47.966 -0400,1589915086.665514,41.37490490300733,-71.83081401002813,4.142659,0.4969481,21.38382467660651,16.49153236952742,25.21653363099287,-9999,6976.931810875,0.9445648193359375,0.5994720458984375,-0.438568115234375,1,0.92
2020-05-19 15:04:48.023 -0400,1589915086.665514,41.37490490300733,-71.83081401002813,4.142659,0.4969481,21.38382467660651,16.49153236952742,25.21653363099287,-9999,6976.981797875001,1.114227294921875,0.6470489501953125,-0.3347625732421875,1,0.92
2020-05-19 15:04:48.066 -0400,1589915087.664916,41.37489453040787,-71.83083640230764,4.326254,0.4969481,47.48060171778972,15.74618138362731,19.82968877502159,-9999,6977.031784875,1.132553100585938,0.470733642578125,-0.2715301513671875,1,0.92
2020-05-19 15:04:48.116 -0400,1589915087.664916,41.37489453040787,-71.83083640230764,4.326254,0.4969481,47.48060171778972,15.74618138362731,19.82968877502159,-9999,6977.081771875,0.8013153076171875,0.313690185546875,-0.2519073486328125,1,0.92
2020-05-19 15:04:48.166 -0400,1589915087.664916,41.37489453040787,-71.83083640230764,4.326254,0.4969481,47.48060171778972,15.74618138362731,19.82968877502159,-9999,6977.131758875001,0.6295318603515625,0.3144989013671875,-0.1983184814453125,1,0.92
2020-05-19 15:04:48.216 -0400,1589915087.664916,41.37489453040787,-71.83083640230764,4.326254,0.4969481,47.48060171778972,15.74618138362731,19.82968877502159,-9999,6977.181745875,0.7051849365234375,0.3485107421875,-0.1367340087890625,1,0.92
2020-05-19 15:04:48.266 -0400,1589915087.664916,41.37489453040787,-71.83083640230764,4.326254,0.4969481,47.48060171778972,15.74618138362731,19.82968877502159,-9999,6977.231732875,0.86895751953125,0.298858642578125,-0.074737548828125,1,0.92
2020-05-19 15:04:48.316 -0400,1589915087.664916,41.37489453040787,-71.83083640230764,4.326254,0.4969481,47.48060171778972,15.74618138362731,19.82968877502159,-9999,6977.281719875001,0.998687744140625,0.28936767578125,-0.077117919921875,1,0.92
2020-05-19 15:04:48.366 -0400,1589915087.664916,41.37489453040787,-71.83083640230764,4.326254,0.4969481,47.48060171778972,15.74618138362731,19.82968877502159,-9999,6977.331706875,0.857940673828125,0.3170928955078125,-0.0539093017578125,1,0.92
2020-05-19 15:04:48.416 -0400,1589915087.664916,41.37489453040787,-71.83083640230764,4.326254,0.4969481,47.48060171778972,15.74618138362731,19.82968877502159,-9999,6977.381693875001,0.9133148193359375,0.4146728515625,-0.2326202392578125,1,0.92
2020-05-19 15:04:48.466 -0400,1589915087.664916,41.37489453040787,-71.83083640230764,4.326254,0.4969481,47.48060171778972,15.74618138362731,19.82968877502159,-9999,6977.43168175,0.888427734375,0.4562225341796875,-0.3055419921875,1,0.92
2020-05-19 15:04:48.516 -0400,1589915087.664916,41.37489453040787,-71.83083640230764,4.326254,0.4969481,47.48060171778972,15.74618138362731,19.82968877502159,-9999,6977.481668750001,1.138626098632812,0.4400482177734375,-0.4662322998046875,1,0.92
2020-05-19 15:04:48.566 -0400,1589915087.664916,41.37489453040787,-71.83083640230764,4.326254,0.4969481,47.48060171778972,15.74618138362731,19.82968877502159,-9999,6977.53165575,1.194000244140625,0.368408203125,-0.4302520751953125,1,0.92
2020-05-19 15:04:48.616 -0400,1589915087.664916,41.37489453040787,-71.83083640230764,4.326254,0.4969481,47.48060171778972,15.74618138362731,19.82968877502159,-9999,6977.58164275,0.6873321533203125,0.2074127197265625,-0.3276519775390625,1,0.92
2020-05-19 15:04:48.666 -0400,1589915087.664916,41.37489453040787,-71.83083640230764,4.326254,0.4969481,47.48060171778972,15.74618138362731,19.82968877502159,-9999,6977.631629750001,0.573577880859375,0.32952880859375,-0.3037567138671875,1,0.92
2020-05-19 15:04:48.716 -0400,1589915087.664916,41.37489453040787,-71.83083640230764,4.326254,0.4969481,47.48060171778972,15.74618138362731,19.82968877502159,-9999,6977.68161675,0.6047515869140625,0.5900726318359375,-0.2680206298828125,1,0.92
2020-05-19 15:04:48.766 -0400,1589915087.664916,41.37489453040787,-71.83083640230764,4.326254,0.4969481,47.48060171778972,15.74618138362731,19.82968877502159,-9999,6977.73160375,0.7408905029296875,0.6695709228515625,-0.2837982177734375,1,0.92
2020-05-19 15:04:48.816 -0400,1589915087.664916,41.37489453040787,-71.83083640230764,4.326254,0.4969481,47.48060171778972,15.74618138362731,19.82968877502159,-9999,6977.781590750001,1.0233154296875,0.7183074951171875,-0.361572265625,1,0.92
2020-05-19 15:04:48.866 -0400,1589915087.664916,41.37489453040787,-71.83083640230764,4.326254,0.4969481,47.48060171778972,15.74618138362731,19.82968877502159,-9999,6977.83157775,1.196701049804688,0.812469482421875,-0.414581298828125,1,0.92
2020-05-19 15:04:48.916 -0400,1589915087.664916,41.37489453040787,-71.83083640230764,4.326254,0.4969481,47.48060171778972,15.74618138362731,19.82968877502159,-9999,6977.881564750001,1.474899291992188,0.7646331787109375,-0.3782501220703125,1,0.92
2020-05-19 15:04:48.966 -0400,1589915087.664916,41.37489453040787,-71.83083640230764,4.326254,0.4969481,47.48060171778972,15.74618138362731,19.82968877502159,-9999,6977.931551750001,1.080413818359375,0.620941162109375,-0.389190673828125,1,0.92
2020-05-19 15:04:49.016 -0400,1589915088.664922,41.37488022681963,-71.83081712346784,4.119689,0.6377696,116.039189673195,15.68220838280776,16.11010419763283,-9999,6977.981537750001,1.176025390625,0.6396942138671875,-0.299468994140625,1,0.92
2020-05-19 15:04:49.066 -0400,1589915088.664922,41.37488022681963,-71.83081712346784,4.119689,0.6377696,116.039189673195,15.68220838280776,16.11010419763283,-9999,6978.03152475,1.295700073242188,0.5908660888671875,-0.30548095703125,1,0.92
2020-05-19 15:04:49.116 -0400,1589915088.664922,41.37488022681963,-71.83081712346784,4.119689,0.6377696,116.039189673195,15.68220838280776,16.11010419763283,-9999,6978.081511750001,0.86932373046875,-0.047393798828125,-0.207427978515625,1,0.92
2020-05-19 15:04:49.165 -0400,1589915088.664922,41.37488022681963,-71.83081712346784,4.119689,0.6377696,116.039189673195,15.68220838280776,16.11010419763283,-9999,6978.13149875,0.81134033203125,0.483154296875,-0.179595947265625,1,0.92
2020-05-19 15:04:49.216 -0400,1589915088.664922,41.37488022681963,-71.83081712346784,4.119689,0.6377696,116.039189673195,15.68220838280776,16.11010419763283,-9999,6978.18148575,0.8167877197265625,0.4276275634765625,-0.1569976806640625,1,0.92
2020-05-19 15:04:49.266 -0400,1589915088.664922,41.37488022681963,-71.83081712346784,4.119689,0.6377696,116.039189673195,15.68220838280776,16.11010419763283,-9999,6978.231472750001,0.922149658203125,0.34954833984375,-0.04736328125,1,0.92
2020-05-19 15:04:49.315 -0400,1589915088.664922,41.37488022681963,-71.83081712346784,4.119689,0.6377696,116.039189673195,15.68220838280776,16.11010419763283,-9999,6978.28145975,0.9960479736328125,0.2768402099609375,-0.0513153076171875,1,0.92
2020-05-19 15:04:49.366 -0400,1589915088.664922,41.37488022681963,-71.83081712346784,4.119689,0.6377696,116.039189673195,15.68220838280776,16.11010419763283,-9999,6978.33144675,0.8380126953125,0.207611083984375,-0.066986083984375,1,0.92
2020-05-19 15:04:49.415 -0400,1589915088.664922,41.37488022681963,-71.83081712346784,4.119689,0.6377696,116.039189673195,15.68220838280776,16.11010419763283,-9999,6978.381433750001,0.7333831787109375,0.3005828857421875,-0.077117919921875,1,0.92
2020-05-19 15:04:49.465 -0400,1589915088.664922,41.37488022681963,-71.83081712346784,4.119689,0.6377696,116.039189673195,15.68220838280776,16.11010419763283,-9999,6978.4314205,0.656707763671875,0.38116455078125,-0.1737213134765625,1,0.92
2020-05-19 15:04:49.515 -0400,1589915088.664922,41.37488022681963,-71.83081712346784,4.119689,0.6377696,116.039189673195,15.68220838280776,16.11010419763283,-9999,6978.4814075,0.826629638671875,0.424041748046875,-0.3350677490234375,1,0.92
2020-05-19 15:04:49.565 -0400,1589915088.664922,41.37488022681963,-71.83081712346784,4.119689,0.6377696,116.039189673195,15.68220838280776,16.11010419763283,-9999,6978.531394500001,1.237564086914062,0.4010162353515625,-0.5248565673828125,1,0.92
2020-05-19 15:04:49.615 -0400,1589915088.664922,41.37488022681963,-71.83081712346784,4.119689,0.6377696,116.039189673195,15.68220838280776,16.11010419763283,-9999,6978.5813815,1.017166137695312,0.3592376708984375,-0.5161285400390625,1,0.92
2020-05-19 15:04:49.665 -0400,1589915088.664922,41.37488022681963,-71.83081712346784,4.119689,0.6377696,116.039189673195,15.68220838280776,16.11010419763283,-9999,6978.6313685,0.70404052734375,0.543121337890625,-0.5179595947265625,1,0.92
2020-05-19 15:04:49.715 -0400,1589915088.664922,41.37488022681963,-71.83081712346784,4.119689,0.6377696,116.039189673195,15.68220838280776,16.11010419763283,-9999,6978.681355500001,0.625457763671875,0.5603790283203125,-0.448699951171875,1,0.92
2020-05-19 15:04:49.765 -0400,1589915088.664922,41.37488022681963,-71.83081712346784,4.119689,0.6377696,116.039189673195,15.68220838280776,16.11010419763283,-9999,6978.7313425,0.7007293701171875,0.5172882080078125,-0.4951324462890625,1,0.92
2020-05-19 15:04:49.815 -0400,1589915088.664922,41.37488022681963,-71.83081712346784,4.119689,0.6377696,116.039189673195,15.68220838280776,16.11010419763283,-9999,6978.781329500001,0.870819091796875,0.5995330810546875,-0.43255615234375,1,0.92
2020-05-19 15:04:49.865 -0400,1589915088.664922,41.37488022681963,-71.83081712346784,4.119689,0.6377696,116.039189673195,15.68220838280776,16.11010419763283,-9999,6978.831316500001,1.039047241210938,0.6676025390625,-0.41204833984375,1,0.92
2020-05-19 15:04:49.915 -0400,1589915089.665267,41.37490337746496,-71.83080785175508,4.117302,0.6405922,124.4432306034414,15.91284982602044,15.11045360026096,-9999,6978.8813035,1.042556762695312,0.5984039306640625,-0.2689056396484375,1,0.92
2020-05-19 15:04:49.965 -0400,1589915089.665267,41.37490337746496,-71.83080785175508,4.117302,0.6405922,124.4432306034414,15.91284982602044,15.11045360026096,-9999,6978.9312895,1.14923095703125,0.7333221435546875,-0.3525543212890625,1,0.92
2020-05-19 15:04:50.015 -0400,1589915089.665267,41.37490337746496,-71.83080785175508,4.117302,0.6405922,124.4432306034414,15.91284982602044,15.11045360026096,-9999,6978.981276500001,1.15472412109375,0.663818359375,-0.31549072265625,1,0.92
2020-05-19 15:04:50.065 -0400,1589915089.665267,41.37490337746496,-71.83080785175508,4.117302,0.6405922,124.4432306034414,15.91284982602044,15.11045360026096,-9999,6979.0312635,1.2274169921875,0.670013427734375,-0.2161865234375,1,0.92
2020-05-19 15:04:50.115 -0400,1589915089.665267,41.37490337746496,-71.83080785175508,4.117302,0.6405922,124.4432306034414,15.91284982602044,15.11045360026096,-9999,6979.0812505,1.101516723632812,0.45941162109375,-0.2291412353515625,1,0.92
2020-05-19 15:04:50.165 -0400,1589915089.665267,41.37490337746496,-71.83080785175508,4.117302,0.6405922,124.4432306034414,15.91284982602044,15.11045360026096,-9999,6979.131237500001,0.8217620849609375,0.348846435546875,-0.2397003173828125,1,0.92
2020-05-19 15:04:50.215 -0400,1589915089.665267,41.37490337746496,-71.83080785175508,4.117302,0.6405922,124.4432306034414,15.91284982602044,15.11045360026096,-9999,6979.1812245,0.7140960693359375,0.44683837890625,-0.18218994140625,1,0.92
2020-05-19 15:04:50.265 -0400,1589915089.665267,41.37490337746496,-71.83080785175508,4.117302,0.6405922,124.4432306034414,15.91284982602044,15.11045360026096,-9999,6979.2312115,0.7555084228515625,0.343353271484375,-0.1018829345703125,1,0.92
2020-05-19 15:04:50.315 -0400,1589915089.665267,41.37490337746496,-71.83080785175508,4.117302,0.6405922,124.4432306034414,15.91284982602044,15.11045360026096,-9999,6979.281198500001,0.778656005859375,0.2603607177734375,-0.029296875,1,0.92
2020-05-19 15:04:50.365 -0400,1589915089.665267,41.37490337746496,-71.83080785175508,4.117302,0.6405922,124.4432306034414,15.91284982602044,15.11045360026096,-9999,6979.3311855,0.8171234130859375,0.29351806640625,-0.040802001953125,1,0.92
2020-05-19 15:04:50.415 -0400,1589915089.665267,41.37490337746496,-71.83080785175508,4.117302,0.6405922,124.4432306034414,15.91284982602044,15.11045360026096,-9999,6979.381172500001,0.78076171875,0.3409423828125,-0.052520751953125,1,0.92
2020-05-19 15:04:50.465 -0400,1589915089.665267,41.37490337746496,-71.83080785175508,4.117302,0.6405922,124.4432306034414,15.91284982602044,15.11045360026096,-9999,6979.431159250001,1.106109619140625,0.4443511962890625,-0.1798553466796875,1,0.92
2020-05-19 15:04:50.515 -0400,1589915089.665267,41.37490337746496,-71.83080785175508,4.117302,0.6405922,124.4432306034414,15.91284982602044,15.11045360026096,-9999,6979.48114625,0.91375732421875,0.351654052734375,-0.260406494140625,1,0.92
2020-05-19 15:04:50.565 -0400,1589915089.665267,41.37490337746496,-71.83080785175508,4.117302,0.6405922,124.4432306034414,15.91284982602044,15.11045360026096,-9999,6979.53113225,1.180130004882812,0.447723388671875,-0.448486328125,1,0.92
2020-05-19 15:04:50.615 -0400,1589915089.665267,41.37490337746496,-71.83080785175508,4.117302,0.6405922,124.4432306034414,15.91284982602044,15.11045360026096,-9999,6979.58111925,1.164321899414062,0.444244384765625,-0.352325439453125,1,0.92
2020-05-19 15:04:50.665 -0400,1589915089.665267,41.37490337746496,-71.83080785175508,4.117302,0.6405922,124.4432306034414,15.91284982602044,15.11045360026096,-9999,6979.631106250001,0.8291015625,0.304168701171875,-0.37213134765625,1,0.92
2020-05-19 15:04:50.715 -0400,1589915089.665267,41.37490337746496,-71.83080785175508,4.117302,0.6405922,124.4432306034414,15.91284982602044,15.11045360026096,-9999,6979.68109325,0.707550048828125,0.561126708984375,-0.4487152099609375,1,0.92
2020-05-19 15:04:50.765 -0400,1589915089.665267,41.37490337746496,-71.83080785175508,4.117302,0.6405922,124.4432306034414,15.91284982602044,15.11045360026096,-9999,6979.731080250001,0.6630401611328125,0.6947174072265625,-0.4560546875,1,0.92
2020-05-19 15:04:50.815 -0400,1589915089.665267,41.37490337746496,-71.83080785175508,4.117302,0.6405922,124.4432306034414,15.91284982602044,15.11045360026096,-9999,6979.78106725,0.643707275390625,0.52545166015625,-0.4581451416015625,1,0.92
2020-05-19 15:04:50.865 -0400,1589915089.665267,41.37490337746496,-71.83080785175508,4.117302,0.6405922,124.4432306034414,15.91284982602044,15.11045360026096,-9999,6979.83105425,0.848724365234375,0.5028839111328125,-0.4468994140625,1,0.92
2020-05-19 15:04:50.915 -0400,1589915090.665273,41.37489940776064,-71.8307909012304,4.263538,0.4707204,134.03758769424,15.23958660538486,14.04412048931013,-9999,6979.881041250001,1.134597778320312,0.49163818359375,-0.2846832275390625,1,0.92
2020-05-19 15:04:50.965 -0400,1589915090.665273,41.37489940776064,-71.8307909012304,4.263538,0.4707204,134.03758769424,15.23958660538486,14.04412048931013,-9999,6979.93102825,1.287338256835938,0.50286865234375,-0.405059814453125,1,0.92
2020-05-19 15:04:51.015 -0400,1589915090.665273,41.37489940776064,-71.8307909012304,4.263538,0.4707204,134.03758769424,15.23958660538486,14.04412048931013,-9999,6979.98101525,1.101715087890625,0.64239501953125,-0.5190582275390625,1,0.92
2020-05-19 15:04:51.065 -0400,1589915090.665273,41.37489940776064,-71.8307909012304,4.263538,0.4707204,134.03758769424,15.23958660538486,14.04412048931013,-9999,6980.03100125,1.175399780273438,0.5182037353515625,-0.379364013671875,1,0.92
2020-05-19 15:04:51.115 -0400,1589915090.665273,41.37489940776064,-71.8307909012304,4.263538,0.4707204,134.03758769424,15.23958660538486,14.04412048931013,-9999,6980.080988250001,1.381790161132812,0.4063568115234375,-0.272552490234375,1,0.92
2020-05-19 15:04:51.165 -0400,1589915090.665273,41.37489940776064,-71.8307909012304,4.263538,0.4707204,134.03758769424,15.23958660538486,14.04412048931013,-9999,6980.13097525,1.04962158203125,0.256378173828125,-0.2208404541015625,1,0.92
2020-05-19 15:04:51.215 -0400,1589915090.665273,41.37489940776064,-71.8307909012304,4.263538,0.4707204,134.03758769424,15.23958660538486,14.04412048931013,-9999,6980.18096225,0.8126220703125,0.303070068359375,-0.2386474609375,1,0.92
2020-05-19 15:04:51.265 -0400,1589915090.665273,41.37489940776064,-71.8307909012304,4.263538,0.4707204,134.03758769424,15.23958660538486,14.04412048931013,-9999,6980.230949250001,0.6485137939453125,0.308502197265625,-0.212677001953125,1,0.92
2020-05-19 15:04:51.315 -0400,1589915090.665273,41.37489940776064,-71.8307909012304,4.263538,0.4707204,134.03758769424,15.23958660538486,14.04412048931013,-9999,6980.28093625,0.536956787109375,0.2565460205078125,-0.1768798828125,1,0.92
2020-05-19 15:04:51.365 -0400,1589915090.665273,41.37489940776064,-71.8307909012304,4.263538,0.4707204,134.03758769424,15.23958660538486,14.04412048931013,-9999,6980.330923250001,0.5536956787109375,0.19775390625,-0.118377685546875,1,0.92
2020-05-19 15:04:51.415 -0400,1589915090.665273,41.37489940776064,-71.8307909012304,4.263538,0.4707204,134.03758769424,15.23958660538486,14.04412048931013,-9999,6980.380910250001,0.69775390625,0.214019775390625,-0.081878662109375,1,0.92
2020-05-19 15:04:51.465 -0400,1589915090.665273,41.37489940776064,-71.8307909012304,4.263538,0.4707204,134.03758769424,15.23958660538486,14.04412048931013,-9999,6980.430897,0.75390625,0.33917236328125,-0.129730224609375,1,0.92
2020-05-19 15:04:51.515 -0400,1589915090.665273,41.37489940776064,-71.8307909012304,4.263538,0.4707204,134.03758769424,15.23958660538486,14.04412048931013,-9999,6980.480883,1.0496826171875,0.39385986328125,-0.2135772705078125,1,0.92
2020-05-19 15:04:51.565 -0400,1589915090.665273,41.37489940776064,-71.8307909012304,4.263538,0.4707204,134.03758769424,15.23958660538486,14.04412048931013,-9999,6980.530870000001,1.424346923828125,0.5071563720703125,-0.32415771484375,1,0.92
2020-05-19 15:04:51.615 -0400,1589915090.665273,41.37489940776064,-71.8307909012304,4.263538,0.4707204,134.03758769424,15.23958660538486,14.04412048931013,-9999,6980.580857000001,1.486892700195312,0.5107574462890625,-0.4561004638671875,1,0.92
2020-05-19 15:04:51.665 -0400,1589915090.665273,41.37489940776064,-71.8307909012304,4.263538,0.4707204,134.03758769424,15.23958660538486,14.04412048931013,-9999,6980.630844,1.2391357421875,0.3586273193359375,-0.26446533203125,1,0.92
2020-05-19 15:04:51.715 -0400,1589915090.665273,41.37489940776064,-71.8307909012304,4.263538,0.4707204,134.03758769424,15.23958660538486,14.04412048931013,-9999,6980.680831000001,0.8270416259765625,0.4161376953125,-0.385528564453125,1,0.92
2020-05-19 15:04:51.765 -0400,1589915090.665273,41.37489940776064,-71.8307909012304,4.263538,0.4707204,134.03758769424,15.23958660538486,14.04412048931013,-9999,6980.730818,0.654327392578125,0.5963897705078125,-0.189788818359375,1,0.92
2020-05-19 15:04:51.815 -0400,1589915090.665273,41.37489940776064,-71.8307909012304,4.263538,0.4707204,134.03758769424,15.23958660538486,14.04412048931013,-9999,6980.780805,0.6068115234375,0.611572265625,-0.0931396484375,1,0.92
2020-05-19 15:04:51.865 -0400,1589915090.665273,41.37489940776064,-71.8307909012304,4.263538,0.4707204,134.03758769424,15.23958660538486,14.04412048931013,-9999,6980.830792000001,0.6742401123046875,0.5477447509765625,-0.0519256591796875,1,0.92
2020-05-19 15:04:51.915 -0400,1589915090.665273,41.37489940776064,-71.8307909012304,4.263538,0.4707204,134.03758769424,15.23958660538486,14.04412048931013,-9999,6980.880778000001,0.890289306640625,0.572601318359375,-0.09661865234375,1,0.92
2020-05-19 15:04:51.965 -0400,1589915091.664905,41.37489945906398,-71.83076430412298,4.242118,0.5546517,130.8649439851415,15.0863686200464,12.48770007638551,-9999,6980.930765,1.213577270507812,0.7929840087890625,-0.217926025390625,1,0.92
2020-05-19 15:04:52.015 -0400,1589915091.664905,41.37489945906398,-71.83076430412298,4.242118,0.5546517,130.8649439851415,15.0863686200464,12.48770007638551,-9999,6980.980752,1.403915405273438,0.963470458984375,-0.345733642578125,1,0.92
2020-05-19 15:04:52.065 -0400,1589915091.664905,41.37489945906398,-71.83076430412298,4.242118,0.5546517,130.8649439851415,15.0863686200464,12.48770007638551,-9999,6981.030739000001,0.816314697265625,0.4576263427734375,-0.383056640625,1,0.92
2020-05-19 15:04:52.115 -0400,1589915091.664905,41.37489945906398,-71.83076430412298,4.242118,0.5546517,130.8649439851415,15.0863686200464,12.48770007638551,-9999,6981.080726,1.100830078125,0.5438079833984375,-0.373504638671875,1,0.92
2020-05-19 15:04:52.165 -0400,1589915091.664905,41.37489945906398,-71.83076430412298,4.242118,0.5546517,130.8649439851415,15.0863686200464,12.48770007638551,-9999,6981.130713,1.303695678710938,0.515838623046875,-0.2481536865234375,1,0.92
2020-05-19 15:04:52.215 -0400,1589915091.664905,41.37489945906398,-71.83076430412298,4.242118,0.5546517,130.8649439851415,15.0863686200464,12.48770007638551,-9999,6981.180700000001,1.045791625976562,0.3871917724609375,-0.3452911376953125,1,0.92
2020-05-19 15:04:52.265 -0400,1589915091.664905,41.37489945906398,-71.83076430412298,4.242118,0.5546517,130.8649439851415,15.0863686200464,12.48770007638551,-9999,6981.230686000001,0.8184967041015625,0.3012542724609375,-0.37030029296875,1,0.92
2020-05-19 15:04:52.315 -0400,1589915091.664905,41.37489945906398,-71.83076430412298,4.242118,0.5546517,130.8649439851415,15.0863686200464,12.48770007638551,-9999,6981.280673,0.67724609375,0.309600830078125,-0.2868499755859375,1,0.92
2020-05-19 15:04:52.365 -0400,1589915091.664905,41.37489945906398,-71.83076430412298,4.242118,0.5546517,130.8649439851415,15.0863686200464,12.48770007638551,-9999,6981.330660000001,0.664276123046875,0.2444305419921875,-0.2342987060546875,1,0.92
2020-05-19 15:04:52.415 -0400,1589915091.664905,41.37489945906398,-71.83076430412298,4.242118,0.5546517,130.8649439851415,15.0863686200464,12.48770007638551,-9999,6981.380647000001,0.6678619384765625,0.194854736328125,-0.166229248046875,1,0.92
2020-05-19 15:04:52.465 -0400,1589915091.664905,41.37489945906398,-71.83076430412298,4.242118,0.5546517,130.8649439851415,15.0863686200464,12.48770007638551,-9999,6981.430634291667,0.7477264404296875,0.2411651611328125,-0.1556396484375,1,0.92
2020-05-19 15:04:52.515 -0400,1589915091.664905,41.37489945906398,-71.83076430412298,4.242118,0.5546517,130.8649439851415,15.0863686200464,12.48770007638551,-9999,6981.480621291667,0.8078765869140625,0.35052490234375,-0.1468353271484375,1,0.92
2020-05-19 15:04:52.565 -0400,1589915091.664905,41.37489945906398,-71.83076430412298,4.242118,0.5546517,130.8649439851415,15.0863686200464,12.48770007638551,-9999,6981.530608291667,1.108291625976562,0.4640960693359375,-0.1566619873046875,1,0.92
2020-05-19 15:04:52.615 -0400,1589915091.664905,41.37489945906398,-71.83076430412298,4.242118,0.5546517,130.8649439851415,15.0863686200464,12.48770007638551,-9999,6981.580594291667,1.302749633789062,0.538116455078125,-0.383514404296875,1,0.92
2020-05-19 15:04:52.665 -0400,1589915091.664905,41.37489945906398,-71.83076430412298,4.242118,0.5546517,130.8649439851415,15.0863686200464,12.48770007638551,-9999,6981.630581291667,1.50640869140625,0.4376220703125,-0.347412109375,1,0.92
2020-05-19 15:04:52.715 -0400,1589915091.664905,41.37489945906398,-71.83076430412298,4.242118,0.5546517,130.8649439851415,15.0863686200464,12.48770007638551,-9999,6981.680568291667,0.8628692626953125,0.2921295166015625,-0.2146453857421875,1,0.92
2020-05-19 15:04:52.765 -0400,1589915091.664905,41.37489945906398,-71.83076430412298,4.242118,0.5546517,130.8649439851415,15.0863686200464,12.48770007638551,-9999,6981.730555291667,0.56292724609375,0.356597900390625,-0.2837677001953125,1,0.92
2020-05-19 15:04:52.815 -0400,1589915091.664905,41.37489945906398,-71.83076430412298,4.242118,0.5546517,130.8649439851415,15.0863686200464,12.48770007638551,-9999,6981.780542291667,0.4441070556640625,0.524078369140625,-0.201385498046875,1,0.92
2020-05-19 15:04:52.865 -0400,1589915091.664905,41.37489945906398,-71.83076430412298,4.242118,0.5546517,130.8649439851415,15.0863686200464,12.48770007638551,-9999,6981.830529291668,0.469696044921875,0.5814361572265625,-0.2297515869140625,1,0.92
2020-05-19 15:04:52.915 -0400,1589915091.664905,41.37489945906398,-71.83076430412298,4.242118,0.5546517,130.8649439851415,15.0863686200464,12.48770007638551,-9999,6981.880515291668,0.7597503662109375,0.5660247802734375,-0.295745849609375,1,0.92
2020-05-19 15:04:52.973 -0400,1589915091.664905,41.37489945906398,-71.83076430412298,4.242118,0.5546517,130.8649439851415,15.0863686200464,12.48770007638551,-9999,6981.930502291667,1.056655883789062,0.6168212890625,-0.3422088623046875,1,0.92
2020-05-19 15:04:53.015 -0400,1589915092.664912,41.37489827906406,-71.83074790546408,4.153831,0.5546517,131.1953008312284,15.37437455317563,12.60556914601064,-9999,6981.980489291667,1.199371337890625,0.6832427978515625,-0.3840179443359375,1,0.92
2020-05-19 15:04:53.064 -0400,1589915092.664912,41.37489827906406,-71.83074790546408,4.153831,0.5546517,131.1953008312284,15.37437455317563,12.60556914601064,-9999,6982.030476291667,1.296600341796875,0.578216552734375,-0.388214111328125,1,0.92
2020-05-19 15:04:53.115 -0400,1589915092.664912,41.37489827906406,-71.83074790546408,4.153831,0.5546517,131.1953008312284,15.37437455317563,12.60556914601064,-9999,6982.080463291667,1.1922607421875,0.646759033203125,-0.4375152587890625,1,0.92
2020-05-19 15:04:53.164 -0400,1589915092.664912,41.37489827906406,-71.83074790546408,4.153831,0.5546517,131.1953008312284,15.37437455317563,12.60556914601064,-9999,6982.130450291667,1.455734252929688,0.6193695068359375,-0.2709197998046875,1,0.92
2020-05-19 15:04:53.214 -0400,1589915092.664912,41.37489827906406,-71.83074790546408,4.153831,0.5546517,131.1953008312284,15.37437455317563,12.60556914601064,-9999,6982.180436291667,1.304473876953125,0.3335723876953125,-0.211151123046875,1,0.92
2020-05-19 15:04:53.264 -0400,1589915092.664912,41.37489827906406,-71.83074790546408,4.153831,0.5546517,131.1953008312284,15.37437455317563,12.60556914601064,-9999,6982.230423291667,0.801788330078125,0.29150390625,-0.2419586181640625,1,0.92
2020-05-19 15:04:53.314 -0400,1589915092.664912,41.37489827906406,-71.83074790546408,4.153831,0.5546517,131.1953008312284,15.37437455317563,12.60556914601064,-9999,6982.280410291667,0.646087646484375,0.3879547119140625,-0.1763458251953125,1,0.92
2020-05-19 15:04:53.365 -0400,1589915092.664912,41.37489827906406,-71.83074790546408,4.153831,0.5546517,131.1953008312284,15.37437455317563,12.60556914601064,-9999,6982.330397291667,0.724456787109375,0.370635986328125,-0.1019287109375,1,0.92
2020-05-19 15:04:53.414 -0400,1589915092.664912,41.37489827906406,-71.83074790546408,4.153831,0.5546517,131.1953008312284,15.37437455317563,12.60556914601064,-9999,6982.380384291667,0.783203125,0.2593536376953125,-0.0516357421875,1,0.92
2020-05-19 15:04:53.464 -0400,1589915092.664912,41.37489827906406,-71.83074790546408,4.153831,0.5546517,131.1953008312284,15.37437455317563,12.60556914601064,-9999,6982.430370791667,0.861114501953125,0.220062255859375,-0.0204010009765625,1,0.92
2020-05-19 15:04:53.514 -0400,1589915092.664912,41.37489827906406,-71.83074790546408,4.153831,0.5546517,131.1953008312284,15.37437455317563,12.60556914601064,-9999,6982.480356791667,0.7860107421875,0.253936767578125,0.023468017578125,1,0.92
2020-05-19 15:04:53.564 -0400,1589915092.664912,41.37489827906406,-71.83074790546408,4.153831,0.5546517,131.1953008312284,15.37437455317563,12.60556914601064,-9999,6982.530343791667,0.9448394775390625,0.367950439453125,-0.004608154296875,1,0.92
2020-05-19 15:04:53.614 -0400,1589915092.664912,41.37489827906406,-71.83074790546408,4.153831,0.5546517,131.1953008312284,15.37437455317563,12.60556914601064,-9999,6982.580330791667,0.7771759033203125,0.507293701171875,-0.1939544677734375,1,0.92
2020-05-19 15:04:53.665 -0400,1589915092.664912,41.37489827906406,-71.83074790546408,4.153831,0.5546517,131.1953008312284,15.37437455317563,12.60556914601064,-9999,6982.630317791667,1.196426391601562,0.64947509765625,-0.483428955078125,1,0.92
2020-05-19 15:04:53.714 -0400,1589915092.664912,41.37489827906406,-71.83074790546408,4.153831,0.5546517,131.1953008312284,15.37437455317563,12.60556914601064,-9999,6982.680304791667,1.347732543945312,0.4947052001953125,-0.3494110107421875,1,0.92
2020-05-19 15:04:53.764 -0400,1589915092.664912,41.37489827906406,-71.83074790546408,4.153831,0.5546517,131.1953008312284,15.37437455317563,12.60556914601064,-9999,6982.730290791667,0.7787628173828125,0.2277069091796875,-0.3866424560546875,1,0.92
2020-05-19 15:04:53.814 -0400,1589915092.664912,41.37489827906406,-71.83074790546408,4.153831,0.5546517,131.1953008312284,15.37437455317563,12.60556914601064,-9999,6982.780277791667,0.59423828125,0.3024139404296875,-0.43988037109375,1,0.92
2020-05-19 15:04:53.864 -0400,1589915092.664912,41.37489827906406,-71.83074790546408,4.153831,0.5546517,131.1953008312284,15.37437455317563,12.60556914601064,-9999,6982.830264791667,0.5707550048828125,0.4620361328125,-0.413818359375,1,0.92
2020-05-19 15:04:53.914 -0400,1589915092.664912,41.37489827906406,-71.83074790546408,4.153831,0.5546517,131.1953008312284,15.37437455317563,12.60556914601064,-9999,6982.880251791667,0.621246337890625,0.591583251953125,-0.5095062255859375,1,0.92
2020-05-19 15:04:53.964 -0400,1589915092.664912,41.37489827906406,-71.83074790546408,4.153831,0.5546517,131.1953008312284,15.37437455317563,12.60556914601064,-9999,6982.930238791667,0.7925567626953125,0.5891571044921875,-0.5422515869140625,1,0.92
2020-05-19 15:04:54.014 -0400,1589915093.66551,41.37489498784502,-71.83074291355076,4.153831,0.5546517,131.195304130799,15.37437455317559,12.60556914601069,-9999,6982.980224791667,1.07012939453125,0.5890350341796875,-0.5622100830078125,1,0.92
2020-05-19 15:04:54.064 -0400,1589915093.66551,41.37489498784502,-71.83074291355076,4.153831,0.5546517,131.195304130799,15.37437455317559,12.60556914601069,-9999,6983.030211791667,1.264129638671875,0.5974884033203125,-0.4456634521484375,1,0.92
2020-05-19 15:04:54.114 -0400,1589915093.66551,41.37489498784502,-71.83074291355076,4.153831,0.5546517,131.195304130799,15.37437455317559,12.60556914601069,-9999,6983.080198791667,1.275634765625,0.54742431640625,-0.4577789306640625,1,0.92
2020-05-19 15:04:54.164 -0400,1589915093.66551,41.37489498784502,-71.83074291355076,4.153831,0.5546517,131.195304130799,15.37437455317559,12.60556914601069,-9999,6983.130185791667,1.060134887695312,0.507659912109375,-0.3497772216796875,1,0.92
2020-05-19 15:04:54.214 -0400,1589915093.66551,41.37489498784502,-71.83074291355076,4.153831,0.5546517,131.195304130799,15.37437455317559,12.60556914601069,-9999,6983.180172791667,1.320892333984375,0.541351318359375,-0.225341796875,1,0.92
2020-05-19 15:04:54.264 -0400,1589915093.66551,41.37489498784502,-71.83074291355076,4.153831,0.5546517,131.195304130799,15.37437455317559,12.60556914601069,-9999,6983.230158791667,1.082412719726562,0.4515838623046875,-0.220550537109375,1,0.92
2020-05-19 15:04:54.314 -0400,1589915093.66551,41.37489498784502,-71.83074291355076,4.153831,0.5546517,131.195304130799,15.37437455317559,12.60556914601069,-9999,6983.280145791667,0.712158203125,0.387237548828125,-0.2233428955078125,1,0.92
2020-05-19 15:04:54.364 -0400,1589915093.66551,41.37489498784502,-71.83074291355076,4.153831,0.5546517,131.195304130799,15.37437455317559,12.60556914601069,-9999,6983.330132791667,0.654937744140625,0.37841796875,-0.15887451171875,1,0.92
2020-05-19 15:04:54.414 -0400,1589915093.66551,41.37489498784502,-71.83074291355076,4.153831,0.5546517,131.195304130799,15.37437455317559,12.60556914601069,-9999,6983.380119791667,0.7062835693359375,0.323638916015625,-0.1208038330078125,1,0.92
2020-05-19 15:04:54.464 -0400,1589915093.66551,41.37489498784502,-71.83074291355076,4.153831,0.5546517,131.195304130799,15.37437455317559,12.60556914601069,-9999,6983.43010675,0.812896728515625,0.258453369140625,-0.0991058349609375,1,0.92
2020-05-19 15:04:54.514 -0400,1589915093.66551,41.37489498784502,-71.83074291355076,4.153831,0.5546517,131.195304130799,15.37437455317559,12.60556914601069,-9999,6983.48009275,0.9087066650390625,0.246490478515625,-0.059783935546875,1,0.92
2020-05-19 15:04:54.564 -0400,1589915093.66551,41.37489498784502,-71.83074291355076,4.153831,0.5546517,131.195304130799,15.37437455317559,12.60556914601069,-9999,6983.53007975,0.8289947509765625,0.2693023681640625,-0.034332275390625,1,0.92
2020-05-19 15:04:54.614 -0400,1589915093.66551,41.37489498784502,-71.83074291355076,4.153831,0.5546517,131.195304130799,15.37437455317559,12.60556914601069,-9999,6983.580066750001,0.8121795654296875,0.3612213134765625,-0.1639404296875,1,0.92
2020-05-19 15:04:54.664 -0400,1589915093.66551,41.37489498784502,-71.83074291355076,4.153831,0.5546517,131.195304130799,15.37437455317559,12.60556914601069,-9999,6983.63005375,0.87030029296875,0.46490478515625,-0.24273681640625,1,0.92
2020-05-19 15:04:54.714 -0400,1589915093.66551,41.37489498784502,-71.83074291355076,4.153831,0.5546517,131.195304130799,15.37437455317559,12.60556914601069,-9999,6983.68003975,0.927490234375,0.4805450439453125,-0.3880767822265625,1,0.92
2020-05-19 15:04:54.764 -0400,1589915093.66551,41.37489498784502,-71.83074291355076,4.153831,0.5546517,131.195304130799,15.37437455317559,12.60556914601069,-9999,6983.73002675,1.373062133789062,0.5102996826171875,-0.52117919921875,1,0.92
2020-05-19 15:04:54.814 -0400,1589915093.66551,41.37489498784502,-71.83074291355076,4.153831,0.5546517,131.195304130799,15.37437455317559,12.60556914601069,-9999,6983.780013750001,1.07745361328125,0.3514404296875,-0.4189453125,1,0.92
2020-05-19 15:04:54.864 -0400,1589915093.66551,41.37489498784502,-71.83074291355076,4.153831,0.5546517,131.195304130799,15.37437455317559,12.60556914601069,-9999,6983.83000075,0.7072296142578125,0.3434600830078125,-0.4309844970703125,1,0.92
2020-05-19 15:04:54.923 -0400,1589915093.66551,41.37489498784502,-71.83074291355076,4.153831,0.5546517,131.195304130799,15.37437455317559,12.60556914601069,-9999,6983.879987750001,0.642822265625,0.440185546875,-0.3732452392578125,1,0.92
2020-05-19 15:04:54.964 -0400,1589915094.665517,41.37488965627477,-71.83074061063705,4.370007,0.5664147,128.9715438317324,15.31071046197334,12.71776754236755,-9999,6983.92997375,0.6925811767578125,0.5690765380859375,-0.3887786865234375,1,0.92
2020-05-19 15:04:55.014 -0400,1589915094.665517,41.37488965627477,-71.83074061063705,4.370007,0.5664147,128.9715438317324,15.31071046197334,12.71776754236755,-9999,6983.979960750001,0.79754638671875,0.584625244140625,-0.4454803466796875,1,0.92
2020-05-19 15:04:55.064 -0400,1589915094.665517,41.37488965627477,-71.83074061063705,4.370007,0.5664147,128.9715438317324,15.31071046197334,12.71776754236755,-9999,6984.02994775,0.9060821533203125,0.613037109375,-0.5088348388671875,1,0.92
2020-05-19 15:04:55.114 -0400,1589915094.665517,41.37488965627477,-71.83074061063705,4.370007,0.5664147,128.9715438317324,15.31071046197334,12.71776754236755,-9999,6984.079934750001,1.146286010742188,0.67144775390625,-0.4608612060546875,1,0.92
2020-05-19 15:04:55.164 -0400,1589915094.665517,41.37488965627477,-71.83074061063705,4.370007,0.5664147,128.9715438317324,15.31071046197334,12.71776754236755,-9999,6984.129920750001,1.29736328125,0.5260162353515625,-0.362762451171875,1,0.92
