loggingTime(txt),accelerometerTimestamp_sinceReboot(s),accelerometerAccelerationX(G),accelerometerAccelerationY(G),accelerometerAccelerationZ(G),batteryState,batteryLevel
2020-05-16 12:45:10.303 -0400,11247.09222125,0.17437744140625,0.0590057373046875,-0.900054931640625,1,0.95
2020-05-16 12:45:10.372 -0400,11247.16219325,0.155670166015625,0.006072998046875,-0.872406005859375,1,0.95
2020-05-16 12:45:10.442 -0400,11247.23216625,0.1706085205078125,0.1052398681640625,-0.951324462890625,1,0.95
2020-05-16 12:45:10.513 -0400,11247.30213925,0.1574249267578125,0.0492401123046875,-0.912628173828125,1,0.95
2020-05-16 12:45:10.583 -0400,11247.37211225,0.5735321044921875,0.0511474609375,-0.83392333984375,1,0.95
2020-05-16 12:45:10.653 -0400,11247.44208425,0.664642333984375,0.1162872314453125,-0.5169525146484375,1,0.95
2020-05-16 12:45:10.736 -0400,11247.51205725,0.5497894287109375,0.2229766845703125,-0.5654449462890625,1,0.95
2020-05-16 12:45:10.793 -0400,11247.58203025,0.715576171875,0.3099365234375,-0.5837860107421875,1,0.95
2020-05-16 12:45:10.863 -0400,11247.652004375,0.8445892333984375,0.2291412353515625,-0.3536224365234375,1,0.95
2020-05-16 12:45:10.932 -0400,11247.721976375,1.595794677734375,0.6206512451171875,0.0349273681640625,1,0.95
2020-05-16 12:45:11.002 -0400,11247.791949375,1.216018676757812,1.105758666992188,0.2712249755859375,1,0.95
2020-05-16 12:45:11.072 -0400,11247.861922375,1.248733520507812,0.782470703125,-0.2745513916015625,1,0.95
2020-05-16 12:45:11.142 -0400,11247.931894375,0.9873504638671875,0.3548431396484375,-0.0336456298828125,1,0.95
2020-05-16 12:45:11.214 -0400,11248.001867375,0.509490966796875,0.216796875,-0.2002105712890625,1,0.95
2020-05-16 12:45:11.282 -0400,11248.071840375,0.45703125,0.471160888671875,-0.3246612548828125,1,0.95
2020-05-16 12:45:11.349 -0400,11248.136815375,0.411163330078125,0.352813720703125,-0.315216064453125,1,0.95
2020-05-16 12:45:11.412 -0400,11248.201789375,0.48785400390625,0.3392791748046875,-0.3157806396484375,1,0.95
2020-05-16 12:45:11.477 -0400,11248.266764375,1.654586791992188,0.565826416015625,-0.5090789794921875,1,0.95
2020-05-16 12:45:11.542 -0400,11248.331739375,1.6693115234375,0.44970703125,0.13714599609375,1,0.95
2020-05-16 12:45:11.607 -0400,11248.396713375,1.268035888671875,0.2664947509765625,-0.3764495849609375,1,0.95
2020-05-16 12:45:11.672 -0400,11248.461688375,0.9489288330078125,0.524566650390625,-0.12353515625,1,0.95
2020-05-16 12:45:11.737 -0400,11248.526663375,0.7754974365234375,0.376068115234375,-0.0052490234375,1,0.95
2020-05-16 12:45:11.804 -0400,11248.591637375,0.6368865966796875,0.1753082275390625,0.0597991943359375,1,0.95
2020-05-16 12:45:11.867 -0400,11248.656612125,0.90972900390625,0.178741455078125,0.2003326416015625,1,0.95
2020-05-16 12:45:11.932 -0400,11248.721587125,1.29864501953125,0.295867919921875,0.248321533203125,1,0.95
2020-05-16 12:45:11.997 -0400,11248.786561125,0.9777374267578125,0.6601104736328125,-0.3967132568359375,1,0.95
2020-05-16 12:45:12.062 -0400,11248.851536125,0.956024169921875,0.3450927734375,-0.869476318359375,1,0.95
2020-05-16 12:45:12.127 -0400,11248.916511125,0.77197265625,1.061004638671875,-0.7437896728515625,1,0.95
2020-05-16 12:45:12.192 -0400,11248.981485125,0.4857177734375,0.9212799072265625,-0.5065155029296875,1,0.95
2020-05-16 12:45:12.270 -0400,11249.046460125,0.4028167724609375,0.635223388671875,-0.326995849609375,1,0.95
2020-05-16 12:45:12.322 -0400,11249.111435125,0.3872528076171875,0.7382965087890625,-0.1464385986328125,1,0.95
2020-05-16 12:45:12.387 -0400,11249.176409125,1.65350341796875,0.948822021484375,-0.17742919921875,1,0.95
2020-05-16 12:45:12.452 -0400,11249.241384125,1.715606689453125,0.5028228759765625,0.149017333984375,1,0.95
2020-05-16 12:45:12.517 -0400,11249.306359125,1.468643188476562,0.5014190673828125,-0.17919921875,1,0.95
2020-05-16 12:45:12.582 -0400,11249.371333125,0.837127685546875,0.628570556640625,-0.2285614013671875,1,0.95
2020-05-16 12:45:12.647 -0400,11249.436308125,0.739349365234375,0.3075714111328125,-0.1251983642578125,1,0.95
2020-05-16 12:45:12.712 -0400,11249.501283125,0.5832061767578125,0.061492919921875,-0.12908935546875,1,0.95
2020-05-16 12:45:12.776 -0400,11249.566258125,0.4529571533203125,0.17523193359375,-0.128448486328125,1,0.95
2020-05-16 12:45:12.842 -0400,11249.631232125,0.3824615478515625,0.2259368896484375,-0.0526580810546875,1,0.95
2020-05-16 12:45:12.906 -0400,11249.696207375,0.470977783203125,0.368255615234375,-0.094696044921875,1,0.95
2020-05-16 12:45:12.972 -0400,11249.761182375,2.1011962890625,0.719696044921875,-0.0132598876953125,1,0.95
2020-05-16 12:45:13.036 -0400,11249.826156375,1.75994873046875,0.590606689453125,-0.5169830322265625,1,0.95
2020-05-16 12:45:13.102 -0400,11249.891131375,1.200439453125,0.65899658203125,-0.4951629638671875,1,0.95
2020-05-16 12:45:13.166 -0400,11249.956106375,0.8446502685546875,0.8453369140625,-0.3782806396484375,1,0.95
2020-05-16 12:45:13.231 -0400,11250.021080375,0.5003814697265625,0.4989471435546875,-0.3228759765625,1,0.95
2020-05-16 12:45:13.296 -0400,11250.086055375,0.3312530517578125,0.629608154296875,-0.2089385986328125,1,0.95
2020-05-16 12:45:13.361 -0400,11250.151030375,0.440765380859375,0.7457733154296875,-0.207275390625,1,0.95
2020-05-16 12:45:13.426 -0400,11250.216004375,0.7249298095703125,0.612640380859375,-0.2291717529296875,1,0.95
2020-05-16 12:45:13.491 -0400,11250.280979375,2.037643432617188,0.7348785400390625,-0.3071136474609375,1,0.95
2020-05-16 12:45:13.556 -0400,11250.345954375,1.784011840820312,0.349639892578125,-0.24530029296875,1,0.95
2020-05-16 12:45:13.621 -0400,11250.410929375,1.141159057617188,0.5657196044921875,-0.23394775390625,1,0.95
2020-05-16 12:45:13.686 -0400,11250.475903375,0.962646484375,0.41351318359375,-0.155487060546875,1,0.95
2020-05-16 12:45:13.751 -0400,11250.540878375,0.9174957275390625,0.2281951904296875,-0.0451507568359375,1,0.95
2020-05-16 12:45:13.816 -0400,11250.605853375,0.7659759521484375,0.069244384765625,-0.008758544921875,1,0.95
2020-05-16 12:45:13.881 -0400,11250.67082791667,0.6790008544921875,0.1526336669921875,0.0302886962890625,1,0.95
2020-05-16 12:45:13.946 -0400,11250.73580291667,0.83819580078125,0.4943084716796875,-0.061187744140625,1,0.95
2020-05-16 12:45:14.011 -0400,11250.80077791667,1.02978515625,0.6185760498046875,-0.6445159912109375,1,0.95
2020-05-16 12:45:14.076 -0400,11250.86575191667,1.14459228515625,0.511871337890625,-0.3622283935546875,1,0.95
2020-05-16 12:45:14.141 -0400,11250.93072691667,1.021514892578125,0.3878936767578125,-0.3926849365234375,1,0.95
2020-05-16 12:45:14.206 -0400,11250.99570191667,0.811920166015625,0.80224609375,-0.3103179931640625,1,0.95
2020-05-16 12:45:14.271 -0400,11251.06067691667,0.5133514404296875,0.70184326171875,-0.34124755859375,1,0.95
2020-05-16 12:45:14.336 -0400,11251.12565091667,0.75,0.5422515869140625,-0.3142852783203125,1,0.95
2020-05-16 12:45:14.401 -0400,11251.19062591667,1.040206909179688,0.74957275390625,-0.3284454345703125,1,0.95
2020-05-16 12:45:14.466 -0400,11251.25560091667,1.476837158203125,0.518157958984375,-0.227142333984375,1,0.95
2020-05-16 12:45:14.531 -0400,11251.32057491667,1.882705688476562,0.2877655029296875,-0.3382415771484375,1,0.95
2020-05-16 12:45:14.596 -0400,11251.38554991667,1.192398071289062,0.534027099609375,-0.225494384765625,1,0.95
2020-05-16 12:45:14.661 -0400,11251.45052491667,0.8899383544921875,0.4361419677734375,-0.2152862548828125,1,0.95
2020-05-16 12:45:14.726 -0400,11251.51549891667,0.7500762939453125,0.22296142578125,-0.0540313720703125,1,0.95
2020-05-16 12:45:14.791 -0400,11251.58047391667,0.520721435546875,0.114959716796875,-0.04718017578125,1,0.95
2020-05-16 12:45:14.856 -0400,11251.645448375,0.35821533203125,0.0998992919921875,-0.0371856689453125,1,0.95
2020-05-16 12:45:14.921 -0400,11251.710423375,0.4412078857421875,0.1576690673828125,-0.056396484375,1,0.95
2020-05-16 12:45:14.986 -0400,11251.775397375,1.66900634765625,0.9805145263671875,0.023406982421875,1,0.95
2020-05-16 12:45:15.051 -0400,11251.840372375,1.7147216796875,0.7634124755859375,-0.8180084228515625,1,0.95
2020-05-16 12:45:15.115 -0400,11251.905347375,1.106857299804688,0.76837158203125,-0.390960693359375,1,0.95
2020-05-16 12:45:15.181 -0400,11251.970321375,0.8233795166015625,0.3752899169921875,-0.31500244140625,1,0.95
2020-05-16 12:45:15.246 -0400,11252.035296375,0.5177459716796875,0.2011260986328125,-0.4935302734375,1,0.95
2020-05-16 12:45:15.311 -0400,11252.100271375,0.396575927734375,0.491973876953125,-0.6513214111328125,1,0.95
2020-05-16 12:45:15.375 -0400,11252.165245375,0.6914215087890625,0.55096435546875,-0.4405670166015625,1,0.95
2020-05-16 12:45:15.441 -0400,11252.230220375,2.638565063476562,0.51995849609375,-0.2025146484375,1,0.95
2020-05-16 12:45:15.506 -0400,11252.295195375,1.949172973632812,0.312286376953125,-0.4516143798828125,1,0.95
2020-05-16 12:45:15.571 -0400,11252.360169375,1.276016235351562,0.6427459716796875,-0.17681884765625,1,0.95
2020-05-16 12:45:15.635 -0400,11252.425144375,1.045333862304688,0.6585540771484375,-0.00439453125,1,0.95
2020-05-16 12:45:15.701 -0400,11252.490119375,0.8166351318359375,0.2088623046875,0.0778045654296875,1,0.95
2020-05-16 12:45:15.765 -0400,11252.555094375,0.50927734375,0.029449462890625,0.0570526123046875,1,0.95
2020-05-16 12:45:15.830 -0400,11252.620068375,0.5205230712890625,0.15594482421875,0.058349609375,1,0.95
2020-05-16 12:45:15.895 -0400,11252.68504304167,0.3869171142578125,0.1529388427734375,0.1304473876953125,1,0.95
2020-05-16 12:45:15.960 -0400,11252.75001804167,0.507080078125,0.210601806640625,0.1905059814453125,1,0.95
2020-05-16 12:45:16.025 -0400,11252.81499204167,1.413986206054688,1.278671264648438,-0.0923919677734375,1,0.95
2020-05-16 12:45:16.090 -0400,11252.87996704167,1.970718383789062,1.29083251953125,-0.909759521484375,1,0.95
2020-05-16 12:45:16.155 -0400,11252.94494204167,1.008651733398438,-0.253753662109375,-0.181915283203125,1,0.95
2020-05-16 12:45:16.220 -0400,11253.00991604167,0.6898040771484375,0.0722808837890625,-0.558807373046875,1,0.95
2020-05-16 12:45:16.285 -0400,11253.07489104167,0.5703582763671875,0.8170013427734375,-0.506591796875,1,0.95
2020-05-16 12:45:16.350 -0400,11253.13986604167,0.5104217529296875,0.6530609130859375,-0.4631500244140625,1,0.95
2020-05-16 12:45:16.415 -0400,11253.20484004167,0.486663818359375,0.345916748046875,-0.290802001953125,1,0.95
2020-05-16 12:45:16.480 -0400,11253.26981504167,0.7528228759765625,0.4374847412109375,-0.2881622314453125,1,0.95
2020-05-16 12:45:16.545 -0400,11253.33479004167,0.939483642578125,0.392669677734375,-0.10986328125,1,0.95
2020-05-16 12:45:16.610 -0400,11253.39976504167,1.6256103515625,0.48321533203125,-0.1922454833984375,1,0.95
2020-05-16 12:45:16.675 -0400,11253.46473904167,1.299575805664062,0.6113128662109375,-0.15655517578125,1,0.95
2020-05-16 12:45:16.740 -0400,11253.52971404167,1.690292358398438,0.5003204345703125,-0.300048828125,1,0.95
2020-05-16 12:45:16.805 -0400,11253.59468904167,0.8542327880859375,0.3245391845703125,-0.1432037353515625,1,0.95
2020-05-16 12:45:16.870 -0400,11253.659663375,0.4746856689453125,0.2428131103515625,-0.12603759765625,1,0.95
2020-05-16 12:45:16.935 -0400,11253.724638375,0.3484344482421875,0.2433013916015625,-0.1357879638671875,1,0.95
2020-05-16 12:45:17.000 -0400,11253.789613375,0.362640380859375,0.1888885498046875,-0.1212158203125,1,0.95
2020-05-16 12:45:17.065 -0400,11253.854587375,0.5910491943359375,0.2262420654296875,-0.0431060791015625,1,0.95
2020-05-16 12:45:17.130 -0400,11253.919562375,1.399307250976562,0.3565673828125,-0.0188751220703125,1,0.95
2020-05-16 12:45:17.195 -0400,11253.984537375,1.969497680664062,1.1043701171875,-0.4384765625,1,0.95
2020-05-16 12:45:17.260 -0400,11254.049511375,1.28167724609375,0.214630126953125,-0.3471832275390625,1,0.95
2020-05-16 12:45:17.325 -0400,11254.114486375,0.7221832275390625,0.779937744140625,-0.2402496337890625,1,0.95
2020-05-16 12:45:17.390 -0400,11254.179461375,0.329620361328125,0.5411224365234375,-0.2329559326171875,1,0.95
2020-05-16 12:45:17.455 -0400,11254.244436375,0.1920318603515625,0.2140960693359375,-0.20068359375,1,0.95
2020-05-16 12:45:17.520 -0400,11254.309410375,0.28692626953125,0.4453887939453125,-0.270843505859375,1,0.95
2020-05-16 12:45:17.585 -0400,11254.374385375,0.8765106201171875,0.530670166015625,-0.2745819091796875,1,0.95
2020-05-16 12:45:17.650 -0400,11254.439360375,1.167633056640625,0.4967803955078125,-0.2132568359375,1,0.95
2020-05-16 12:45:17.714 -0400,11254.504334375,0.8765106201171875,0.2366180419921875,-0.1994476318359375,1,0.95
2020-05-16 12:45:17.780 -0400,11254.569309375,1.247589111328125,0.3184356689453125,-0.0740509033203125,1,0.95
2020-05-16 12:45:17.845 -0400,11254.634284375,1.603302001953125,0.7426910400390625,-0.2355499267578125,1,0.95
2020-05-16 12:45:17.910 -0400,11254.69925804167,0.8799285888671875,0.1368255615234375,-0.1289520263671875,1,0.95
2020-05-16 12:45:17.974 -0400,11254.76423304167,0.5765228271484375,0.48101806640625,-0.2907257080078125,1,0.95
2020-05-16 12:45:18.040 -0400,11254.82920804167,0.2154998779296875,0.2632293701171875,-0.3148956298828125,1,0.95
2020-05-16 12:45:18.105 -0400,11254.89418204167,0.40911865234375,0.085784912109375,-0.14678955078125,1,0.95
2020-05-16 12:45:18.170 -0400,11254.95915704167,0.724517822265625,0.1804656982421875,-0.344573974609375,1,0.95
2020-05-16 12:45:18.234 -0400,11255.02413204167,3.488067626953125,0.768768310546875,0.0558319091796875,1,0.95
2020-05-16 12:45:18.299 -0400,11255.08910604167,1.0855712890625,0.7242584228515625,-1.200759887695312,1,0.95
2020-05-16 12:45:18.364 -0400,11255.15408104167,0.6909942626953125,0.449493408203125,0.1008148193359375,1,0.95
2020-05-16 12:45:18.429 -0400,11255.21905604167,0.5453643798828125,0.36187744140625,-0.085205078125,1,0.95
2020-05-16 12:45:18.495 -0400,11255.28403004167,0.3414764404296875,0.2263336181640625,-0.1868438720703125,1,0.95
2020-05-16 12:45:18.560 -0400,11255.34900504167,0.4713592529296875,0.4512939453125,-0.283966064453125,1,0.95
2020-05-16 12:45:18.624 -0400,11255.41398004167,0.7225189208984375,0.434661865234375,-0.3179931640625,1,0.95
2020-05-16 12:45:18.689 -0400,11255.47895404167,0.9598236083984375,0.4143829345703125,-0.3457489013671875,1,0.95
2020-05-16 12:45:18.754 -0400,11255.54392904167,1.4681396484375,0.4368133544921875,-0.426971435546875,1,0.95
2020-05-16 12:45:18.819 -0400,11255.60890404167,1.269607543945312,0.281890869140625,-0.2426605224609375,1,0.95
2020-05-16 12:45:18.884 -0400,11255.67387725,1.4368896484375,0.2797698974609375,-0.2140350341796875,1,0.95
2020-05-16 12:45:18.949 -0400,11255.73885225,1.097076416015625,0.3628082275390625,-0.0355987548828125,1,0.95
2020-05-16 12:45:19.014 -0400,11255.80382725,0.547637939453125,0.2510986328125,-0.136260986328125,1,0.95
2020-05-16 12:45:19.079 -0400,11255.86880225,0.4018707275390625,0.38623046875,-0.04205322265625,1,0.95
2020-05-16 12:45:19.144 -0400,11255.93377625,0.3466949462890625,0.229400634765625,0.019317626953125,1,0.95
2020-05-16 12:45:19.209 -0400,11255.99875125,0.6163482666015625,0.30389404296875,-0.004425048828125,1,0.95
2020-05-16 12:45:19.274 -0400,11256.06372525,0.646759033203125,0.3737640380859375,-0.005401611328125,1,0.95
2020-05-16 12:45:19.339 -0400,11256.12870025,0.7064971923828125,0.4702606201171875,-0.2931976318359375,1,0.95
2020-05-16 12:45:19.404 -0400,11256.19367525,0.6064910888671875,0.47369384765625,-0.7896881103515625,1,0.95
2020-05-16 12:45:19.469 -0400,11256.25865025,6.223770141601562,1.316253662109375,-1.162887573242188,1,0.95
2020-05-16 12:45:19.534 -0400,11256.32362425,-0.1216583251953125,0.66436767578125,-0.9685821533203125,1,0.95
2020-05-16 12:45:19.599 -0400,11256.38859925,1.464553833007812,1.305511474609375,-0.4510955810546875,1,0.95
2020-05-16 12:45:19.664 -0400,11256.45357425,0.6643829345703125,0.22222900390625,-0.204345703125,1,0.95
2020-05-16 12:45:19.729 -0400,11256.51854825,0.3290252685546875,0.1775970458984375,-0.33416748046875,1,0.95
2020-05-16 12:45:19.794 -0400,11256.58352325,0.63336181640625,0.45037841796875,-0.3280487060546875,1,0.95
2020-05-16 12:45:19.859 -0400,11256.648498625,0.556854248046875,0.3080596923828125,-0.2669830322265625,1,0.95
2020-05-16 12:45:19.924 -0400,11256.713473625,0.6273956298828125,0.346832275390625,-0.2702484130859375,1,0.95
2020-05-16 12:45:19.989 -0400,11256.778448625,0.9565277099609375,0.31085205078125,-0.069732666015625,1,0.95
2020-05-16 12:45:20.053 -0400,11256.843423625,2.333343505859375,0.903167724609375,-0.0786895751953125,1,0.95
2020-05-16 12:45:20.119 -0400,11256.908397625,1.349136352539062,0.6199493408203125,-0.3427734375,1,0.95
2020-05-16 12:45:20.184 -0400,11256.973372625,1.019561767578125,0.5633087158203125,-0.2935028076171875,1,0.95
2020-05-16 12:45:20.249 -0400,11257.038346625,0.6430816650390625,0.24169921875,-0.0982513427734375,1,0.95
2020-05-16 12:45:20.314 -0400,11257.103321625,0.45758056640625,0.1874847412109375,-0.155517578125,1,0.95
2020-05-16 12:45:20.379 -0400,11257.168296625,0.4395904541015625,0.1951446533203125,-0.191009521484375,1,0.95
2020-05-16 12:45:20.443 -0400,11257.233270625,0.4127349853515625,0.146209716796875,-0.1031036376953125,1,0.95
2020-05-16 12:45:20.509 -0400,11257.298245625,0.5341644287109375,0.20184326171875,-0.0009613037109375,1,0.95
2020-05-16 12:45:20.574 -0400,11257.363220625,1.921493530273438,0.467041015625,0.13018798828125,1,0.95
2020-05-16 12:45:20.639 -0400,11257.428194625,1.737869262695312,1.303939819335938,-0.8737640380859375,1,0.95
2020-05-16 12:45:20.703 -0400,11257.493169625,1.246261596679688,0.59893798828125,-0.009490966796875,1,0.95
2020-05-16 12:45:20.768 -0400,11257.558144625,0.7905426025390625,0.6197509765625,-0.1658782958984375,1,0.95
2020-05-16 12:45:20.833 -0400,11257.623118625,0.4456329345703125,0.30810546875,-0.2699127197265625,1,0.95
2020-05-16 12:45:20.898 -0400,11257.68809375,0.4284820556640625,0.5814666748046875,-0.3590545654296875,1,0.95
2020-05-16 12:45:20.963 -0400,11257.75306875,0.4615020751953125,0.444244384765625,-0.307525634765625,1,0.95
2020-05-16 12:45:21.029 -0400,11257.81804275,0.9110260009765625,0.5133819580078125,-0.303070068359375,1,0.95
2020-05-16 12:45:21.093 -0400,11257.88301775,0.9277496337890625,0.4409027099609375,-0.122283935546875,1,0.95
2020-05-16 12:45:21.158 -0400,11257.94799275,2.067901611328125,0.744354248046875,-0.3586273193359375,1,0.95
2020-05-16 12:45:21.223 -0400,11258.01296675,1.895050048828125,0.7440185546875,-0.29132080078125,1,0.95
2020-05-16 12:45:21.297 -0400,11258.07794175,1.40301513671875,0.5466156005859375,-0.112640380859375,1,0.95
2020-05-16 12:45:21.353 -0400,11258.14291675,0.9433135986328125,0.3214874267578125,-0.107147216796875,1,0.95
2020-05-16 12:45:21.418 -0400,11258.20789075,0.6740875244140625,0.258148193359375,-0.0370330810546875,1,0.95
2020-05-16 12:45:21.483 -0400,11258.27286575,0.4937591552734375,0.202117919921875,-0.021881103515625,1,0.95
2020-05-16 12:45:21.548 -0400,11258.33784075,0.702392578125,0.212310791015625,-0.0183563232421875,1,0.95
2020-05-16 12:45:21.613 -0400,11258.40281475,0.9682159423828125,0.2573699951171875,0.12457275390625,1,0.95
2020-05-16 12:45:21.678 -0400,11258.46778975,1.121536254882812,0.40771484375,0.1345672607421875,1,0.95
2020-05-16 12:45:21.743 -0400,11258.53276475,1.33978271484375,0.845733642578125,-0.648284912109375,1,0.95
2020-05-16 12:45:21.808 -0400,11258.59773875,1.311614990234375,0.4990997314453125,-0.365142822265625,1,0.95
2020-05-16 12:45:21.873 -0400,11258.66271341667,0.7805633544921875,0.1865692138671875,-0.33984375,1,0.95
2020-05-16 12:45:21.938 -0400,11258.72768841667,0.6521759033203125,0.3412933349609375,-0.2898101806640625,1,0.95
2020-05-16 12:45:22.003 -0400,11258.79266241667,0.8138885498046875,0.6065216064453125,-0.386016845703125,1,0.95
2020-05-16 12:45:22.068 -0400,11258.85763741667,0.7761688232421875,0.5802001953125,-0.5091094970703125,1,0.95
2020-05-16 12:45:22.133 -0400,11258.92261141667,0.7481536865234375,0.4943695068359375,-0.5035247802734375,1,0.95
2020-05-16 12:45:22.198 -0400,11258.98758641667,0.90496826171875,0.380889892578125,-0.4049530029296875,1,0.95
2020-05-16 12:45:22.263 -0400,11259.05256141667,1.044113159179688,0.459991455078125,-0.3733062744140625,1,0.95
2020-05-16 12:45:22.328 -0400,11259.11753541667,1.038986206054688,0.624481201171875,-0.4249725341796875,1,0.95
2020-05-16 12:45:22.393 -0400,11259.18251041667,1.697616577148438,0.541473388671875,-0.164337158203125,1,0.95
2020-05-16 12:45:22.458 -0400,11259.24748541667,1.325210571289062,0.2894439697265625,-0.1751861572265625,1,0.95
2020-05-16 12:45:22.523 -0400,11259.31245941667,1.121978759765625,0.41363525390625,-0.2039794921875,1,0.95
2020-05-16 12:45:22.588 -0400,11259.37743441667,0.9119720458984375,0.32861328125,-0.1138458251953125,1,0.95
2020-05-16 12:45:22.653 -0400,11259.44240941667,0.81378173828125,0.1686553955078125,-0.0539093017578125,1,0.95
2020-05-16 12:45:22.718 -0400,11259.50738341667,0.22320556640625,0.0714569091796875,-0.011566162109375,1,0.95
2020-05-16 12:45:22.783 -0400,11259.57235841667,0.0243072509765625,0.19293212890625,-0.1417083740234375,1,0.95
2020-05-16 12:45:22.848 -0400,11259.63733341667,0.2310028076171875,0.5093231201171875,-0.2230682373046875,1,0.95
2020-05-16 12:45:22.913 -0400,11259.7023075,1.521133422851562,0.8864593505859375,-0.401763916015625,1,0.95
2020-05-16 12:45:22.978 -0400,11259.7672825,1.409332275390625,0.6647491455078125,-0.623046875,1,0.95
2020-05-16 12:45:23.042 -0400,11259.8322565,0.980316162109375,0.1959228515625,-0.262664794921875,1,0.95
2020-05-16 12:45:23.108 -0400,11259.8972315,0.842132568359375,0.669921875,-0.3788299560546875,1,0.95
2020-05-16 12:45:23.172 -0400,11259.9622065,0.80615234375,1.073699951171875,-0.1742706298828125,1,0.95
2020-05-16 12:45:23.238 -0400,11260.0271805,0.9444122314453125,0.2893829345703125,-0.078521728515625,1,0.95
2020-05-16 12:45:23.308 -0400,11260.0921555,0.9267120361328125,0.19097900390625,-0.0536651611328125,1,0.95
2020-05-16 12:45:23.368 -0400,11260.1571305,0.73004150390625,0.345947265625,-0.0660247802734375,1,0.95
2020-05-16 12:45:23.432 -0400,11260.2221045,0.4381561279296875,0.4390716552734375,-0.1562957763671875,1,0.95
2020-05-16 12:45:23.497 -0400,11260.2870795,0.8932647705078125,0.7469024658203125,-0.417633056640625,1,0.95
2020-05-16 12:45:23.562 -0400,11260.3520545,1.175262451171875,0.5927276611328125,-0.1974334716796875,1,0.95
2020-05-16 12:45:23.627 -0400,11260.4170285,1.63507080078125,0.491912841796875,-0.3155670166015625,1,0.95
2020-05-16 12:45:23.692 -0400,11260.4820035,0.9952545166015625,0.214111328125,-0.22491455078125,1,0.95
2020-05-16 12:45:23.757 -0400,11260.5469785,0.85888671875,0.3631591796875,-0.152496337890625,1,0.95
2020-05-16 12:45:23.822 -0400,11260.6119525,0.85211181640625,0.44781494140625,-0.1593170166015625,1,0.95
2020-05-16 12:45:23.887 -0400,11260.67692729167,0.6192169189453125,0.2304840087890625,-0.098052978515625,1,0.95
2020-05-16 12:45:23.952 -0400,11260.74190129167,0.4095611572265625,0.2984161376953125,-0.2423553466796875,1,0.95
2020-05-16 12:45:24.017 -0400,11260.80687629167,0.583465576171875,0.348236083984375,-0.2346954345703125,1,0.95
2020-05-16 12:45:24.082 -0400,11260.87185129167,0.94635009765625,0.4028167724609375,-0.24163818359375,1,0.95
2020-05-16 12:45:24.147 -0400,11260.93682529167,1.202438354492188,0.4781341552734375,-0.19366455078125,1,0.95
2020-05-16 12:45:24.212 -0400,11261.00180029167,1.3546142578125,0.526824951171875,-0.203125,1,0.95
2020-05-16 12:45:24.277 -0400,11261.06677529167,1.600830078125,0.7333831787109375,-0.12396240234375,1,0.95
2020-05-16 12:45:24.342 -0400,11261.13174929167,0.7006988525390625,0.4744720458984375,-0.1555938720703125,1,0.95
2020-05-16 12:45:24.407 -0400,11261.19672429167,0.6080780029296875,0.6596221923828125,-0.04693603515625,1,0.95
2020-05-16 12:45:24.472 -0400,11261.26169829167,0.735809326171875,0.5224609375,-0.035064697265625,1,0.95
2020-05-16 12:45:24.537 -0400,11261.32667329167,0.666290283203125,0.4884796142578125,-0.103424072265625,1,0.95
2020-05-16 12:45:24.602 -0400,11261.39164829167,0.783416748046875,0.6685943603515625,-0.171783447265625,1,0.95
2020-05-16 12:45:24.667 -0400,11261.45662229167,0.885162353515625,0.5258636474609375,-0.304840087890625,1,0.95
2020-05-16 12:45:24.732 -0400,11261.52159729167,0.87445068359375,0.3402862548828125,-0.317413330078125,1,0.95
2020-05-16 12:45:24.797 -0400,11261.58657229167,1.073348999023438,0.430816650390625,-0.2665557861328125,1,0.95
2020-05-16 12:45:24.862 -0400,11261.651546625,1.439682006835938,0.548492431640625,-0.295013427734375,1,0.95
2020-05-16 12:45:24.927 -0400,11261.716521625,1.388168334960938,0.4931488037109375,-0.3038177490234375,1,0.95
2020-05-16 12:45:24.992 -0400,11261.781496625,1.531204223632812,0.5047607421875,-0.1748199462890625,1,0.95
2020-05-16 12:45:25.057 -0400,11261.846470625,1.126358032226562,0.2922515869140625,-0.0956268310546875,1,0.95
2020-05-16 12:45:25.122 -0400,11261.911445625,0.74346923828125,0.273681640625,-0.0192718505859375,1,0.95
2020-05-16 12:45:25.187 -0400,11261.976419625,0.5507354736328125,0.302459716796875,-0.0260772705078125,1,0.95
2020-05-16 12:45:25.252 -0400,11262.041394625,0.541748046875,0.2867889404296875,-0.0163116455078125,1,0.95
2020-05-16 12:45:25.317 -0400,11262.106369625,0.7937164306640625,0.2839813232421875,-0.0442352294921875,1,0.95
2020-05-16 12:45:25.382 -0400,11262.171343625,1.048477172851562,0.3161163330078125,-0.104400634765625,1,0.95
2020-05-16 12:45:25.447 -0400,11262.236318625,1.239517211914062,0.3155517578125,-0.1285858154296875,1,0.95
2020-05-16 12:45:25.511 -0400,11262.301292625,1.279144287109375,0.4703216552734375,-0.2030029296875,1,0.95
2020-05-16 12:45:25.577 -0400,11262.366267625,0.7062530517578125,0.531341552734375,-0.6397552490234375,1,0.95
2020-05-16 12:45:25.641 -0400,11262.431242625,0.8561553955078125,0.4153289794921875,-0.2191162109375,1,0.95
2020-05-16 12:45:25.707 -0400,11262.496216625,0.976959228515625,0.1912384033203125,-0.209991455078125,1,0.95
2020-05-16 12:45:25.771 -0400,11262.561191625,0.7314605712890625,0.4882354736328125,-0.2779693603515625,1,0.95
2020-05-16 12:45:25.836 -0400,11262.626166625,0.712371826171875,0.68646240234375,-0.35919189453125,1,0.95
2020-05-16 12:45:25.901 -0400,11262.69114025,0.722076416015625,0.4821624755859375,-0.29095458984375,1,0.95
2020-05-16 12:45:25.967 -0400,11262.75611525,0.8660125732421875,0.467132568359375,-0.3167724609375,1,0.95
2020-05-16 12:45:26.031 -0400,11262.82108925,0.9377593994140625,0.57623291015625,-0.4335784912109375,1,0.95
2020-05-16 12:45:26.096 -0400,11262.88606425,0.8964691162109375,0.476531982421875,-0.38787841796875,1,0.95
2020-05-16 12:45:26.161 -0400,11262.95103925,0.85919189453125,0.4051055908203125,-0.417022705078125,1,0.95
2020-05-16 12:45:26.226 -0400,11263.01601325,2.022842407226562,0.5554046630859375,-0.4654541015625,1,0.95
2020-05-16 12:45:26.291 -0400,11263.08098825,1.480056762695312,0.0846099853515625,-0.086700439453125,1,0.95
2020-05-16 12:45:26.356 -0400,11263.14596325,1.313552856445312,0.449676513671875,-0.2070159912109375,1,0.95
2020-05-16 12:45:26.421 -0400,11263.21093725,0.9712677001953125,0.537200927734375,-0.12579345703125,1,0.95
2020-05-16 12:45:26.486 -0400,11263.27591225,0.6352996826171875,0.3016204833984375,-0.0008087158203125,1,0.95
2020-05-16 12:45:26.551 -0400,11263.34088625,0.504058837890625,0.2124786376953125,-0.005401611328125,1,0.95
2020-05-16 12:45:26.616 -0400,11263.40586125,0.4549407958984375,0.2319793701171875,-0.103759765625,1,0.95
2020-05-16 12:45:26.681 -0400,11263.47083625,0.3367919921875,0.27239990234375,-0.2483367919921875,1,0.95
2020-05-16 12:45:26.746 -0400,11263.53581025,0.54656982421875,0.2972259521484375,-0.269500732421875,1,0.95
2020-05-16 12:45:26.811 -0400,11263.60078525,1.254959106445312,0.407257080078125,-0.3413238525390625,1,0.95
2020-05-16 12:45:26.876 -0400,11263.66575975,1.747344970703125,0.4833831787109375,-0.317413330078125,1,0.95
2020-05-16 12:45:26.941 -0400,11263.73073475,1.429061889648438,0.5981903076171875,-0.632415771484375,1,0.95
2020-05-16 12:45:27.006 -0400,11263.79570975,1.006591796875,0.3851318359375,-0.5243377685546875,1,0.95
2020-05-16 12:45:27.071 -0400,11263.86068375,0.656524658203125,0.2321929931640625,-0.1268768310546875,1,0.95
2020-05-16 12:45:27.136 -0400,11263.92565875,0.53515625,0.339508056640625,-0.14154052734375,1,0.95
2020-05-16 12:45:27.201 -0400,11263.99063275,0.6952056884765625,0.609619140625,-0.282989501953125,1,0.95
2020-05-16 12:45:27.266 -0400,11264.05560775,0.7842254638671875,0.5638885498046875,-0.403900146484375,1,0.95
2020-05-16 12:45:27.331 -0400,11264.12058275,0.7986602783203125,0.4115447998046875,-0.500946044921875,1,0.95
2020-05-16 12:45:27.396 -0400,11264.18555675,0.909515380859375,0.3123016357421875,-0.4133148193359375,1,0.95
2020-05-16 12:45:27.461 -0400,11264.25053175,0.950469970703125,0.1982879638671875,-0.4130706787109375,1,0.95
2020-05-16 12:45:27.526 -0400,11264.31550675,1.290206909179688,0.2611541748046875,-0.3231048583984375,1,0.95
2020-05-16 12:45:27.591 -0400,11264.38048075,1.537094116210938,0.2041015625,0.069580078125,1,0.95
2020-05-16 12:45:27.656 -0400,11264.44545575,1.26629638671875,0.0180816650390625,0.1187744140625,1,0.95
2020-05-16 12:45:27.721 -0400,11264.51042975,0.8234100341796875,0.03741455078125,-0.0051116943359375,1,0.95
2020-05-16 12:45:27.786 -0400,11264.57540475,0.630035400390625,0.0084686279296875,0.2092742919921875,1,0.95
2020-05-16 12:45:27.851 -0400,11264.64037975,0.7264556884765625,0.0812225341796875,0.1715545654296875,1,0.95
2020-05-16 12:45:27.916 -0400,11264.70535325,1.060592651367188,0.2075042724609375,0.1781158447265625,1,0.95
2020-05-16 12:45:27.980 -0400,11264.77032825,1.452743530273438,0.2965087890625,0.1375274658203125,1,0.95
2020-05-16 12:45:28.046 -0400,11264.83530225,1.312240600585938,0.2775726318359375,-0.01470947265625,1,0.95
2020-05-16 12:45:28.110 -0400,11264.90027725,1.121322631835938,0.231292724609375,-0.1158294677734375,1,0.95
2020-05-16 12:45:28.176 -0400,11264.96525225,0.96527099609375,0.344482421875,-0.1229095458984375,1,0.95
2020-05-16 12:45:28.240 -0400,11265.03022625,0.852996826171875,0.299560546875,-0.0733489990234375,1,0.95
2020-05-16 12:45:28.306 -0400,11265.09520125,0.8177947998046875,0.3057403564453125,-0.06512451171875,1,0.95
2020-05-16 12:45:28.370 -0400,11265.16017525,0.89691162109375,0.370880126953125,-0.0522003173828125,1,0.95
2020-05-16 12:45:28.435 -0400,11265.22515025,1.057785034179688,0.345184326171875,0.005584716796875,1,0.95
2020-05-16 12:45:28.500 -0400,11265.29012525,1.058624267578125,0.3220977783203125,0.036651611328125,1,0.95
2020-05-16 12:45:28.565 -0400,11265.35509925,1.051712036132812,0.3437347412109375,0.0095367431640625,1,0.95
2020-05-16 12:45:28.630 -0400,11265.42007425,1.033798217773438,0.3402862548828125,-0.044708251953125,1,0.95
2020-05-16 12:45:28.695 -0400,11265.48504825,0.9635467529296875,0.280120849609375,0.0115814208984375,1,0.95
2020-05-16 12:45:28.760 -0400,11265.55002325,0.8282623291015625,0.38812255859375,-0.104095458984375,1,0.95
2020-05-16 12:45:28.825 -0400,11265.61499825,0.6863555908203125,0.4962158203125,-0.37017822265625,1,0.95
2020-05-16 12:45:28.890 -0400,11265.67997241667,0.8038482666015625,0.328460693359375,-0.22760009765625,1,0.95
2020-05-16 12:45:28.955 -0400,11265.74494741667,1.054840087890625,0.232177734375,-0.261016845703125,1,0.95
2020-05-16 12:45:29.020 -0400,11265.80992141667,0.96685791015625,0.2787322998046875,-0.2849273681640625,1,0.95
2020-05-16 12:45:29.085 -0400,11265.87489641667,0.8965606689453125,0.3282928466796875,-0.3211822509765625,1,0.95
2020-05-16 12:45:29.150 -0400,11265.93987141667,0.7701416015625,0.30987548828125,-0.20880126953125,1,0.95
2020-05-16 12:45:29.215 -0400,11266.00484541667,0.7408447265625,0.37017822265625,-0.23590087890625,1,0.95
2020-05-16 12:45:29.280 -0400,11266.06982041667,0.7901153564453125,0.324859619140625,-0.2099456787109375,1,0.95
2020-05-16 12:45:29.345 -0400,11266.13479441667,0.8510589599609375,0.345977783203125,-0.2063751220703125,1,0.95
2020-05-16 12:45:29.410 -0400,11266.19976941667,0.854156494140625,0.36968994140625,-0.233489990234375,1,0.95
2020-05-16 12:45:29.475 -0400,11266.26474441667,0.832611083984375,0.405853271484375,-0.2622528076171875,1,0.95
2020-05-16 12:45:29.540 -0400,11266.32971841667,0.7531585693359375,0.401214599609375,-0.27996826171875,1,0.95
2020-05-16 12:45:29.605 -0400,11266.39469341667,0.9282379150390625,0.4225921630859375,-0.3220672607421875,1,0.95
2020-05-16 12:45:29.670 -0400,11266.45966741667,1.51519775390625,0.5101318359375,-0.4044952392578125,1,0.95
2020-05-16 12:45:29.735 -0400,11266.52464241667,0.790496826171875,0.244903564453125,-0.2060394287109375,1,0.95
2020-05-16 12:45:29.800 -0400,11266.58961741667,0.8279571533203125,0.3099822998046875,-0.097320556640625,1,0.95
2020-05-16 12:45:29.865 -0400,11266.6545915,1.217086791992188,0.470306396484375,-0.148162841796875,1,0.95
2020-05-16 12:45:29.930 -0400,11266.7195665,0.9875946044921875,0.381591796875,-0.0540618896484375,1,0.95
2020-05-16 12:45:29.995 -0400,11266.7845405,0.8786468505859375,0.3596954345703125,-0.0655975341796875,1,0.95
2020-05-16 12:45:30.060 -0400,11266.8495155,0.9017333984375,0.3653106689453125,-0.070648193359375,1,0.95
2020-05-16 12:45:30.125 -0400,11266.9144905,0.8998565673828125,0.2944793701171875,-0.067108154296875,1,0.95
2020-05-16 12:45:30.190 -0400,11266.9794645,0.9419708251953125,0.2974395751953125,-0.0744171142578125,1,0.95
2020-05-16 12:45:30.255 -0400,11267.0444395,1.03216552734375,0.3566131591796875,-0.0346832275390625,1,0.95
2020-05-16 12:45:30.320 -0400,11267.1094135,0.9221649169921875,0.4998321533203125,-0.2146453857421875,1,0.95
2020-05-16 12:45:30.385 -0400,11267.1743885,0.9555816650390625,0.502044677734375,-0.222259521484375,1,0.95
2020-05-16 12:45:30.449 -0400,11267.2393635,0.995819091796875,0.389190673828125,-0.2035064697265625,1,0.95
2020-05-16 12:45:30.515 -0400,11267.3043375,0.953369140625,0.404296875,-0.3080596923828125,1,0.95
2020-05-16 12:45:30.579 -0400,11267.3693125,0.8661651611328125,0.39599609375,-0.3033294677734375,1,0.95
2020-05-16 12:45:30.645 -0400,11267.4342865,0.959136962890625,0.3341217041015625,-0.3747406005859375,1,0.95
2020-05-16 12:45:30.709 -0400,11267.4992615,1.026596069335938,0.3767242431640625,-0.4148101806640625,1,0.95
2020-05-16 12:45:30.775 -0400,11267.5642355,0.9582672119140625,-0.17041015625,-0.2773590087890625,1,0.95
2020-05-16 12:45:30.839 -0400,11267.6292105,0.799774169921875,0.111572265625,-0.16766357421875,1,0.95
2020-05-16 12:45:30.904 -0400,11267.69418579167,0.69586181640625,0.4180145263671875,-0.10711669921875,1,0.95
2020-05-16 12:45:30.969 -0400,11267.75915979167,0.6209869384765625,0.3096160888671875,-0.0806121826171875,1,0.95
2020-05-16 12:45:31.035 -0400,11267.82413479167,0.71820068359375,0.2464447021484375,-0.10198974609375,1,0.95
2020-05-16 12:45:31.099 -0400,11267.88910879167,0.96990966796875,0.362152099609375,-0.1681060791015625,1,0.95
2020-05-16 12:45:31.164 -0400,11267.95408379167,0.911834716796875,0.3746795654296875,-0.2149658203125,1,0.95
2020-05-16 12:45:31.229 -0400,11268.01905879167,0.959625244140625,0.3055572509765625,-0.2256011962890625,1,0.95
2020-05-16 12:45:31.294 -0400,11268.08403279167,1.226837158203125,0.4793548583984375,-0.4304656982421875,1,0.95
2020-05-16 12:45:31.359 -0400,11268.14900779167,1.136932373046875,0.2888641357421875,-0.3009490966796875,1,0.95
2020-05-16 12:45:31.424 -0400,11268.21398179167,0.911651611328125,0.296539306640625,-0.0961456298828125,1,0.95
2020-05-16 12:45:31.489 -0400,11268.27895679167,0.8949127197265625,0.4529571533203125,-0.106201171875,1,0.95
2020-05-16 12:45:31.554 -0400,11268.34393179167,0.8826141357421875,0.3992767333984375,-0.1106414794921875,1,0.95
2020-05-16 12:45:31.619 -0400,11268.40890579167,0.99560546875,0.3010101318359375,0.0085906982421875,1,0.95
2020-05-16 12:45:31.684 -0400,11268.47388079167,0.7137298583984375,0.3142242431640625,0.0136260986328125,1,0.95
2020-05-16 12:45:31.749 -0400,11268.53885479167,0.573455810546875,0.367401123046875,-0.030975341796875,1,0.95
2020-05-16 12:45:31.814 -0400,11268.60382979167,0.5619354248046875,0.371978759765625,0.015350341796875,1,0.95
2020-05-16 12:45:31.879 -0400,11268.66880416667,0.866912841796875,0.4156951904296875,-0.01702880859375,1,0.95
2020-05-16 12:45:31.944 -0400,11268.73377816667,1.099533081054688,0.43896484375,0.033966064453125,1,0.95
2020-05-16 12:45:32.009 -0400,11268.79875316667,1.676116943359375,0.6239471435546875,-0.052154541015625,1,0.95
2020-05-16 12:45:32.074 -0400,11268.86372716667,1.1546630859375,0.5691070556640625,-0.558929443359375,1,0.95
2020-05-16 12:45:32.139 -0400,11268.92870216667,1.261016845703125,-0.0213623046875,-0.3592071533203125,1,0.95
2020-05-16 12:45:32.204 -0400,11268.99367616667,0.601348876953125,0.0181884765625,-0.5969085693359375,1,0.95
2020-05-16 12:45:32.269 -0400,11269.05865116667,0.5632781982421875,0.0131988525390625,-0.261688232421875,1,0.95
2020-05-16 12:45:32.334 -0400,11269.12362616667,0.5316619873046875,0.19073486328125,0.021087646484375,1,0.95
2020-05-16 12:45:32.399 -0400,11269.18860016667,0.7997589111328125,0.4244232177734375,-0.006256103515625,1,0.95
2020-05-16 12:45:32.464 -0400,11269.25357516667,1.198394775390625,0.392486572265625,0.1232147216796875,1,0.95
2020-05-16 12:45:32.529 -0400,11269.31854916667,1.321456909179688,0.22552490234375,0.0537261962890625,1,0.95
2020-05-16 12:45:32.594 -0400,11269.38352416667,0.99395751953125,0.3466949462890625,-0.0363922119140625,1,0.95
2020-05-16 12:45:32.659 -0400,11269.44849916667,1.000259399414062,0.2924041748046875,0.01776123046875,1,0.95
2020-05-16 12:45:32.724 -0400,11269.51347316667,1.1485595703125,0.2147674560546875,0.0648193359375,1,0.95
2020-05-16 12:45:32.789 -0400,11269.57844816667,1.059982299804688,0.3599395751953125,-0.041107177734375,1,0.95
2020-05-16 12:45:32.854 -0400,11269.64342216667,0.9390869140625,0.3535308837890625,-0.036102294921875,1,0.95
2020-05-16 12:45:32.919 -0400,11269.70839716667,0.8769073486328125,0.282806396484375,-0.0687713623046875,1,0.95
2020-05-16 12:45:32.984 -0400,11269.77337116667,0.898345947265625,0.262908935546875,-0.0414276123046875,1,0.95
2020-05-16 12:45:33.048 -0400,11269.83834616667,0.9370269775390625,0.279571533203125,-0.0406494140625,1,0.95
2020-05-16 12:45:33.114 -0400,11269.90332116667,0.8417816162109375,0.3353271484375,-0.0634765625,1,0.95
2020-05-16 12:45:33.178 -0400,11269.96829516667,0.6916961669921875,0.428070068359375,-0.2263336181640625,1,0.95
2020-05-16 12:45:33.244 -0400,11270.03327016667,0.834228515625,0.257232666015625,-0.021820068359375,1,0.95
2020-05-16 12:45:33.308 -0400,11270.09824416667,1.106582641601562,0.2794036865234375,-0.0538787841796875,1,0.95
2020-05-16 12:45:33.374 -0400,11270.16321916667,1.071014404296875,0.2650299072265625,-0.1965789794921875,1,0.95
2020-05-16 12:45:33.438 -0400,11270.22819316667,0.9157867431640625,0.2223663330078125,-0.4045257568359375,1,0.95
2020-05-16 12:45:33.503 -0400,11270.29316816667,0.7476348876953125,0.2542724609375,-0.361663818359375,1,0.95
2020-05-16 12:45:33.568 -0400,11270.35814316667,0.9621429443359375,0.3828125,-0.3358154296875,1,0.95
2020-05-16 12:45:33.633 -0400,11270.42311716667,0.704132080078125,0.3433685302734375,-0.1795196533203125,1,0.95
2020-05-16 12:45:33.698 -0400,11270.48809216667,0.526397705078125,0.55450439453125,-0.2285614013671875,1,0.95
2020-05-16 12:45:33.763 -0400,11270.55306616667,0.4457244873046875,0.408721923828125,-0.3596038818359375,1,0.95
2020-05-16 12:45:33.828 -0400,11270.61804116667,0.8142852783203125,0.622833251953125,-0.38714599609375,1,0.95
2020-05-16 12:45:33.893 -0400,11270.68301591667,1.738204956054688,0.8016204833984375,-0.256866455078125,1,0.95
2020-05-16 12:45:33.958 -0400,11270.74799091667,1.57122802734375,0.614349365234375,-0.6503753662109375,1,0.95
2020-05-16 12:45:34.023 -0400,11270.81296591667,1.61529541015625,0.5806121826171875,-0.3870849609375,1,0.95
2020-05-16 12:45:34.088 -0400,11270.87793991667,1.059539794921875,0.48724365234375,-0.3347625732421875,1,0.95
2020-05-16 12:45:34.153 -0400,11270.94291491667,0.5843658447265625,0.4214324951171875,-0.1393585205078125,1,0.95
2020-05-16 12:45:34.228 -0400,11271.00788891667,0.1258087158203125,0.3618316650390625,-0.20806884765625,1,0.95
2020-05-16 12:45:34.283 -0400,11271.07286391667,-0.004486083984375,0.386260986328125,0.08563232421875,1,0.95
2020-05-16 12:45:34.348 -0400,11271.13783791667,-1.440628051757812,0.3647918701171875,0.98651123046875,1,0.95
2020-05-16 12:45:34.413 -0400,11271.20281291667,-0.6614837646484375,0.030792236328125,0.859222412109375,1,0.95
2020-05-16 12:45:34.478 -0400,11271.26778791667,4.542434692382812,2.196853637695312,-1.416107177734375,1,0.95
2020-05-16 12:45:34.543 -0400,11271.33276191667,1.67242431640625,1.0469970703125,-1.374282836914062,1,0.95
2020-05-16 12:45:34.608 -0400,11271.39773691667,0.6630096435546875,0.588714599609375,-0.5400238037109375,1,0.95
2020-05-16 12:45:34.673 -0400,11271.46271091667,3.120803833007812,1.689895629882812,-0.2170562744140625,1,0.95
2020-05-16 12:45:34.738 -0400,11271.52768591667,2.205184936523438,0.706268310546875,0.1626434326171875,1,0.95
2020-05-16 12:45:34.803 -0400,11271.59265991667,1.2030029296875,0.317596435546875,0.1278839111328125,1,0.95
2020-05-16 12:45:34.868 -0400,11271.657634125,0.2888336181640625,-0.3116607666015625,0.092010498046875,1,0.95
2020-05-16 12:45:34.933 -0400,11271.722609125,-0.044952392578125,-0.6914520263671875,0.1321563720703125,1,0.95
2020-05-16 12:45:34.998 -0400,11271.787583125,0.451904296875,-0.090789794921875,-0.1811065673828125,1,0.95
2020-05-16 12:45:35.063 -0400,11271.852558125,2.5848388671875,1.158905029296875,-0.2278289794921875,1,0.95
2020-05-16 12:45:35.128 -0400,11271.917532125,1.531707763671875,0.5274810791015625,-0.268096923828125,1,0.95
2020-05-16 12:45:35.193 -0400,11271.982507125,0.7145843505859375,0.63507080078125,-0.0792236328125,1,0.95
2020-05-16 12:45:35.258 -0400,11272.047481125,0.28753662109375,0.471527099609375,-0.2274017333984375,1,0.95
2020-05-16 12:45:35.323 -0400,11272.112456125,0.0687255859375,0.4083404541015625,-0.149658203125,1,0.95
2020-05-16 12:45:35.388 -0400,11272.177431125,-0.021453857421875,0.27069091796875,-0.0554046630859375,1,0.95
2020-05-16 12:45:35.453 -0400,11272.242405125,0.498687744140625,0.6475372314453125,-0.07745361328125,1,0.95
2020-05-16 12:45:35.517 -0400,11272.307380125,2.571182250976562,1.189376831054688,0.15570068359375,1,0.95
2020-05-16 12:45:35.583 -0400,11272.372354125,1.888641357421875,0.665924072265625,-0.193634033203125,1,0.95
2020-05-16 12:45:35.647 -0400,11272.437329125,1.033462524414062,0.4752960205078125,-0.112457275390625,1,0.95
2020-05-16 12:45:35.713 -0400,11272.502303125,0.7547607421875,0.390167236328125,0.0024566650390625,1,0.95
2020-05-16 12:45:35.778 -0400,11272.567278125,0.64654541015625,0.1141510009765625,0.0452728271484375,1,0.95
2020-05-16 12:45:35.842 -0400,11272.632253125,0.666046142578125,0.067138671875,0.037567138671875,1,0.95
2020-05-16 12:45:35.907 -0400,11272.697226875,0.68377685546875,0.099334716796875,0.082183837890625,1,0.95
2020-05-16 12:45:35.972 -0400,11272.762201875,0.497222900390625,0.3753509521484375,-0.079315185546875,1,0.95
2020-05-16 12:45:36.037 -0400,11272.827175875,1.454116821289062,0.888702392578125,-0.130218505859375,1,0.95
2020-05-16 12:45:36.102 -0400,11272.892150875,1.111831665039062,0.5330047607421875,-0.636749267578125,1,0.95
2020-05-16 12:45:36.167 -0400,11272.957124875,1.7132568359375,1.048248291015625,-0.5623321533203125,1,0.95
2020-05-16 12:45:36.232 -0400,11273.022099875,0.616790771484375,0.4323272705078125,-0.43194580078125,1,0.95
2020-05-16 12:45:36.297 -0400,11273.087073875,0.3709869384765625,0.33624267578125,-0.28546142578125,1,0.95
2020-05-16 12:45:36.362 -0400,11273.152048875,0.3670806884765625,0.43450927734375,-0.2984161376953125,1,0.95
2020-05-16 12:45:36.427 -0400,11273.217023875,0.4087371826171875,0.60174560546875,-0.45269775390625,1,0.95
2020-05-16 12:45:36.492 -0400,11273.281997875,0.3502349853515625,0.6166839599609375,-0.33245849609375,1,0.95
2020-05-16 12:45:36.557 -0400,11273.346972875,1.4024658203125,0.3810882568359375,-0.25518798828125,1,0.95
2020-05-16 12:45:36.622 -0400,11273.411946875,2.216217041015625,1.263671875,0.5224456787109375,1,0.95
2020-05-16 12:45:36.687 -0400,11273.476921875,2.257003784179688,0.0816497802734375,-0.6223907470703125,1,0.95
2020-05-16 12:45:36.752 -0400,11273.541895875,1.560455322265625,0.818450927734375,0.22015380859375,1,0.95
2020-05-16 12:45:36.817 -0400,11273.606870875,0.6961212158203125,-0.1926116943359375,0.017547607421875,1,0.95
2020-05-16 12:45:36.882 -0400,11273.671846125,0.533843994140625,-0.0211029052734375,-0.0235137939453125,1,0.95
2020-05-16 12:45:36.947 -0400,11273.736820125,0.45550537109375,0.002197265625,-0.0349273681640625,1,0.95
2020-05-16 12:45:37.012 -0400,11273.801795125,0.582763671875,0.1776123046875,-0.073577880859375,1,0.95
2020-05-16 12:45:37.077 -0400,11273.866769125,1.137252807617188,1.3428955078125,0.1270294189453125,1,0.95
2020-05-16 12:45:37.142 -0400,11273.931744125,1.155380249023438,0.506256103515625,-0.41741943359375,1,0.95
2020-05-16 12:45:37.207 -0400,11273.996718125,1.268707275390625,0.7194671630859375,-0.24163818359375,1,0.95
2020-05-16 12:45:37.272 -0400,11274.061693125,0.945587158203125,0.62310791015625,-0.3269195556640625,1,0.95
2020-05-16 12:45:37.348 -0400,11274.126667125,0.74517822265625,0.5904998779296875,-0.200408935546875,1,0.95
2020-05-16 12:45:37.402 -0400,11274.191642125,0.6521453857421875,0.5136260986328125,-0.227691650390625,1,0.95
2020-05-16 12:45:37.467 -0400,11274.256617125,0.3596954345703125,0.4810333251953125,-0.191375732421875,1,0.95
2020-05-16 12:45:37.532 -0400,11274.321591125,0.1579437255859375,0.5039215087890625,-0.1702423095703125,1,0.95
2020-05-16 12:45:37.597 -0400,11274.386566125,1.35345458984375,0.4253997802734375,-0.24884033203125,1,0.95
2020-05-16 12:45:37.662 -0400,11274.451540125,1.908462524414062,0.7258148193359375,0.39154052734375,1,0.95
2020-05-16 12:45:37.727 -0400,11274.516515125,1.390411376953125,0.2154693603515625,-0.6883392333984375,1,0.95
2020-05-16 12:45:37.792 -0400,11274.581489125,1.117156982421875,0.4402923583984375,0.124237060546875,1,0.95
2020-05-16 12:45:37.857 -0400,11274.646464125,0.4884796142578125,-0.052032470703125,-0.013031005859375,1,0.95
2020-05-16 12:45:37.922 -0400,11274.71143825,0.2664642333984375,-0.133880615234375,-0.0641326904296875,1,0.95
2020-05-16 12:45:37.987 -0400,11274.77641325,1.001602172851562,0.38116455078125,-0.0680694580078125,1,0.95
2020-05-16 12:45:38.052 -0400,11274.84138825,1.783843994140625,0.501708984375,-0.6369171142578125,1,0.95
2020-05-16 12:45:38.117 -0400,11274.90636225,1.094558715820312,0.553680419921875,-0.4237060546875,1,0.95
2020-05-16 12:45:38.182 -0400,11274.97133725,0.615570068359375,0.53546142578125,-0.2185821533203125,1,0.95
2020-05-16 12:45:38.246 -0400,11275.03631125,0.725494384765625,0.8427581787109375,-0.1876983642578125,1,0.95
2020-05-16 12:45:38.312 -0400,11275.10128625,0.9197540283203125,0.7551422119140625,0.0218505859375,1,0.95
2020-05-16 12:45:38.376 -0400,11275.16626025,0.16656494140625,0.611663818359375,-0.144134521484375,1,0.95
2020-05-16 12:45:38.442 -0400,11275.23123525,-0.243194580078125,0.5154571533203125,-0.2393341064453125,1,0.95
2020-05-16 12:45:38.506 -0400,11275.29621025,0.11456298828125,0.32269287109375,-0.1520538330078125,1,0.95
2020-05-16 12:45:38.571 -0400,11275.36118425,2.48333740234375,0.9043731689453125,-0.0399932861328125,1,0.95
2020-05-16 12:45:38.636 -0400,11275.42615925,1.860275268554688,0.504364013671875,0.0161895751953125,1,0.95
2020-05-16 12:45:38.702 -0400,11275.49113325,0.7041473388671875,0.4012603759765625,-0.136016845703125,1,0.95
2020-05-16 12:45:38.766 -0400,11275.55610825,0.2939605712890625,0.2445068359375,-0.06683349609375,1,0.95
2020-05-16 12:45:38.831 -0400,11275.62108225,0.1526031494140625,0.1029052734375,-0.098663330078125,1,0.95
2020-05-16 12:45:38.896 -0400,11275.68605779167,0.5508575439453125,0.3560791015625,-0.200531005859375,1,0.95
2020-05-16 12:45:38.961 -0400,11275.75103179167,3.032745361328125,0.9764556884765625,-0.051483154296875,1,0.95
2020-05-16 12:45:39.026 -0400,11275.81600679167,1.440460205078125,0.716033935546875,-0.5685272216796875,1,0.95
2020-05-16 12:45:39.092 -0400,11275.88098179167,0.9716949462890625,0.7223968505859375,-0.1966552734375,1,0.95
2020-05-16 12:45:39.156 -0400,11275.94595579167,0.5860595703125,0.2983245849609375,-0.16363525390625,1,0.95
2020-05-16 12:45:39.221 -0400,11276.01093079167,0.37921142578125,0.4105377197265625,-0.162689208984375,1,0.95
2020-05-16 12:45:39.297 -0400,11276.07590479167,0.398162841796875,0.3614959716796875,-0.1180877685546875,1,0.95
2020-05-16 12:45:39.351 -0400,11276.14087979167,0.3357696533203125,0.328338623046875,-0.111053466796875,1,0.95
2020-05-16 12:45:39.416 -0400,11276.20585379167,0.7216949462890625,0.469268798828125,-0.1475982666015625,1,0.95
2020-05-16 12:45:39.481 -0400,11276.27082879167,2.082717895507812,0.7456817626953125,0.174041748046875,1,0.95
2020-05-16 12:45:39.546 -0400,11276.33580279167,1.669082641601562,0.39593505859375,-0.3424835205078125,1,0.95
2020-05-16 12:45:39.611 -0400,11276.40077779167,1.14697265625,0.466461181640625,-0.1609649658203125,1,0.95
2020-05-16 12:45:39.676 -0400,11276.46575279167,0.666259765625,0.21441650390625,-0.12261962890625,1,0.95
2020-05-16 12:45:39.741 -0400,11276.53072679167,0.4834747314453125,0.197662353515625,-0.118011474609375,1,0.95
2020-05-16 12:45:39.806 -0400,11276.59570179167,0.52618408203125,0.2377777099609375,-0.07904052734375,1,0.95
2020-05-16 12:45:39.871 -0400,11276.66067575,0.7975006103515625,0.2468414306640625,-0.0134735107421875,1,0.95
2020-05-16 12:45:39.936 -0400,11276.72565075,0.785186767578125,0.304656982421875,0.0189361572265625,1,0.95
2020-05-16 12:45:40.001 -0400,11276.79062475,1.062530517578125,0.4580841064453125,-0.0904388427734375,1,0.95
2020-05-16 12:45:40.066 -0400,11276.85559975,1.564559936523438,0.558624267578125,-0.2516937255859375,1,0.95
2020-05-16 12:45:40.131 -0400,11276.92057475,1.102020263671875,0.4359283447265625,-0.4379730224609375,1,0.95
2020-05-16 12:45:40.196 -0400,11276.98554875,0.95526123046875,0.4427337646484375,-0.3157196044921875,1,0.95
2020-05-16 12:45:40.261 -0400,11277.05052375,0.674896240234375,0.3686676025390625,-0.2885894775390625,1,0.95
2020-05-16 12:45:40.326 -0400,11277.11549775,0.556793212890625,0.4272003173828125,-0.2407379150390625,1,0.95
2020-05-16 12:45:40.391 -0400,11277.18047275,0.699310302734375,0.47454833984375,-0.297821044921875,1,0.95
2020-05-16 12:45:40.456 -0400,11277.24544675,0.6548919677734375,0.352142333984375,-0.2608642578125,1,0.95
2020-05-16 12:45:40.521 -0400,11277.31042175,0.722747802734375,0.3612213134765625,-0.2736358642578125,1,0.95
2020-05-16 12:45:40.585 -0400,11277.37539575,0.8799591064453125,0.3464813232421875,-0.2434844970703125,1,0.95
2020-05-16 12:45:40.651 -0400,11277.44037075,0.785888671875,0.4319915771484375,-0.19482421875,1,0.95
2020-05-16 12:45:40.715 -0400,11277.50534575,2.227645874023438,0.80816650390625,-0.4305572509765625,1,0.95
2020-05-16 12:45:40.781 -0400,11277.57031975,1.102874755859375,0.394500732421875,-0.1178436279296875,1,0.95
2020-05-16 12:45:40.845 -0400,11277.63529475,1.153579711914062,0.6210784912109375,-0.175140380859375,1,0.95
2020-05-16 12:45:40.911 -0400,11277.70026825,0.6186981201171875,0.277435302734375,-0.1307373046875,1,0.95
2020-05-16 12:45:40.976 -0400,11277.76524325,0.54327392578125,0.315643310546875,-0.1053924560546875,1,0.95
2020-05-16 12:45:41.040 -0400,11277.83021725,0.4867706298828125,0.2162628173828125,-0.058837890625,1,0.95
2020-05-16 12:45:41.105 -0400,11277.89519225,0.640411376953125,0.2975311279296875,-0.1090087890625,1,0.95
2020-05-16 12:45:41.170 -0400,11277.96016625,0.7536163330078125,0.329620361328125,-0.06494140625,1,0.95
2020-05-16 12:45:41.235 -0400,11278.02514125,1.569915771484375,0.416290283203125,-0.135223388671875,1,0.95
2020-05-16 12:45:41.301 -0400,11278.09011625,1.555023193359375,0.5536346435546875,-0.49139404296875,1,0.95
2020-05-16 12:45:41.365 -0400,11278.15509025,1.143508911132812,0.377227783203125,-0.52972412109375,1,0.95
2020-05-16 12:45:41.430 -0400,11278.22006525,0.7524566650390625,0.202850341796875,-0.170196533203125,1,0.95
2020-05-16 12:45:41.495 -0400,11278.28503925,0.5358123779296875,0.3632049560546875,-0.359344482421875,1,0.95
2020-05-16 12:45:41.560 -0400,11278.35001425,0.4979705810546875,0.4639892578125,-0.326324462890625,1,0.95
2020-05-16 12:45:41.625 -0400,11278.41498825,0.6376800537109375,0.4902191162109375,-0.4197540283203125,1,0.95
2020-05-16 12:45:41.690 -0400,11278.47996325,0.71783447265625,0.333892822265625,-0.2796783447265625,1,0.95
2020-05-16 12:45:41.755 -0400,11278.54493725,1.652099609375,0.3867950439453125,-0.4758453369140625,1,0.95
2020-05-16 12:45:41.820 -0400,11278.60991225,1.850601196289062,0.230865478515625,0.1257781982421875,1,0.95
2020-05-16 12:45:41.885 -0400,11278.674887875,1.525680541992188,0.4990234375,-0.16424560546875,1,0.95
2020-05-16 12:45:41.950 -0400,11278.739861875,0.9065093994140625,0.5525054931640625,-0.170135498046875,1,0.95
2020-05-16 12:45:42.015 -0400,11278.804836875,0.6008148193359375,0.2590484619140625,0.0041656494140625,1,0.95
2020-05-16 12:45:42.080 -0400,11278.869810875,0.4127349853515625,0.0493011474609375,0.0030975341796875,1,0.95
2020-05-16 12:45:42.145 -0400,11278.934785875,0.407501220703125,0.0419921875,-0.01190185546875,1,0.95
2020-05-16 12:45:42.210 -0400,11278.999759875,0.5287322998046875,0.1819000244140625,0.01116943359375,1,0.95
2020-05-16 12:45:42.275 -0400,11279.064734875,1.048263549804688,0.5650177001953125,-0.030181884765625,1,0.95
2020-05-16 12:45:42.340 -0400,11279.129708875,1.66217041015625,0.881683349609375,-0.733367919921875,1,0.95
2020-05-16 12:45:42.405 -0400,11279.194683875,1.857894897460938,0.6479339599609375,-0.4230499267578125,1,0.95
2020-05-16 12:45:42.470 -0400,11279.259657875,0.9670562744140625,-0.0727081298828125,-0.2729949951171875,1,0.95
2020-05-16 12:45:42.535 -0400,11279.324632875,0.622802734375,0.3511962890625,-0.3676300048828125,1,0.95
2020-05-16 12:45:42.600 -0400,11279.389607875,0.5238800048828125,0.530029296875,-0.29119873046875,1,0.95
2020-05-16 12:45:42.665 -0400,11279.454581875,0.524383544921875,0.3580169677734375,-0.266265869140625,1,0.95
2020-05-16 12:45:42.730 -0400,11279.519556875,0.5489654541015625,0.318115234375,-0.3107147216796875,1,0.95
2020-05-16 12:45:42.795 -0400,11279.584530875,0.89111328125,0.4836273193359375,-0.3724212646484375,1,0.95
2020-05-16 12:45:42.860 -0400,11279.649505875,1.499114990234375,0.4672088623046875,-0.2743377685546875,1,0.95
2020-05-16 12:45:42.925 -0400,11279.714479375,1.319900512695312,0.4009857177734375,-0.0800628662109375,1,0.95
2020-05-16 12:45:42.990 -0400,11279.779454375,1.133895874023438,0.6413116455078125,-0.2207183837890625,1,0.95
2020-05-16 12:45:43.055 -0400,11279.844428375,1.059768676757812,0.645294189453125,-0.1219024658203125,1,0.95
2020-05-16 12:45:43.120 -0400,11279.909403375,0.7305755615234375,0.381072998046875,-0.056793212890625,1,0.95
2020-05-16 12:45:43.185 -0400,11279.974378375,0.504547119140625,0.324859619140625,-0.074737548828125,1,0.95
2020-05-16 12:45:43.250 -0400,11280.039352375,0.4813995361328125,0.334747314453125,-0.037628173828125,1,0.95
2020-05-16 12:45:43.315 -0400,11280.104327375,0.6363067626953125,0.290252685546875,0.0270538330078125,1,0.95
2020-05-16 12:45:43.380 -0400,11280.169301375,0.8726654052734375,0.300140380859375,0.125457763671875,1,0.95
2020-05-16 12:45:43.444 -0400,11280.234276375,1.114471435546875,0.420623779296875,0.1637725830078125,1,0.95
2020-05-16 12:45:43.510 -0400,11280.299250375,1.450286865234375,0.4965667724609375,-0.025054931640625,1,0.95
2020-05-16 12:45:43.575 -0400,11280.364225375,1.300155639648438,0.6267852783203125,-0.318389892578125,1,0.95
2020-05-16 12:45:43.640 -0400,11280.429199375,1.53533935546875,0.4942169189453125,-0.50787353515625,1,0.95
2020-05-16 12:45:43.704 -0400,11280.494174375,0.673797607421875,0.0758056640625,-0.368499755859375,1,0.95
2020-05-16 12:45:43.769 -0400,11280.559149375,0.3232269287109375,0.53228759765625,-0.4392852783203125,1,0.95
2020-05-16 12:45:43.834 -0400,11280.624123375,0.3173675537109375,0.53497314453125,-0.2084503173828125,1,0.95
2020-05-16 12:45:43.899 -0400,11280.68909829167,0.3593597412109375,0.389129638671875,-0.1745147705078125,1,0.95
2020-05-16 12:45:43.964 -0400,11280.75407229167,0.8566741943359375,0.670989990234375,-0.223297119140625,1,0.95
2020-05-16 12:45:44.029 -0400,11280.81904729167,1.934814453125,0.7501220703125,-0.3169097900390625,1,0.95
2020-05-16 12:45:44.094 -0400,11280.88402129167,2.26336669921875,0.201934814453125,0.3031158447265625,1,0.95
2020-05-16 12:45:44.159 -0400,11280.94899629167,1.240203857421875,0.416473388671875,-0.34979248046875,1,0.95
2020-05-16 12:45:44.224 -0400,11281.01397029167,0.9556427001953125,0.5697479248046875,-0.0447235107421875,1,0.95
2020-05-16 12:45:44.290 -0400,11281.07894529167,0.5910186767578125,0.1982574462890625,0.04949951171875,1,0.95
2020-05-16 12:45:44.354 -0400,11281.14391929167,0.3993682861328125,-0.06170654296875,0.04327392578125,1,0.95
2020-05-16 12:45:44.419 -0400,11281.20889429167,0.4165191650390625,0.0145263671875,0.0825958251953125,1,0.95
2020-05-16 12:45:44.485 -0400,11281.27386929167,0.7937469482421875,0.51910400390625,0.0955047607421875,1,0.95
2020-05-16 12:45:44.549 -0400,11281.33884329167,1.279830932617188,0.963043212890625,-0.2743988037109375,1,0.95
2020-05-16 12:45:44.614 -0400,11281.40381829167,1.938003540039062,0.6450042724609375,-0.988311767578125,1,0.95
2020-05-16 12:45:44.679 -0400,11281.46879229167,0.84814453125,0.3435821533203125,-0.2554779052734375,1,0.95
2020-05-16 12:45:44.744 -0400,11281.53376729167,0.7188568115234375,0.39404296875,-0.35479736328125,1,0.95
2020-05-16 12:45:44.809 -0400,11281.59874129167,0.7884521484375,0.6036224365234375,-0.3047027587890625,1,0.95
2020-05-16 12:45:44.874 -0400,11281.66371629167,0.7843780517578125,0.64544677734375,-0.25286865234375,1,0.95
2020-05-16 12:45:44.939 -0400,11281.728690125,0.4276885986328125,0.5547943115234375,-0.3320465087890625,1,0.95
2020-05-16 12:45:45.004 -0400,11281.793665125,0.53936767578125,0.5529022216796875,-0.408294677734375,1,0.95
2020-05-16 12:45:45.070 -0400,11281.858640125,0.90386962890625,0.402801513671875,-0.3858184814453125,1,0.95
2020-05-16 12:45:45.134 -0400,11281.923614125,0.7489166259765625,0.2952728271484375,-0.28533935546875,1,0.95
2020-05-16 12:45:45.199 -0400,11281.988589125,1.683792114257812,0.556488037109375,-0.4525909423828125,1,0.95
2020-05-16 12:45:45.264 -0400,11282.053563125,1.677566528320312,0.593475341796875,-0.0330352783203125,1,0.95
2020-05-16 12:45:45.329 -0400,11282.118538125,1.50616455078125,0.2095489501953125,-0.389923095703125,1,0.95
2020-05-16 12:45:45.394 -0400,11282.183512125,0.8773345947265625,0.414825439453125,-0.1038055419921875,1,0.95
2020-05-16 12:45:45.459 -0400,11282.248487125,0.5584259033203125,0.2432098388671875,-0.0478363037109375,1,0.95
2020-05-16 12:45:45.524 -0400,11282.313461125,0.476806640625,0.164459228515625,-0.0081024169921875,1,0.95
2020-05-16 12:45:45.589 -0400,11282.378436125,0.2904510498046875,0.166473388671875,-0.0467529296875,1,0.95
2020-05-16 12:45:45.654 -0400,11282.443411125,0.4304656982421875,0.1909637451171875,-0.0273895263671875,1,0.95
2020-05-16 12:45:45.719 -0400,11282.508385125,1.6871337890625,0.9065093994140625,-0.2019500732421875,1,0.95
2020-05-16 12:45:45.784 -0400,11282.573360125,1.29534912109375,0.8016815185546875,-0.5695343017578125,1,0.95
2020-05-16 12:45:45.848 -0400,11282.638334125,0.8333282470703125,0.778045654296875,-0.4308929443359375,1,0.95
2020-05-16 12:45:45.913 -0400,11282.703309375,0.6516876220703125,0.5523529052734375,-0.414947509765625,1,0.95
2020-05-16 12:45:45.979 -0400,11282.768283375,0.486968994140625,0.581634521484375,-0.295745849609375,1,0.95
2020-05-16 12:45:46.043 -0400,11282.833258375,0.4024810791015625,0.5031280517578125,-0.29168701171875,1,0.95
2020-05-16 12:45:46.109 -0400,11282.898232375,0.559326171875,0.54046630859375,-0.375946044921875,1,0.95
2020-05-16 12:45:46.173 -0400,11282.963207375,1.113983154296875,0.4922332763671875,-0.3523712158203125,1,0.95
2020-05-16 12:45:46.238 -0400,11283.028182375,2.079360961914062,0.44830322265625,-0.03729248046875,1,0.95
2020-05-16 12:45:46.303 -0400,11283.093156375,1.7080078125,0.592864990234375,-0.4775238037109375,1,0.95
2020-05-16 12:45:46.369 -0400,11283.158131375,1.28973388671875,0.7731475830078125,-0.09222412109375,1,0.95
2020-05-16 12:45:46.433 -0400,11283.223105375,1.015090942382812,0.20257568359375,-0.07122802734375,1,0.95
2020-05-16 12:45:46.498 -0400,11283.288080375,0.753753662109375,0.1337127685546875,0.013885498046875,1,0.95
2020-05-16 12:45:46.563 -0400,11283.353054375,0.60003662109375,0.1976470947265625,0.0304412841796875,1,0.95
2020-05-16 12:45:46.628 -0400,11283.418029375,0.6570892333984375,0.2318115234375,0.0694122314453125,1,0.95
2020-05-16 12:45:46.693 -0400,11283.483003375,0.521392822265625,0.233245849609375,0.035797119140625,1,0.95
2020-05-16 12:45:46.758 -0400,11283.547978375,1.355026245117188,0.5447540283203125,-0.00537109375,1,0.95
2020-05-16 12:45:46.823 -0400,11283.612953375,1.28167724609375,0.7256011962890625,-0.74432373046875,1,0.95
2020-05-16 12:45:46.888 -0400,11283.677927,1.495941162109375,0.579345703125,-0.368560791015625,1,0.95
2020-05-16 12:45:46.953 -0400,11283.742902,0.91668701171875,0.3565826416015625,-0.4625244140625,1,0.95
2020-05-16 12:45:47.018 -0400,11283.807876,0.7446136474609375,0.538421630859375,-0.3753662109375,1,0.95
2020-05-16 12:45:47.083 -0400,11283.872851,0.6652984619140625,0.5277862548828125,-0.426788330078125,1,0.95
2020-05-16 12:45:47.148 -0400,11283.937825,0.6741943359375,0.422943115234375,-0.486724853515625,1,0.95
2020-05-16 12:45:47.213 -0400,11284.0028,0.78021240234375,0.3208465576171875,-0.393585205078125,1,0.95
2020-05-16 12:45:47.278 -0400,11284.067774,0.9575042724609375,0.3195037841796875,-0.3330230712890625,1,0.95
2020-05-16 12:45:47.343 -0400,11284.132749,2.289627075195312,0.5772705078125,-0.3778228759765625,1,0.95
2020-05-16 12:45:47.408 -0400,11284.197724,1.499191284179688,0.455108642578125,0.063690185546875,1,0.95
2020-05-16 12:45:47.473 -0400,11284.262698,1.238800048828125,0.196563720703125,-0.1080474853515625,1,0.95
2020-05-16 12:45:47.539 -0400,11284.327673,0.8636627197265625,0.6392059326171875,-0.0081939697265625,1,0.95
2020-05-16 12:45:47.603 -0400,11284.392647,0.6651153564453125,0.26141357421875,0.0958099365234375,1,0.95
2020-05-16 12:45:47.668 -0400,11284.457622,0.5648193359375,0.144134521484375,0.176513671875,1,0.95
2020-05-16 12:45:47.733 -0400,11284.522596,0.55670166015625,0.2527923583984375,0.124176025390625,1,0.95
2020-05-16 12:45:47.798 -0400,11284.587571,0.620269775390625,0.4032440185546875,0.088226318359375,1,0.95
2020-05-16 12:45:47.863 -0400,11284.652545,0.82220458984375,0.4301300048828125,-0.0321807861328125,1,0.95
2020-05-16 12:45:47.928 -0400,11284.717520875,1.081130981445312,0.453399658203125,-0.1212615966796875,1,0.95
2020-05-16 12:45:47.993 -0400,11284.782495875,1.182281494140625,0.372161865234375,-0.1173095703125,1,0.95
2020-05-16 12:45:48.058 -0400,11284.847469875,2.237319946289062,0.7060699462890625,-0.379241943359375,1,0.95
2020-05-16 12:45:48.123 -0400,11284.912444875,0.8614044189453125,0.6893310546875,-0.917633056640625,1,0.95
2020-05-16 12:45:48.188 -0400,11284.977418875,1.535400390625,0.209442138671875,-0.1478424072265625,1,0.95
2020-05-16 12:45:48.252 -0400,11285.042393875,0.6879119873046875,-0.0544586181640625,-0.21490478515625,1,0.95
2020-05-16 12:45:48.318 -0400,11285.107367875,0.372283935546875,0.4337615966796875,-0.2809600830078125,1,0.95
2020-05-16 12:45:48.383 -0400,11285.172342875,0.52618408203125,0.4245758056640625,-0.27667236328125,1,0.95
2020-05-16 12:45:48.448 -0400,11285.237316875,0.6669158935546875,0.065826416015625,-0.1052703857421875,1,0.95
2020-05-16 12:45:48.512 -0400,11285.302291875,0.8533935546875,0.172332763671875,-0.0986480712890625,1,0.95
2020-05-16 12:45:48.578 -0400,11285.367266875,1.383758544921875,0.45526123046875,-0.12603759765625,1,0.95
2020-05-16 12:45:48.642 -0400,11285.432240875,1.690750122070312,0.5554046630859375,-0.032806396484375,1,0.95
2020-05-16 12:45:48.707 -0400,11285.497215875,1.465667724609375,0.1929168701171875,0.076385498046875,1,0.95
2020-05-16 12:45:48.772 -0400,11285.562189875,0.9424591064453125,0.3299407958984375,-0.148101806640625,1,0.95
2020-05-16 12:45:48.837 -0400,11285.627164875,0.48919677734375,0.2563629150390625,-0.0086212158203125,1,0.95
2020-05-16 12:45:48.902 -0400,11285.69213879167,0.3947296142578125,0.137298583984375,0.0465087890625,1,0.95
2020-05-16 12:45:48.967 -0400,11285.75711379167,0.7963714599609375,0.2376251220703125,0.003265380859375,1,0.95
2020-05-16 12:45:49.032 -0400,11285.82208779167,1.190658569335938,0.2998199462890625,0.1186065673828125,1,0.95
2020-05-16 12:45:49.097 -0400,11285.88706279167,1.311553955078125,0.3824920654296875,0.11090087890625,1,0.95
2020-05-16 12:45:49.162 -0400,11285.95203779167,1.0289306640625,0.552734375,-0.1312103271484375,1,0.95
2020-05-16 12:45:49.227 -0400,11286.01701179167,1.320083618164062,0.5828704833984375,-0.398651123046875,1,0.95
2020-05-16 12:45:49.292 -0400,11286.08198679167,1.471939086914062,0.038818359375,-0.1160125732421875,1,0.95
2020-05-16 12:45:49.357 -0400,11286.14696079167,0.764556884765625,0.052825927734375,-0.4469451904296875,1,0.95
2020-05-16 12:45:49.424 -0400,11286.21193579167,0.6361846923828125,0.0781097412109375,-0.290618896484375,1,0.95
2020-05-16 12:45:49.489 -0400,11286.27690979167,0.6675262451171875,0.1027069091796875,-0.135040283203125,1,0.95
2020-05-16 12:45:49.552 -0400,11286.34188479167,0.744354248046875,0.17083740234375,-0.0740509033203125,1,0.95
2020-05-16 12:45:49.617 -0400,11286.40685879167,0.785736083984375,0.273590087890625,-0.0697174072265625,1,0.95
2020-05-16 12:45:49.682 -0400,11286.47183379167,0.890228271484375,0.4701385498046875,-0.1870880126953125,1,0.95
2020-05-16 12:45:49.747 -0400,11286.53680879167,1.172317504882812,0.435882568359375,-0.202728271484375,1,0.95
2020-05-16 12:45:49.812 -0400,11286.60178279167,1.436935424804688,0.49444580078125,-0.1986846923828125,1,0.95
2020-05-16 12:45:49.877 -0400,11286.66675779167,1.422119140625,0.30218505859375,-0.12664794921875,1,0.95
2020-05-16 12:45:49.942 -0400,11286.73173191667,1.241683959960938,0.176788330078125,-0.0565643310546875,1,0.95
2020-05-16 12:45:50.007 -0400,11286.79670691667,0.7886810302734375,0.183868408203125,0.078369140625,1,0.95
2020-05-16 12:45:50.072 -0400,11286.86168091667,0.5940093994140625,0.1906280517578125,0.11346435546875,1,0.95
2020-05-16 12:45:50.137 -0400,11286.92665591667,0.6807098388671875,0.138702392578125,0.20684814453125,1,0.95
2020-05-16 12:45:50.202 -0400,11286.99162991667,0.6758575439453125,0.128143310546875,0.1591033935546875,1,0.95
2020-05-16 12:45:50.267 -0400,11287.05660491667,0.670501708984375,0.2048187255859375,-0.004669189453125,1,0.95
2020-05-16 12:45:50.338 -0400,11287.12157991667,0.533355712890625,0.2324981689453125,-0.1002349853515625,1,0.95
2020-05-16 12:45:50.397 -0400,11287.18655391667,0.5442047119140625,0.24383544921875,-0.2585601806640625,1,0.95
2020-05-16 12:45:50.462 -0400,11287.25152891667,2.382797241210938,0.5102386474609375,-0.4211273193359375,1,0.95
2020-05-16 12:45:50.527 -0400,11287.31650291667,2.107711791992188,0.3797454833984375,-0.3125762939453125,1,0.95
2020-05-16 12:45:50.592 -0400,11287.38147791667,0.8773193359375,0.128662109375,-0.2446136474609375,1,0.95
2020-05-16 12:45:50.657 -0400,11287.44645191667,0.6006622314453125,0.428253173828125,-0.250091552734375,1,0.95
2020-05-16 12:45:50.722 -0400,11287.51142691667,0.4600982666015625,0.3247528076171875,-0.16375732421875,1,0.95
2020-05-16 12:45:50.787 -0400,11287.57640091667,0.286956787109375,0.3448638916015625,-0.2017059326171875,1,0.95
2020-05-16 12:45:50.852 -0400,11287.64137591667,0.53363037109375,0.38232421875,-0.2851715087890625,1,0.95
2020-05-16 12:45:50.917 -0400,11287.70635025,1.449981689453125,0.3162384033203125,-0.1895904541015625,1,0.95
2020-05-16 12:45:50.981 -0400,11287.77132425,2.178985595703125,0.2567596435546875,0.1521453857421875,1,0.95
2020-05-16 12:45:51.047 -0400,11287.83629925,1.8160400390625,0.5359039306640625,-0.2446136474609375,1,0.95
2020-05-16 12:45:51.111 -0400,11287.90127325,1.042770385742188,0.366851806640625,-0.076934814453125,1,0.95
2020-05-16 12:45:51.177 -0400,11287.96624825,0.675079345703125,0.240631103515625,0.0546722412109375,1,0.95
2020-05-16 12:45:51.241 -0400,11288.03122225,0.524322509765625,0.11004638671875,0.0535430908203125,1,0.95
2020-05-16 12:45:51.307 -0400,11288.09619725,0.58111572265625,0.1041717529296875,0.0383148193359375,1,0.95
2020-05-16 12:45:51.371 -0400,11288.16117125,0.6022796630859375,0.2184295654296875,0.0726318359375,1,0.95
2020-05-16 12:45:51.437 -0400,11288.22614625,0.5867919921875,0.3655548095703125,-0.0569000244140625,1,0.95
2020-05-16 12:45:51.501 -0400,11288.29112125,1.534683227539062,0.5185546875,-0.2005615234375,1,0.95
2020-05-16 12:45:51.566 -0400,11288.35609525,2.037078857421875,0.76116943359375,-0.5512542724609375,1,0.95
2020-05-16 12:45:51.631 -0400,11288.42107025,0.9892120361328125,0.292816162109375,-0.2700347900390625,1,0.95
2020-05-16 12:45:51.696 -0400,11288.48604425,0.5740966796875,0.31256103515625,-0.2652435302734375,1,0.95
2020-05-16 12:45:51.761 -0400,11288.55101925,0.44970703125,0.4323272705078125,-0.3054351806640625,1,0.95
2020-05-16 12:45:51.826 -0400,11288.61599325,0.8102264404296875,0.4996337890625,-0.441009521484375,1,0.95
2020-05-16 12:45:51.891 -0400,11288.68096875,0.9341888427734375,0.2799224853515625,-0.3326416015625,1,0.95
2020-05-16 12:45:51.956 -0400,11288.74594275,1.114166259765625,0.24530029296875,-0.274658203125,1,0.95
2020-05-16 12:45:52.021 -0400,11288.81091775,1.030593872070312,0.37103271484375,-0.309722900390625,1,0.95
2020-05-16 12:45:52.086 -0400,11288.87589275,0.6744384765625,0.209808349609375,-0.2271881103515625,1,0.95
2020-05-16 12:45:52.151 -0400,11288.94086675,0.3737030029296875,0.2342071533203125,-0.1483001708984375,1,0.95
2020-05-16 12:45:52.216 -0400,11289.00584175,0.23065185546875,0.2839813232421875,-0.1494293212890625,1,0.95
2020-05-16 12:45:52.293 -0400,11289.07081575,0.6822662353515625,0.302215576171875,-0.2516632080078125,1,0.95
2020-05-16 12:45:52.346 -0400,11289.13579075,2.9569091796875,0.8265838623046875,-0.0948486328125,1,0.95
2020-05-16 12:45:52.411 -0400,11289.20076475,1.676727294921875,0.4705352783203125,-0.6769256591796875,1,0.95
2020-05-16 12:45:52.476 -0400,11289.26573975,0.88824462890625,0.32513427734375,-0.1902923583984375,1,0.95
2020-05-16 12:45:52.541 -0400,11289.33071375,0.56353759765625,0.3742828369140625,-0.1676483154296875,1,0.95
2020-05-16 12:45:52.606 -0400,11289.39568875,0.473419189453125,0.2550048828125,-0.0626068115234375,1,0.95
2020-05-16 12:45:52.671 -0400,11289.46066275,0.539764404296875,0.201446533203125,0.0051422119140625,1,0.95
2020-05-16 12:45:52.736 -0400,11289.52563775,0.8270263671875,0.300872802734375,0.186767578125,1,0.95
2020-05-16 12:45:52.801 -0400,11289.59061275,0.7459716796875,0.5184173583984375,0.0977783203125,1,0.95
2020-05-16 12:45:52.866 -0400,11289.65558675,1.522384643554688,0.6758270263671875,-0.1275787353515625,1,0.95
2020-05-16 12:45:52.931 -0400,11289.720561125,1.425140380859375,0.7865753173828125,-0.821868896484375,1,0.95
2020-05-16 12:45:52.996 -0400,11289.785535125,1.012802124023438,0.1778564453125,-0.35296630859375,1,0.95
2020-05-16 12:45:53.061 -0400,11289.850510125,0.593597412109375,0.026611328125,-0.47491455078125,1,0.95
2020-05-16 12:45:53.126 -0400,11289.915484125,0.4210052490234375,0.4268951416015625,-0.620758056640625,1,0.95
2020-05-16 12:45:53.191 -0400,11289.980459125,0.389617919921875,0.2371063232421875,-0.408843994140625,1,0.95
2020-05-16 12:45:53.256 -0400,11290.045433125,0.915069580078125,0.1656036376953125,-0.3451995849609375,1,0.95
2020-05-16 12:45:53.321 -0400,11290.110408125,1.22723388671875,0.21942138671875,-0.14019775390625,1,0.95
2020-05-16 12:45:53.386 -0400,11290.175382125,0.9084930419921875,0.3197479248046875,0.035675048828125,1,0.95
2020-05-16 12:45:53.450 -0400,11290.240357125,0.6128387451171875,0.5141754150390625,-0.0929107666015625,1,0.95
2020-05-16 12:45:53.516 -0400,11290.305332125,0.7566986083984375,0.51416015625,-0.04644775390625,1,0.95
2020-05-16 12:45:53.580 -0400,11290.370306125,1.719268798828125,0.7061309814453125,0.1553802490234375,1,0.95
2020-05-16 12:45:53.646 -0400,11290.435281125,1.325210571289062,0.5603179931640625,-0.566162109375,1,0.95
2020-05-16 12:45:53.710 -0400,11290.500255125,1.042312622070312,0.4626312255859375,-0.2255401611328125,1,0.95
2020-05-16 12:45:53.776 -0400,11290.565230125,0.699554443359375,0.270843505859375,-0.0973052978515625,1,0.95
2020-05-16 12:45:53.840 -0400,11290.630204125,0.5871429443359375,0.2382049560546875,-0.1571197509765625,1,0.95
2020-05-16 12:45:53.905 -0400,11290.69517925,0.4942779541015625,0.2549285888671875,-0.082244873046875,1,0.95
2020-05-16 12:45:53.970 -0400,11290.76015325,0.5384979248046875,0.24755859375,0.0217132568359375,1,0.95
2020-05-16 12:45:54.035 -0400,11290.82512825,1.578887939453125,0.41339111328125,0.1595916748046875,1,0.95
2020-05-16 12:45:54.100 -0400,11290.89010325,1.43890380859375,0.82733154296875,-0.3207855224609375,1,0.95
2020-05-16 12:45:54.165 -0400,11290.95507725,1.624176025390625,0.730865478515625,-0.8009796142578125,1,0.95
2020-05-16 12:45:54.230 -0400,11291.02005225,0.907684326171875,0.171356201171875,-0.223785400390625,1,0.95
2020-05-16 12:45:54.295 -0400,11291.08502625,0.60784912109375,0.420440673828125,-0.436370849609375,1,0.95
2020-05-16 12:45:54.360 -0400,11291.15000125,0.59771728515625,0.63067626953125,-0.4246368408203125,1,0.95
2020-05-16 12:45:54.425 -0400,11291.21497525,0.6829681396484375,0.4334716796875,-0.3471832275390625,1,0.95
2020-05-16 12:45:54.490 -0400,11291.27995025,0.765777587890625,0.443817138671875,-0.341064453125,1,0.95
2020-05-16 12:45:54.555 -0400,11291.34492425,0.88037109375,0.405792236328125,-0.34100341796875,1,0.95
2020-05-16 12:45:54.620 -0400,11291.40989925,0.95989990234375,0.4102783203125,-0.2321624755859375,1,0.95
2020-05-16 12:45:54.685 -0400,11291.47487325,1.063003540039062,0.4394378662109375,-0.2338714599609375,1,0.95
2020-05-16 12:45:54.750 -0400,11291.53984825,1.916839599609375,0.6006927490234375,-0.27899169921875,1,0.95
2020-05-16 12:45:54.815 -0400,11291.60482325,1.192642211914062,0.2764129638671875,-0.1811676025390625,1,0.95
2020-05-16 12:45:54.880 -0400,11291.66979725,1.008560180664062,0.3377532958984375,-0.1176605224609375,1,0.95
2020-05-16 12:45:54.945 -0400,11291.73477204167,0.784149169921875,0.3200836181640625,-0.143280029296875,1,0.95
2020-05-16 12:45:55.010 -0400,11291.79974604167,0.64947509765625,0.2148590087890625,-0.091064453125,1,0.95
2020-05-16 12:45:55.075 -0400,11291.86472104167,0.5180816650390625,0.1402435302734375,-0.0381927490234375,1,0.95
2020-05-16 12:45:55.140 -0400,11291.92969504167,0.3204498291015625,0.1700286865234375,-0.0876312255859375,1,0.95
2020-05-16 12:45:55.205 -0400,11291.99467004167,0.468170166015625,0.25726318359375,-0.0898590087890625,1,0.95
2020-05-16 12:45:55.270 -0400,11292.05964404167,1.541671752929688,0.4528656005859375,-0.14080810546875,1,0.95
2020-05-16 12:45:55.335 -0400,11292.12461904167,1.05194091796875,0.68505859375,-0.456817626953125,1,0.95
2020-05-16 12:45:55.400 -0400,11292.18959404167,0.1443023681640625,0.0116424560546875,-0.072021484375,1,0.95
2020-05-16 12:45:55.465 -0400,11292.25456804167,3.209518432617188,2.277969360351562,-2.77093505859375,1,0.95
2020-05-16 12:45:55.530 -0400,11292.31954304167,1.156509399414062,0.6284637451171875,-0.637298583984375,1,0.95
2020-05-16 12:45:55.595 -0400,11292.38451704167,1.8416748046875,0.9052581787109375,-0.0684814453125,1,0.95
2020-05-16 12:45:55.660 -0400,11292.44949204167,1.5595703125,0.3950653076171875,0.1552581787109375,1,0.95
2020-05-16 12:45:55.725 -0400,11292.51446604167,1.155715942382812,0.48291015625,0.131866455078125,1,0.95
2020-05-16 12:45:55.790 -0400,11292.57944104167,0.93853759765625,0.4445648193359375,-0.03741455078125,1,0.95
2020-05-16 12:45:55.855 -0400,11292.64441504167,0.73052978515625,0.328033447265625,-0.0775146484375,1,0.95
2020-05-16 12:45:55.920 -0400,11292.709390875,0.6133270263671875,0.2493133544921875,-0.08892822265625,1,0.95
2020-05-16 12:45:55.985 -0400,11292.774365875,0.6489410400390625,0.1682586669921875,-0.0392608642578125,1,0.95
2020-05-16 12:45:56.049 -0400,11292.839339875,0.7825469970703125,0.3155670166015625,-0.2462615966796875,1,0.95
2020-05-16 12:45:56.114 -0400,11292.904314875,1.116531372070312,0.399200439453125,-0.157958984375,1,0.95
2020-05-16 12:45:56.179 -0400,11292.969288875,1.424728393554688,0.5853271484375,-0.3957366943359375,1,0.95
2020-05-16 12:45:56.244 -0400,11293.034263875,1.021820068359375,0.818206787109375,-0.3767852783203125,1,0.95
2020-05-16 12:45:56.309 -0400,11293.099237875,1.919387817382812,0.843719482421875,-0.172119140625,1,0.95
2020-05-16 12:45:56.375 -0400,11293.164212875,0.9546966552734375,0.5220184326171875,0.0009307861328125,1,0.95
2020-05-16 12:45:56.439 -0400,11293.229186875,0.4250335693359375,0.4185333251953125,-0.158111572265625,1,0.95
2020-05-16 12:45:56.504 -0400,11293.294161875,0.5027008056640625,0.4342803955078125,0.0167388916015625,1,0.95
2020-05-16 12:45:56.569 -0400,11293.359135875,0.7348175048828125,0.308349609375,0.048583984375,1,0.95
2020-05-16 12:45:56.634 -0400,11293.424110875,0.709808349609375,0.454620361328125,-0.04803466796875,1,0.95
2020-05-16 12:45:56.699 -0400,11293.489085875,0.919219970703125,0.6330413818359375,-0.208099365234375,1,0.95
2020-05-16 12:45:56.764 -0400,11293.554059875,0.9637451171875,0.4038848876953125,-0.183074951171875,1,0.95
2020-05-16 12:45:56.829 -0400,11293.619034875,0.753936767578125,0.102081298828125,-0.3431854248046875,1,0.95
2020-05-16 12:45:56.894 -0400,11293.68400825,0.686553955078125,-0.320281982421875,-0.597625732421875,1,0.95
2020-05-16 12:45:56.959 -0400,11293.74898325,0.921722412109375,0.3695526123046875,-0.2082672119140625,1,0.95
2020-05-16 12:45:57.024 -0400,11293.81395725,2.090301513671875,0.957672119140625,-0.2628631591796875,1,0.95
2020-05-16 12:45:57.089 -0400,11293.87893225,1.478775024414062,0.569427490234375,-0.0655517578125,1,0.95
2020-05-16 12:45:57.154 -0400,11293.94390625,1.04443359375,0.4125823974609375,-0.213775634765625,1,0.95
2020-05-16 12:45:57.219 -0400,11294.00888125,0.60302734375,0.44073486328125,-0.0986785888671875,1,0.95
2020-05-16 12:45:57.286 -0400,11294.07385525,0.5240325927734375,0.26812744140625,-0.1094512939453125,1,0.95
2020-05-16 12:45:57.349 -0400,11294.13883025,0.5150299072265625,0.1439361572265625,0.0010528564453125,1,0.95
2020-05-16 12:45:57.414 -0400,11294.20380525,0.6365814208984375,0.1906585693359375,0.1057281494140625,1,0.95
2020-05-16 12:45:57.479 -0400,11294.26877925,1.103240966796875,0.2942352294921875,0.2131805419921875,1,0.95
2020-05-16 12:45:57.544 -0400,11294.33375425,1.771820068359375,1.245529174804688,-0.4255828857421875,1,0.95
2020-05-16 12:45:57.609 -0400,11294.39872825,1.244644165039062,0.65576171875,-0.9390106201171875,1,0.95
2020-05-16 12:45:57.674 -0400,11294.46370325,0.8562469482421875,0.0598297119140625,0.0137481689453125,1,0.95
2020-05-16 12:45:57.739 -0400,11294.52867725,0.5291595458984375,0.2046051025390625,-0.31903076171875,1,0.95
2020-05-16 12:45:57.804 -0400,11294.59365225,0.572479248046875,0.328887939453125,-0.3602142333984375,1,0.95
2020-05-16 12:45:57.869 -0400,11294.65862625,0.977996826171875,0.410308837890625,-0.3890228271484375,1,0.95
2020-05-16 12:45:57.934 -0400,11294.723600875,1.045333862304688,0.3294219970703125,-0.222015380859375,1,0.95
2020-05-16 12:45:57.999 -0400,11294.788575875,0.849151611328125,0.3883819580078125,-0.288848876953125,1,0.95
2020-05-16 12:45:58.064 -0400,11294.853549875,1.142013549804688,0.3713531494140625,-0.331573486328125,1,0.95
2020-05-16 12:45:58.129 -0400,11294.918524875,1.090118408203125,0.2737274169921875,-0.2111663818359375,1,0.95
2020-05-16 12:45:58.194 -0400,11294.983498875,1.3841552734375,0.348602294921875,-0.0236053466796875,1,0.95
2020-05-16 12:45:58.259 -0400,11295.048473875,1.11187744140625,0.249481201171875,0.070068359375,1,0.95
2020-05-16 12:45:58.324 -0400,11295.113447875,0.596221923828125,0.4317169189453125,-0.135040283203125,1,0.95
2020-05-16 12:45:58.389 -0400,11295.178422875,0.4508056640625,0.2945404052734375,-0.0024566650390625,1,0.95
2020-05-16 12:45:58.454 -0400,11295.243396875,0.381927490234375,0.1548004150390625,0.048736572265625,1,0.95
2020-05-16 12:45:58.518 -0400,11295.308371875,0.5445556640625,0.1165618896484375,0.0854339599609375,1,0.95
2020-05-16 12:45:58.584 -0400,11295.373345875,1.621688842773438,0.35284423828125,0.28045654296875,1,0.95
2020-05-16 12:45:58.648 -0400,11295.438320875,1.816452026367188,1.1387939453125,-0.60980224609375,1,0.95
2020-05-16 12:45:58.714 -0400,11295.503295875,1.137527465820312,0.8893890380859375,-0.4173583984375,1,0.95
2020-05-16 12:45:58.778 -0400,11295.568269875,0.8504486083984375,0.2231597900390625,-0.2164764404296875,1,0.95
2020-05-16 12:45:58.844 -0400,11295.633244875,0.6078643798828125,0.127685546875,-0.33587646484375,1,0.95
2020-05-16 12:45:58.908 -0400,11295.69821979167,0.5404815673828125,0.4119110107421875,-0.53424072265625,1,0.95
2020-05-16 12:45:58.974 -0400,11295.76319479167,0.7063751220703125,0.4515838623046875,-0.5301666259765625,1,0.95
2020-05-16 12:45:59.038 -0400,11295.82816879167,1.073165893554688,0.308502197265625,-0.3674163818359375,1,0.95
2020-05-16 12:45:59.104 -0400,11295.89314379167,1.3515625,0.2790374755859375,-0.184112548828125,1,0.95
2020-05-16 12:45:59.168 -0400,11295.95811879167,1.691619873046875,0.3565673828125,-0.136077880859375,1,0.95
2020-05-16 12:45:59.250 -0400,11296.02309279167,1.0546875,0.3506927490234375,-0.1969146728515625,1,0.95
2020-05-16 12:45:59.299 -0400,11296.08806779167,1.184738159179688,0.5231475830078125,-0.0752105712890625,1,0.95
2020-05-16 12:45:59.363 -0400,11296.15304179167,0.80511474609375,0.323211669921875,-0.0697021484375,1,0.95
2020-05-16 12:45:59.428 -0400,11296.21801679167,0.6728057861328125,0.24761962890625,-0.0654754638671875,1,0.95
2020-05-16 12:45:59.493 -0400,11296.28299079167,0.6818389892578125,0.2313385009765625,-0.00537109375,1,0.95
2020-05-16 12:45:59.558 -0400,11296.34796579167,0.64794921875,0.3055419921875,-0.007354736328125,1,0.95
2020-05-16 12:45:59.623 -0400,11296.41294079167,0.889404296875,0.4248199462890625,-0.02764892578125,1,0.95
2020-05-16 12:45:59.688 -0400,11296.47791479167,0.68536376953125,0.4651641845703125,-0.1582183837890625,1,0.95
2020-05-16 12:45:59.753 -0400,11296.54288979167,0.8241424560546875,0.395721435546875,-0.1206512451171875,1,0.95
2020-05-16 12:45:59.818 -0400,11296.60786379167,2.0303955078125,0.4355010986328125,-0.062530517578125,1,0.95
2020-05-16 12:45:59.883 -0400,11296.67283879167,1.019302368164062,0.6115570068359375,-0.3067779541015625,1,0.95
2020-05-16 12:45:59.948 -0400,11296.73781325,0.7730712890625,0.5635223388671875,-0.4001617431640625,1,0.95
2020-05-16 12:46:00.013 -0400,11296.80278725,0.9004669189453125,0.2381744384765625,-0.2074737548828125,1,0.95
2020-05-16 12:46:00.078 -0400,11296.86776225,0.7115631103515625,0.1059417724609375,-0.3804168701171875,1,0.95
2020-05-16 12:46:00.143 -0400,11296.93273625,0.827545166015625,0.1627655029296875,-0.261260986328125,1,0.95
2020-05-16 12:46:00.208 -0400,11296.99771125,1.011505126953125,0.3722686767578125,-0.2936248779296875,1,0.95
2020-05-16 12:46:00.273 -0400,11297.06268625,0.842315673828125,0.242156982421875,-0.2567138671875,1,0.95
2020-05-16 12:46:00.338 -0400,11297.12766025,0.8799285888671875,0.313751220703125,-0.27197265625,1,0.95
2020-05-16 12:46:00.403 -0400,11297.19263525,0.7716064453125,0.3178863525390625,-0.177581787109375,1,0.95
2020-05-16 12:46:00.468 -0400,11297.25760925,1.083984375,0.3728179931640625,-0.1428985595703125,1,0.95
2020-05-16 12:46:00.533 -0400,11297.32258425,0.8725128173828125,0.3612518310546875,-0.119873046875,1,0.95
2020-05-16 12:46:00.598 -0400,11297.38755925,0.9123382568359375,0.4092864990234375,-0.1077728271484375,1,0.95
2020-05-16 12:46:00.664 -0400,11297.45253325,1.221359252929688,0.434112548828125,-0.0836944580078125,1,0.95
2020-05-16 12:46:00.728 -0400,11297.51750825,1.006301879882812,0.3419036865234375,-0.1049957275390625,1,0.95
2020-05-16 12:46:00.793 -0400,11297.58248325,0.878692626953125,0.363494873046875,-0.1133575439453125,1,0.95
2020-05-16 12:46:00.858 -0400,11297.64745725,0.811553955078125,0.3142852783203125,-0.1143341064453125,1,0.95
2020-05-16 12:46:00.923 -0400,11297.71243275,0.7779693603515625,0.3124237060546875,-0.0788421630859375,1,0.95
2020-05-16 12:46:00.987 -0400,11297.77740675,0.981201171875,0.3614501953125,0.0191192626953125,1,0.95
2020-05-16 12:46:01.053 -0400,11297.84238175,0.9203033447265625,0.522064208984375,-0.021087646484375,1,0.95
2020-05-16 12:46:01.118 -0400,11297.90735675,0.968109130859375,0.7447052001953125,-0.24127197265625,1,0.95
2020-05-16 12:46:01.183 -0400,11297.97233075,0.9711456298828125,0.4925537109375,-0.1384735107421875,1,0.95
2020-05-16 12:46:01.247 -0400,11298.03730575,0.9375,0.2152099609375,-0.09124755859375,1,0.95
2020-05-16 12:46:01.313 -0400,11298.10228075,0.7926483154296875,0.3488311767578125,-0.11993408203125,1,0.95
2020-05-16 12:46:01.377 -0400,11298.16725475,0.8924560546875,0.4797821044921875,-0.137969970703125,1,0.95
2020-05-16 12:46:01.443 -0400,11298.23222975,0.9696807861328125,0.3989105224609375,-0.0410003662109375,1,0.95
2020-05-16 12:46:01.507 -0400,11298.29720475,1.077285766601562,0.472137451171875,-0.121002197265625,1,0.95
2020-05-16 12:46:01.572 -0400,11298.36217875,0.931304931640625,0.50006103515625,-0.3187408447265625,1,0.95
2020-05-16 12:46:01.637 -0400,11298.42715375,0.926116943359375,0.370269775390625,-0.2984619140625,1,0.95
2020-05-16 12:46:01.702 -0400,11298.49212875,0.6390533447265625,0.2391510009765625,-0.27410888671875,1,0.95
2020-05-16 12:46:01.767 -0400,11298.55710275,0.5288238525390625,0.4456634521484375,-0.3779449462890625,1,0.95
2020-05-16 12:46:01.832 -0400,11298.62207775,0.6840057373046875,0.35601806640625,-0.2620849609375,1,0.95
2020-05-16 12:46:01.897 -0400,11298.68705275,0.9479217529296875,0.2136077880859375,-0.03094482421875,1,0.95
2020-05-16 12:46:01.962 -0400,11298.75202675,0.92572021484375,0.2753143310546875,0.07476806640625,1,0.95
2020-05-16 12:46:02.027 -0400,11298.81700175,1.299774169921875,0.4432830810546875,0.0245361328125,1,0.95
2020-05-16 12:46:02.092 -0400,11298.88197675,1.159988403320312,0.3656005859375,0.0759735107421875,1,0.95
2020-05-16 12:46:02.157 -0400,11298.94695175,1.0687255859375,0.4181671142578125,-0.034576416015625,1,0.95
2020-05-16 12:46:02.222 -0400,11299.01192575,0.8191070556640625,0.4221038818359375,-0.12713623046875,1,0.95
2020-05-16 12:46:02.287 -0400,11299.07690075,0.7677001953125,0.2721405029296875,-0.1068572998046875,1,0.95
2020-05-16 12:46:02.352 -0400,11299.14187575,0.866912841796875,0.42767333984375,-0.0574493408203125,1,0.95
2020-05-16 12:46:02.417 -0400,11299.20684975,1.038314819335938,0.3426666259765625,0.1014862060546875,1,0.95
2020-05-16 12:46:02.482 -0400,11299.27182475,0.9372711181640625,0.404632568359375,0.110748291015625,1,0.95
2020-05-16 12:46:02.547 -0400,11299.33679975,0.8713531494140625,0.472747802734375,0.0780487060546875,1,0.95
2020-05-16 12:46:02.612 -0400,11299.40177375,1.099945068359375,0.383758544921875,0.236480712890625,1,0.95
2020-05-16 12:46:02.677 -0400,11299.46674875,1.035842895507812,0.4334716796875,0.2011871337890625,1,0.95
2020-05-16 12:46:02.742 -0400,11299.53172375,1.005844116210938,0.5696258544921875,-0.1340179443359375,1,0.95
2020-05-16 12:46:02.807 -0400,11299.59669875,1.01666259765625,0.5985260009765625,-0.35675048828125,1,0.95
2020-05-16 12:46:02.872 -0400,11299.66167275,0.9364013671875,-0.854156494140625,-0.7353363037109375,1,0.95
2020-05-16 12:46:02.937 -0400,11299.72664779167,0.8571624755859375,0.2847442626953125,-0.375030517578125,1,0.95
2020-05-16 12:46:03.002 -0400,11299.79162279167,0.9959259033203125,0.29388427734375,-0.2234344482421875,1,0.95
2020-05-16 12:46:03.067 -0400,11299.85659779167,0.88092041015625,0.4630584716796875,-0.1545562744140625,1,0.95
2020-05-16 12:46:03.132 -0400,11299.92157179167,0.88336181640625,0.3828277587890625,-0.1125640869140625,1,0.95
2020-05-16 12:46:03.197 -0400,11299.98654679167,0.851715087890625,0.29644775390625,-0.10174560546875,1,0.95
2020-05-16 12:46:03.262 -0400,11300.05152179167,0.8489990234375,0.3694000244140625,-0.1118927001953125,1,0.95
2020-05-16 12:46:03.327 -0400,11300.11649679167,0.9168853759765625,0.353118896484375,-0.10113525390625,1,0.95
2020-05-16 12:46:03.392 -0400,11300.18147079167,0.879669189453125,0.375946044921875,-0.1258544921875,1,0.95
2020-05-16 12:46:03.456 -0400,11300.24644579167,1.021575927734375,0.4165191650390625,-0.165924072265625,1,0.95
2020-05-16 12:46:03.522 -0400,11300.31142079167,0.989776611328125,0.268463134765625,-0.191802978515625,1,0.95
2020-05-16 12:46:03.586 -0400,11300.37639579167,0.920440673828125,0.367095947265625,-0.139739990234375,1,0.95
2020-05-16 12:46:03.652 -0400,11300.44136979167,0.9756622314453125,0.38726806640625,-0.0525665283203125,1,0.95
2020-05-16 12:46:03.716 -0400,11300.50634479167,0.8800048828125,0.345062255859375,-0.074737548828125,1,0.95
2020-05-16 12:46:03.782 -0400,11300.57131979167,0.793212890625,0.3751983642578125,-0.0440673828125,1,0.95
2020-05-16 12:46:03.846 -0400,11300.63629479167,0.9122161865234375,0.38720703125,-0.0245513916015625,1,0.95
2020-05-16 12:46:03.912 -0400,11300.70126829167,0.9513702392578125,0.40643310546875,-0.0500335693359375,1,0.95
2020-05-16 12:46:03.976 -0400,11300.76624329167,1.096511840820312,0.4647369384765625,-0.0827789306640625,1,0.95
2020-05-16 12:46:04.041 -0400,11300.83121829167,0.9421539306640625,0.442718505859375,-0.1791229248046875,1,0.95
2020-05-16 12:46:04.106 -0400,11300.89619329167,0.9075927734375,0.40496826171875,-0.3190765380859375,1,0.95
2020-05-16 12:46:04.172 -0400,11300.96116729167,0.758697509765625,0.269195556640625,-0.268585205078125,1,0.95
2020-05-16 12:46:04.236 -0400,11301.02614229167,0.8053131103515625,0.35272216796875,-0.1578521728515625,1,0.95
2020-05-16 12:46:04.302 -0400,11301.09111729167,0.9149017333984375,0.360107421875,-0.04913330078125,1,0.95
2020-05-16 12:46:04.366 -0400,11301.15609229167,0.731109619140625,0.35174560546875,-0.0895538330078125,1,0.95
2020-05-16 12:46:04.431 -0400,11301.22106729167,0.631072998046875,0.380584716796875,-0.10516357421875,1,0.95
2020-05-16 12:46:04.496 -0400,11301.28604129167,0.7759857177734375,0.4250335693359375,-0.1633758544921875,1,0.95
2020-05-16 12:46:04.561 -0400,11301.35101629167,1.0560302734375,0.4999237060546875,-0.119659423828125,1,0.95
2020-05-16 12:46:04.626 -0400,11301.41599129167,0.86358642578125,0.5553741455078125,-0.1646575927734375,1,0.95
2020-05-16 12:46:04.691 -0400,11301.48096629167,0.42919921875,0.483062744140625,-0.147308349609375,1,0.95
2020-05-16 12:46:04.756 -0400,11301.54594029167,1.3541259765625,0.6764373779296875,-0.0275421142578125,1,0.95
2020-05-16 12:46:04.821 -0400,11301.61091529167,1.619400024414062,0.478729248046875,0.0860137939453125,1,0.95
2020-05-16 12:46:04.886 -0400,11301.67589029167,1.044647216796875,0.534759521484375,-0.2566070556640625,1,0.95
2020-05-16 12:46:04.951 -0400,11301.74086566667,0.6751708984375,0.217803955078125,-0.226806640625,1,0.95
2020-05-16 12:46:05.016 -0400,11301.80584066667,0.5750579833984375,0.2898101806640625,-0.2076416015625,1,0.95
2020-05-16 12:46:05.081 -0400,11301.87081566667,0.915191650390625,0.50604248046875,0.0621185302734375,1,0.95
2020-05-16 12:46:05.146 -0400,11301.93578966667,1.494766235351562,0.4484100341796875,0.2073211669921875,1,0.95
2020-05-16 12:46:05.211 -0400,11302.00076466667,0.911163330078125,0.7259368896484375,-0.33367919921875,1,0.95
2020-05-16 12:46:05.276 -0400,11302.06573966667,1.032455444335938,0.8313751220703125,-0.528106689453125,1,0.95
2020-05-16 12:46:05.341 -0400,11302.13071466667,0.83599853515625,-0.0080413818359375,-0.2762451171875,1,0.95
2020-05-16 12:46:05.406 -0400,11302.19568966667,0.6861419677734375,0.490081787109375,-0.0322723388671875,1,0.95
2020-05-16 12:46:05.471 -0400,11302.26066366667,0.5045013427734375,0.4512786865234375,0.0132904052734375,1,0.95
2020-05-16 12:46:05.536 -0400,11302.32563866667,0.3869781494140625,0.435333251953125,0.0226287841796875,1,0.95
2020-05-16 12:46:05.601 -0400,11302.39061366667,0.4586639404296875,0.722259521484375,-0.242431640625,1,0.95
2020-05-16 12:46:05.666 -0400,11302.45558866667,0.7144012451171875,1.097702026367188,-0.715728759765625,1,0.95
2020-05-16 12:46:05.731 -0400,11302.52056366667,0.732940673828125,1.080917358398438,-0.458038330078125,1,0.95
2020-05-16 12:46:05.796 -0400,11302.58553766667,1.137008666992188,0.86920166015625,0.0212249755859375,1,0.95
2020-05-16 12:46:05.861 -0400,11302.65051266667,1.048797607421875,0.6455078125,0.3511962890625,1,0.95
2020-05-16 12:46:05.926 -0400,11302.715487125,0.9410247802734375,0.4908447265625,0.4075775146484375,1,0.95
2020-05-16 12:46:05.991 -0400,11302.780462125,0.9668121337890625,0.6429290771484375,0.2879486083984375,1,0.95
2020-05-16 12:46:06.055 -0400,11302.845437125,0.8370208740234375,0.5709228515625,0.1360015869140625,1,0.95
2020-05-16 12:46:06.121 -0400,11302.910412125,0.5751800537109375,0.4808197021484375,0.0228118896484375,1,0.95
2020-05-16 12:46:06.185 -0400,11302.975386125,0.5277862548828125,0.5276641845703125,-0.066741943359375,1,0.95
2020-05-16 12:46:06.251 -0400,11303.040361125,0.6371307373046875,0.559814453125,-0.1381378173828125,1,0.95
2020-05-16 12:46:06.316 -0400,11303.105336125,0.715179443359375,0.4273681640625,-0.177978515625,1,0.95
2020-05-16 12:46:06.381 -0400,11303.170311125,0.7496795654296875,0.3739166259765625,-0.1799163818359375,1,0.95
2020-05-16 12:46:06.445 -0400,11303.235286125,0.855133056640625,0.3794097900390625,-0.1391754150390625,1,0.95
2020-05-16 12:46:06.511 -0400,11303.300261125,1.05322265625,0.3914794921875,-0.0990447998046875,1,0.95
2020-05-16 12:46:06.575 -0400,11303.365235125,2.274978637695312,0.595428466796875,0.0215301513671875,1,0.95
2020-05-16 12:46:06.641 -0400,11303.430210125,1.243865966796875,0.5749359130859375,-0.3566741943359375,1,0.95
2020-05-16 12:46:06.705 -0400,11303.495185125,0.76446533203125,0.4241485595703125,-0.3676910400390625,1,0.95
2020-05-16 12:46:06.770 -0400,11303.560160125,0.3115234375,0.1505889892578125,-0.1968536376953125,1,0.95
2020-05-16 12:46:06.835 -0400,11303.625135125,0.1361083984375,0.30078125,-0.2690277099609375,1,0.95
2020-05-16 12:46:06.900 -0400,11303.69011075,0.2527923583984375,0.6015777587890625,-0.1707763671875,1,0.95
2020-05-16 12:46:06.965 -0400,11303.75508575,0.73150634765625,0.777313232421875,-0.227294921875,1,0.95
2020-05-16 12:46:07.030 -0400,11303.82005975,2.069610595703125,1.047500610351562,-0.4444427490234375,1,0.95
2020-05-16 12:46:07.095 -0400,11303.88503475,1.574127197265625,0.4794158935546875,-0.0989990234375,1,0.95
2020-05-16 12:46:07.160 -0400,11303.95000975,1.479751586914062,0.365814208984375,-0.0974884033203125,1,0.95
2020-05-16 12:46:07.225 -0400,11304.01498475,0.885223388671875,0.4478912353515625,-0.0472259521484375,1,0.95
2020-05-16 12:46:07.290 -0400,11304.07995975,0.59814453125,0.39019775390625,-0.0352325439453125,1,0.95
2020-05-16 12:46:07.355 -0400,11304.14493475,0.6834259033203125,0.373077392578125,-0.0588836669921875,1,0.95
2020-05-16 12:46:07.420 -0400,11304.20990975,0.87188720703125,0.5684967041015625,-0.1244049072265625,1,0.95
2020-05-16 12:46:07.485 -0400,11304.27488475,0.8790740966796875,0.6932373046875,-0.4004974365234375,1,0.95
2020-05-16 12:46:07.550 -0400,11304.33985875,0.6745452880859375,0.7926177978515625,-0.5979156494140625,1,0.95
2020-05-16 12:46:07.615 -0400,11304.40483375,0.213409423828125,0.3708343505859375,-1.016998291015625,1,0.95
2020-05-16 12:46:07.680 -0400,11304.46980875,0.457427978515625,0.2866973876953125,-0.8021240234375,1,0.95
2020-05-16 12:46:07.745 -0400,11304.53478375,0.2538909912109375,0.1316986083984375,-0.6813201904296875,1,0.95
2020-05-16 12:46:07.810 -0400,11304.59975875,0.014434814453125,0.0154876708984375,-0.6518096923828125,1,0.95
2020-05-16 12:46:07.875 -0400,11304.66473375,0.053863525390625,-0.0047149658203125,-0.6873321533203125,1,0.95
2020-05-16 12:46:07.941 -0400,11304.729708875,0.0599517822265625,0.0591888427734375,-0.8608551025390625,1,0.95
2020-05-16 12:46:08.020 -0400,11304.809677875,0.07574462890625,-0.0186614990234375,-1.031448364257812,1,0.95
2020-05-16 12:46:08.090 -0400,11304.879650875,0.0279693603515625,-0.060028076171875,-1.170578002929688,1,0.95
2020-05-16 12:46:08.160 -0400,11304.949623875,0.2313079833984375,0.0965728759765625,-1.239532470703125,1,0.95
2020-05-16 12:46:08.230 -0400,11305.019596875,0.430450439453125,0.3207244873046875,-1.145721435546875,1,0.95
2020-05-16 12:46:08.300 -0400,11305.089569875,0.2730255126953125,0.4038543701171875,-0.950439453125,1,0.95
2020-05-16 12:46:08.370 -0400,11305.159542875,0.01251220703125,0.39849853515625,-0.9003448486328125,1,0.95
2020-05-16 12:46:08.443 -0400,11305.229515875,0.1567230224609375,0.275543212890625,-0.94830322265625,1,0.95
2020-05-16 12:46:08.510 -0400,11305.299488875,0.04119873046875,0.119873046875,-0.77667236328125,1,0.95
2020-05-16 12:46:08.580 -0400,11305.369461875,0.12744140625,0.1900482177734375,-0.8768310546875,1,0.95
2020-05-16 12:46:08.650 -0400,11305.439433875,0.1248626708984375,0.1920928955078125,-0.9342498779296875,1,0.95
2020-05-16 12:46:08.720 -0400,11305.509406875,0.0989532470703125,0.1143798828125,-0.9162750244140625,1,0.95
2020-05-16 12:46:08.790 -0400,11305.579379875,0.17425537109375,0.2135772705078125,-0.97784423828125,1,0.95
