loggingTime(txt),accelerometerTimestamp_sinceReboot(s),accelerometerAccelerationX(G),accelerometerAccelerationY(G),accelerometerAccelerationZ(G),batteryState,batteryLevel
2020-05-16 12:35:27.261 -0400,10664.03728775,0.06011962890625,0.3526611328125,-1.223236083984375,1,0.97
2020-05-16 12:35:27.317 -0400,10664.10726075,0.0458984375,0.3003997802734375,-1.01361083984375,1,0.97
2020-05-16 12:35:27.388 -0400,10664.17723375,0.040771484375,0.1787872314453125,-0.730712890625,1,0.97
2020-05-16 12:35:27.458 -0400,10664.24720675,0.0069580078125,0.029571533203125,-0.581207275390625,1,0.97
2020-05-16 12:35:27.527 -0400,10664.31717975,-0.044097900390625,-0.086944580078125,-0.4794769287109375,1,0.97
2020-05-16 12:35:27.598 -0400,10664.38715175,0.0841064453125,-0.04254150390625,-0.5082244873046875,1,0.97
2020-05-16 12:35:27.668 -0400,10664.45712475,0.54986572265625,0.1083984375,-0.6687774658203125,1,0.97
2020-05-16 12:35:27.737 -0400,10664.52709775,1.160675048828125,0.51214599609375,-0.9837493896484375,1,0.97
2020-05-16 12:35:27.808 -0400,10664.59707075,1.113327026367188,0.4197540283203125,-0.7779541015625,1,0.97
2020-05-16 12:35:27.878 -0400,10664.66704375,1.235260009765625,0.3090972900390625,-0.5914306640625,1,0.97
2020-05-16 12:35:27.948 -0400,10664.73701675,1.462860107421875,0.3353271484375,-0.2613067626953125,1,0.97
2020-05-16 12:35:28.017 -0400,10664.80698975,0.89007568359375,0.697235107421875,-0.2103118896484375,1,0.97
2020-05-16 12:35:28.087 -0400,10664.87696175,0.525726318359375,0.584991455078125,-0.1410369873046875,1,0.97
2020-05-16 12:35:28.178 -0400,10664.96692675,0.5023193359375,0.472991943359375,-0.1134490966796875,1,0.97
2020-05-16 12:35:28.244 -0400,10665.031901125,0.7808685302734375,0.47784423828125,-0.175811767578125,1,0.97
2020-05-16 12:35:28.307 -0400,10665.096876125,1.53656005859375,0.55755615234375,-0.2415924072265625,1,0.97
2020-05-16 12:35:28.376 -0400,10665.161851125,1.458511352539062,0.6406097412109375,-0.5080718994140625,1,0.97
2020-05-16 12:35:28.437 -0400,10665.226826125,1.29986572265625,0.4494171142578125,-0.37530517578125,1,0.97
2020-05-16 12:35:28.502 -0400,10665.291800125,1.39190673828125,0.2388916015625,-0.2133026123046875,1,0.97
2020-05-16 12:35:28.567 -0400,10665.356775125,0.8485260009765625,0.19696044921875,-0.2303466796875,1,0.97
2020-05-16 12:35:28.632 -0400,10665.421750125,0.515045166015625,0.2294158935546875,-0.150421142578125,1,0.97
2020-05-16 12:35:28.700 -0400,10665.486725125,0.4122314453125,0.2487945556640625,-0.0709686279296875,1,0.97
2020-05-16 12:35:28.762 -0400,10665.551700125,0.5446929931640625,0.2350921630859375,-0.08123779296875,1,0.97
2020-05-16 12:35:28.827 -0400,10665.616674125,1.096267700195312,0.2881622314453125,-0.1030731201171875,1,0.97
2020-05-16 12:35:28.892 -0400,10665.681649125,1.518936157226562,0.3348846435546875,-0.104644775390625,1,0.97
2020-05-16 12:35:28.957 -0400,10665.746624125,1.435470581054688,0.4866943359375,-0.2619476318359375,1,0.97
2020-05-16 12:35:29.022 -0400,10665.811599125,1.397720336914062,0.5454559326171875,-0.3514556884765625,1,0.97
2020-05-16 12:35:29.087 -0400,10665.876574125,1.1378173828125,0.211700439453125,-0.171875,1,0.97
2020-05-16 12:35:29.152 -0400,10665.941548125,0.7302703857421875,0.265228271484375,-0.275238037109375,1,0.97
2020-05-16 12:35:29.217 -0400,10666.006523125,0.5063018798828125,0.415496826171875,-0.191558837890625,1,0.97
2020-05-16 12:35:29.282 -0400,10666.071498,0.4019317626953125,0.4640960693359375,-0.20050048828125,1,0.97
2020-05-16 12:35:29.350 -0400,10666.136473,0.5858917236328125,0.4345855712890625,-0.31671142578125,1,0.97
2020-05-16 12:35:29.413 -0400,10666.201448,1.114547729492188,0.4727020263671875,-0.398956298828125,1,0.97
2020-05-16 12:35:29.477 -0400,10666.266422,1.712921142578125,0.3581390380859375,-0.3592071533203125,1,0.97
2020-05-16 12:35:29.542 -0400,10666.331397,1.2674560546875,0.363616943359375,-0.466064453125,1,0.97
2020-05-16 12:35:29.607 -0400,10666.396372,1.56256103515625,0.3468170166015625,-0.2366485595703125,1,0.97
2020-05-16 12:35:29.672 -0400,10666.461347,1.26678466796875,0.21014404296875,-0.1783447265625,1,0.97
2020-05-16 12:35:29.737 -0400,10666.526322,0.6671905517578125,0.260223388671875,-0.1984405517578125,1,0.97
2020-05-16 12:35:29.802 -0400,10666.591296,0.412567138671875,0.279541015625,-0.07647705078125,1,0.97
2020-05-16 12:35:29.867 -0400,10666.656271,0.5306854248046875,0.2335662841796875,-0.0442657470703125,1,0.97
2020-05-16 12:35:29.932 -0400,10666.721246,0.8704681396484375,0.2304229736328125,-0.036102294921875,1,0.97
2020-05-16 12:35:29.997 -0400,10666.786221,1.050827026367188,0.3642730712890625,-0.0974578857421875,1,0.97
2020-05-16 12:35:30.061 -0400,10666.851196,1.45977783203125,0.4739227294921875,-0.076385498046875,1,0.97
2020-05-16 12:35:30.127 -0400,10666.916171,1.401565551757812,0.5943603515625,-0.322784423828125,1,0.97
2020-05-16 12:35:30.191 -0400,10666.981145,1.266586303710938,0.475433349609375,-0.393035888671875,1,0.97
2020-05-16 12:35:30.257 -0400,10667.046120625,1.019485473632812,0.26123046875,-0.3138885498046875,1,0.97
2020-05-16 12:35:30.321 -0400,10667.111095625,0.654296875,0.2971343994140625,-0.357147216796875,1,0.97
2020-05-16 12:35:30.387 -0400,10667.176070625,0.4869842529296875,0.3960418701171875,-0.24737548828125,1,0.97
2020-05-16 12:35:30.451 -0400,10667.241045625,0.58197021484375,0.474212646484375,-0.2742156982421875,1,0.97
2020-05-16 12:35:30.516 -0400,10667.306019625,1.030563354492188,0.552398681640625,-0.4380340576171875,1,0.97
2020-05-16 12:35:30.581 -0400,10667.370994625,1.263198852539062,0.47186279296875,-0.4862213134765625,1,0.97
2020-05-16 12:35:30.646 -0400,10667.435969625,1.499526977539062,0.5314178466796875,-0.60467529296875,1,0.97
2020-05-16 12:35:30.711 -0400,10667.500944625,1.3089599609375,0.2790374755859375,-0.2266693115234375,1,0.97
2020-05-16 12:35:30.776 -0400,10667.565919625,1.608657836914062,0.1296844482421875,-0.033355712890625,1,0.97
2020-05-16 12:35:30.841 -0400,10667.630893625,1.096282958984375,0.3860321044921875,-0.1077117919921875,1,0.97
2020-05-16 12:35:30.906 -0400,10667.695868625,0.6577606201171875,0.3225860595703125,-0.009735107421875,1,0.97
2020-05-16 12:35:30.971 -0400,10667.760843625,0.5166778564453125,0.324859619140625,0.0363006591796875,1,0.97
2020-05-16 12:35:31.036 -0400,10667.825818625,0.6135711669921875,0.2393341064453125,0.040191650390625,1,0.97
2020-05-16 12:35:31.101 -0400,10667.890793625,0.7901611328125,0.1993255615234375,0.0234832763671875,1,0.97
2020-05-16 12:35:31.166 -0400,10667.955767625,1.114044189453125,0.2557830810546875,-0.105743408203125,1,0.97
2020-05-16 12:35:31.231 -0400,10668.020742625,1.506988525390625,0.34228515625,-0.0434722900390625,1,0.97
2020-05-16 12:35:31.315 -0400,10668.08571775,1.614303588867188,0.635894775390625,-0.52728271484375,1,0.97
2020-05-16 12:35:31.361 -0400,10668.15069275,1.303146362304688,0.3841552734375,-0.3429107666015625,1,0.97
2020-05-16 12:35:31.426 -0400,10668.21566775,0.9915924072265625,0.1296539306640625,-0.3898468017578125,1,0.97
2020-05-16 12:35:31.491 -0400,10668.28064175,0.5842132568359375,0.20965576171875,-0.356414794921875,1,0.97
2020-05-16 12:35:31.556 -0400,10668.34561675,0.4151611328125,0.39483642578125,-0.24871826171875,1,0.97
2020-05-16 12:35:31.621 -0400,10668.41059175,0.5495452880859375,0.484649658203125,-0.345672607421875,1,0.97
2020-05-16 12:35:31.686 -0400,10668.47556675,0.987091064453125,0.4964447021484375,-0.4410552978515625,1,0.97
2020-05-16 12:35:31.751 -0400,10668.54054175,1.197479248046875,0.3705596923828125,-0.524383544921875,1,0.97
2020-05-16 12:35:31.816 -0400,10668.60551575,1.5894775390625,0.4280853271484375,-0.5739898681640625,1,0.97
2020-05-16 12:35:31.881 -0400,10668.67049075,1.414276123046875,0.2754058837890625,-0.401519775390625,1,0.97
2020-05-16 12:35:31.946 -0400,10668.73546575,1.368438720703125,0.1643218994140625,-0.158905029296875,1,0.97
2020-05-16 12:35:32.011 -0400,10668.80044075,0.9942779541015625,0.320831298828125,-0.1761627197265625,1,0.97
2020-05-16 12:35:32.076 -0400,10668.86541575,0.453369140625,0.2816009521484375,-0.07476806640625,1,0.97
2020-05-16 12:35:32.141 -0400,10668.93038975,0.3872222900390625,0.3175048828125,-0.011566162109375,1,0.97
2020-05-16 12:35:32.206 -0400,10668.99536475,0.6345977783203125,0.275787353515625,-0.0077056884765625,1,0.97
2020-05-16 12:35:32.271 -0400,10669.06033866667,0.993621826171875,0.2410125732421875,-0.0382080078125,1,0.97
2020-05-16 12:35:32.336 -0400,10669.12531366667,1.16302490234375,0.242919921875,-0.13677978515625,1,0.97
2020-05-16 12:35:32.401 -0400,10669.19028866667,1.304290771484375,0.3992156982421875,-0.1994781494140625,1,0.97
2020-05-16 12:35:32.466 -0400,10669.25526266667,1.2403564453125,0.5911407470703125,-0.5753936767578125,1,0.97
2020-05-16 12:35:32.530 -0400,10669.32023766667,1.243621826171875,0.3630523681640625,-0.260833740234375,1,0.97
2020-05-16 12:35:32.596 -0400,10669.38521266667,0.824249267578125,0.1705780029296875,-0.400299072265625,1,0.97
2020-05-16 12:35:32.661 -0400,10669.45018766667,0.51104736328125,0.3373565673828125,-0.2915496826171875,1,0.97
2020-05-16 12:35:32.726 -0400,10669.51516266667,0.513916015625,0.487579345703125,-0.3262939453125,1,0.97
2020-05-16 12:35:32.790 -0400,10669.58013666667,0.7675018310546875,0.416412353515625,-0.4171905517578125,1,0.97
2020-05-16 12:35:32.855 -0400,10669.64511166667,1.07098388671875,0.32611083984375,-0.41046142578125,1,0.97
2020-05-16 12:35:32.920 -0400,10669.71008666667,1.4012451171875,0.3785247802734375,-0.4007720947265625,1,0.97
2020-05-16 12:35:32.985 -0400,10669.77506166667,1.40386962890625,0.43975830078125,-0.4378662109375,1,0.97
2020-05-16 12:35:33.050 -0400,10669.84003666667,1.2431640625,0.3267364501953125,-0.263763427734375,1,0.97
2020-05-16 12:35:33.115 -0400,10669.90501066667,1.254196166992188,0.2640838623046875,-0.124542236328125,1,0.97
2020-05-16 12:35:33.180 -0400,10669.96998566667,0.776885986328125,0.29534912109375,-0.09381103515625,1,0.97
2020-05-16 12:35:33.260 -0400,10670.03496175,0.49658203125,0.3370819091796875,-0.057281494140625,1,0.97
2020-05-16 12:35:33.310 -0400,10670.09993675,0.5186614990234375,0.3272705078125,0.0013580322265625,1,0.97
2020-05-16 12:35:33.376 -0400,10670.16491075,0.74224853515625,0.2734527587890625,-0.0257110595703125,1,0.97
2020-05-16 12:35:33.440 -0400,10670.22988575,1.180709838867188,0.2558135986328125,-0.038330078125,1,0.97
2020-05-16 12:35:33.505 -0400,10670.29486075,1.35467529296875,0.3238372802734375,-0.123748779296875,1,0.97
2020-05-16 12:35:33.570 -0400,10670.35983575,1.256866455078125,0.4447174072265625,-0.1973419189453125,1,0.97
2020-05-16 12:35:33.635 -0400,10670.42481075,1.055496215820312,0.519500732421875,-0.7488555908203125,1,0.97
2020-05-16 12:35:33.700 -0400,10670.48978475,1.1026611328125,0.1136474609375,-0.28338623046875,1,0.97
2020-05-16 12:35:33.765 -0400,10670.55475975,0.6744842529296875,0.0335693359375,-0.30267333984375,1,0.97
2020-05-16 12:35:33.830 -0400,10670.61973475,0.4629364013671875,0.358642578125,-0.2510223388671875,1,0.97
2020-05-16 12:35:33.895 -0400,10670.68470975,0.540679931640625,0.515167236328125,-0.301422119140625,1,0.97
2020-05-16 12:35:33.960 -0400,10670.74968475,0.695159912109375,0.406097412109375,-0.258331298828125,1,0.97
2020-05-16 12:35:34.025 -0400,10670.81465875,1.044281005859375,0.333099365234375,-0.33837890625,1,0.97
2020-05-16 12:35:34.090 -0400,10670.87963375,1.7637939453125,0.2021026611328125,-0.198394775390625,1,0.97
2020-05-16 12:35:34.155 -0400,10670.94460875,1.763412475585938,0.2259521484375,-0.2857208251953125,1,0.97
2020-05-16 12:35:34.220 -0400,10671.00958375,1.002609252929688,0.3566741943359375,-0.1573028564453125,1,0.97
2020-05-16 12:35:34.285 -0400,10671.07455754167,0.752197265625,0.297332763671875,-0.03363037109375,1,0.97
2020-05-16 12:35:34.350 -0400,10671.13953254167,0.817901611328125,0.3600616455078125,-0.0234527587890625,1,0.97
2020-05-16 12:35:34.415 -0400,10671.20450754167,0.8247528076171875,0.25616455078125,0.0507659912109375,1,0.97
2020-05-16 12:35:34.480 -0400,10671.26948254167,0.91778564453125,0.342193603515625,0.0028076171875,1,0.97
2020-05-16 12:35:34.545 -0400,10671.33445754167,0.8903350830078125,0.3935699462890625,0.0183868408203125,1,0.97
2020-05-16 12:35:34.610 -0400,10671.39943154167,0.822967529296875,0.39202880859375,-0.0356903076171875,1,0.97
2020-05-16 12:35:34.675 -0400,10671.46440654167,0.687896728515625,0.3508148193359375,-0.0630645751953125,1,0.97
2020-05-16 12:35:34.740 -0400,10671.52938154167,0.49298095703125,0.3311614990234375,-0.0889434814453125,1,0.97
2020-05-16 12:35:34.805 -0400,10671.59435654167,0.3033599853515625,0.29327392578125,-0.1169586181640625,1,0.97
2020-05-16 12:35:34.870 -0400,10671.65933054167,0.3832244873046875,0.2098236083984375,-0.119140625,1,0.97
2020-05-16 12:35:34.935 -0400,10671.72430554167,1.797286987304688,0.2708587646484375,-0.0424041748046875,1,0.97
2020-05-16 12:35:35.000 -0400,10671.78928054167,1.697647094726562,0.856109619140625,-0.6415252685546875,1,0.97
2020-05-16 12:35:35.065 -0400,10671.85425554167,1.233856201171875,0.2432403564453125,-0.4803924560546875,1,0.97
2020-05-16 12:35:35.130 -0400,10671.91923054167,0.695159912109375,0.05450439453125,-0.2660369873046875,1,0.97
2020-05-16 12:35:35.195 -0400,10671.98420454167,0.3651275634765625,0.368072509765625,-0.2586212158203125,1,0.97
2020-05-16 12:35:35.260 -0400,10672.049178875,0.2315521240234375,0.4829864501953125,-0.2458953857421875,1,0.97
2020-05-16 12:35:35.326 -0400,10672.114153875,0.5127105712890625,0.4522857666015625,-0.192108154296875,1,0.97
2020-05-16 12:35:35.390 -0400,10672.179128875,2.28033447265625,0.78887939453125,-0.310272216796875,1,0.97
2020-05-16 12:35:35.454 -0400,10672.244102875,1.974899291992188,0.5368804931640625,-0.32281494140625,1,0.97
2020-05-16 12:35:35.519 -0400,10672.309077875,1.198074340820312,0.2622833251953125,-0.4689178466796875,1,0.97
2020-05-16 12:35:35.584 -0400,10672.374052875,0.6401519775390625,0.3828582763671875,-0.243682861328125,1,0.97
2020-05-16 12:35:35.649 -0400,10672.439027875,0.547271728515625,0.21826171875,-0.1107330322265625,1,0.97
2020-05-16 12:35:35.714 -0400,10672.504001875,0.5204315185546875,0.1175689697265625,-0.0853729248046875,1,0.97
2020-05-16 12:35:35.779 -0400,10672.568976875,0.683502197265625,0.17779541015625,-0.05426025390625,1,0.97
2020-05-16 12:35:35.844 -0400,10672.633951875,0.821502685546875,0.341644287109375,-0.0322723388671875,1,0.97
2020-05-16 12:35:35.909 -0400,10672.698926875,1.16796875,0.542999267578125,-0.11279296875,1,0.97
2020-05-16 12:35:35.974 -0400,10672.763901875,1.554031372070312,0.631134033203125,-0.6961212158203125,1,0.97
2020-05-16 12:35:36.039 -0400,10672.828875875,1.1529541015625,0.3879852294921875,-0.4263763427734375,1,0.97
2020-05-16 12:35:36.104 -0400,10672.893850875,0.6024627685546875,0.117401123046875,-0.329315185546875,1,0.97
2020-05-16 12:35:36.169 -0400,10672.958825875,0.51434326171875,0.4873809814453125,-0.1929931640625,1,0.97
2020-05-16 12:35:36.234 -0400,10673.023800875,0.6769866943359375,0.68475341796875,-0.32196044921875,1,0.97
2020-05-16 12:35:36.299 -0400,10673.08877579167,0.85894775390625,0.720306396484375,-0.548309326171875,1,0.97
2020-05-16 12:35:36.364 -0400,10673.15375079167,1.247329711914062,0.5713348388671875,-0.4637451171875,1,0.97
2020-05-16 12:35:36.429 -0400,10673.21872579167,1.2320556640625,0.4461212158203125,-0.504730224609375,1,0.97
2020-05-16 12:35:36.494 -0400,10673.28370079167,1.815109252929688,0.319549560546875,-0.289642333984375,1,0.97
2020-05-16 12:35:36.559 -0400,10673.34867479167,1.494400024414062,0.2144012451171875,-0.3394927978515625,1,0.97
2020-05-16 12:35:36.624 -0400,10673.41364979167,0.67510986328125,0.309234619140625,-0.3405609130859375,1,0.97
2020-05-16 12:35:36.689 -0400,10673.47862479167,0.4037322998046875,0.24017333984375,-0.1247711181640625,1,0.97
2020-05-16 12:35:36.754 -0400,10673.54359979167,0.5314483642578125,0.1376190185546875,-0.0811309814453125,1,0.97
2020-05-16 12:35:36.819 -0400,10673.60857379167,0.825775146484375,0.084228515625,-0.0273590087890625,1,0.97
2020-05-16 12:35:36.884 -0400,10673.67354879167,0.770263671875,0.35205078125,-0.0381317138671875,1,0.97
2020-05-16 12:35:36.949 -0400,10673.73852379167,1.042434692382812,0.6874542236328125,-0.2187652587890625,1,0.97
2020-05-16 12:35:37.014 -0400,10673.80349879167,1.019271850585938,0.6021881103515625,-0.5312347412109375,1,0.97
2020-05-16 12:35:37.079 -0400,10673.86847279167,1.667388916015625,0.8523712158203125,-0.600616455078125,1,0.97
2020-05-16 12:35:37.144 -0400,10673.93344779167,0.70892333984375,0.445098876953125,-0.3907928466796875,1,0.97
2020-05-16 12:35:37.209 -0400,10673.99842279167,0.4962921142578125,0.1880340576171875,-0.3872528076171875,1,0.97
2020-05-16 12:35:37.274 -0400,10674.06339754167,0.595245361328125,0.691680908203125,-0.368194580078125,1,0.97
2020-05-16 12:35:37.339 -0400,10674.12837154167,0.7897491455078125,0.7239227294921875,-0.4860382080078125,1,0.97
2020-05-16 12:35:37.404 -0400,10674.19334654167,1.2042236328125,0.383575439453125,-0.35205078125,1,0.97
2020-05-16 12:35:37.469 -0400,10674.25832154167,1.896759033203125,0.5095672607421875,-0.4364166259765625,1,0.97
2020-05-16 12:35:37.534 -0400,10674.32329654167,1.851898193359375,0.384674072265625,-0.2685089111328125,1,0.97
2020-05-16 12:35:37.599 -0400,10674.38827054167,1.191909790039062,0.331817626953125,-0.320770263671875,1,0.97
2020-05-16 12:35:37.664 -0400,10674.45324554167,0.5849609375,0.287811279296875,-0.1273345947265625,1,0.97
2020-05-16 12:35:37.728 -0400,10674.51822054167,0.47412109375,0.2391204833984375,-0.014190673828125,1,0.97
2020-05-16 12:35:37.794 -0400,10674.58319554167,0.5109100341796875,0.181060791015625,-0.0213623046875,1,0.97
2020-05-16 12:35:37.858 -0400,10674.64816954167,0.7333221435546875,0.1913604736328125,0.007232666015625,1,0.97
2020-05-16 12:35:37.924 -0400,10674.71314454167,0.7559814453125,0.37152099609375,-0.0855865478515625,1,0.97
2020-05-16 12:35:37.988 -0400,10674.77811954167,0.994659423828125,0.6563873291015625,-0.27874755859375,1,0.97
2020-05-16 12:35:38.054 -0400,10674.84309454167,1.533432006835938,0.502105712890625,-0.6766204833984375,1,0.97
2020-05-16 12:35:38.118 -0400,10674.90806854167,1.020614624023438,0.48809814453125,-0.493255615234375,1,0.97
2020-05-16 12:35:38.184 -0400,10674.97304354167,0.5545654296875,0.2828369140625,-0.358673095703125,1,0.97
2020-05-16 12:35:38.248 -0400,10675.03801854167,0.4776611328125,0.4889068603515625,-0.3642730712890625,1,0.97
2020-05-16 12:35:38.313 -0400,10675.102993,0.6713409423828125,0.6694793701171875,-0.47332763671875,1,0.97
2020-05-16 12:35:38.378 -0400,10675.167967,1.131179809570312,0.6248016357421875,-0.4989013671875,1,0.97
2020-05-16 12:35:38.443 -0400,10675.232942,1.705902099609375,0.4031829833984375,-0.463623046875,1,0.97
2020-05-16 12:35:38.508 -0400,10675.297917,1.623703002929688,0.484405517578125,-0.3964385986328125,1,0.97
2020-05-16 12:35:38.573 -0400,10675.362892,1.543487548828125,0.4927825927734375,-0.206512451171875,1,0.97
2020-05-16 12:35:38.638 -0400,10675.427866,0.9087371826171875,0.3307342529296875,-0.2279205322265625,1,0.97
2020-05-16 12:35:38.703 -0400,10675.492841,0.5501556396484375,0.2521820068359375,-0.0488739013671875,1,0.97
2020-05-16 12:35:38.768 -0400,10675.557816,0.577850341796875,0.23846435546875,-0.0028076171875,1,0.97
2020-05-16 12:35:38.833 -0400,10675.622791,0.5844573974609375,0.1597137451171875,0.024993896484375,1,0.97
2020-05-16 12:35:38.898 -0400,10675.687765,0.8998260498046875,0.21533203125,0.1143951416015625,1,0.97
2020-05-16 12:35:38.963 -0400,10675.75274,1.011764526367188,0.485809326171875,-0.1072540283203125,1,0.97
2020-05-16 12:35:39.028 -0400,10675.817715,1.270828247070312,0.566680908203125,-0.3006134033203125,1,0.97
2020-05-16 12:35:39.093 -0400,10675.88269,1.621246337890625,0.5957489013671875,-0.5657196044921875,1,0.97
2020-05-16 12:35:39.158 -0400,10675.947664,0.9402618408203125,0.1665496826171875,-0.3256683349609375,1,0.97
2020-05-16 12:35:39.234 -0400,10676.012639,0.4851531982421875,0.224578857421875,-0.4133148193359375,1,0.97
2020-05-16 12:35:39.288 -0400,10676.077614,0.4324951171875,0.617156982421875,-0.384063720703125,1,0.97
2020-05-16 12:35:39.353 -0400,10676.142588,0.591583251953125,0.664581298828125,-0.4284210205078125,1,0.97
2020-05-16 12:35:39.418 -0400,10676.207563,0.932159423828125,0.605194091796875,-0.446197509765625,1,0.97
2020-05-16 12:35:39.483 -0400,10676.272538,1.498397827148438,0.4514312744140625,-0.327239990234375,1,0.97
2020-05-16 12:35:39.548 -0400,10676.337513,1.682632446289062,0.4774017333984375,-0.5322265625,1,0.97
2020-05-16 12:35:39.613 -0400,10676.402487,1.85333251953125,0.5505828857421875,-0.190216064453125,1,0.97
2020-05-16 12:35:39.678 -0400,10676.467462,1.099868774414062,0.2693328857421875,-0.21392822265625,1,0.97
2020-05-16 12:35:39.743 -0400,10676.532437,0.579071044921875,0.3044281005859375,-0.095977783203125,1,0.97
2020-05-16 12:35:39.808 -0400,10676.597412,0.5378875732421875,0.2728424072265625,-0.019287109375,1,0.97
2020-05-16 12:35:39.873 -0400,10676.662386,0.57861328125,0.1524200439453125,0.0223541259765625,1,0.97
2020-05-16 12:35:39.938 -0400,10676.727361,0.8183135986328125,0.1460418701171875,0.07666015625,1,0.97
2020-05-16 12:35:40.003 -0400,10676.792336,0.892822265625,0.4144134521484375,-0.045379638671875,1,0.97
2020-05-16 12:35:40.068 -0400,10676.85731,1.066299438476562,0.75677490234375,-0.3688201904296875,1,0.97
2020-05-16 12:35:40.133 -0400,10676.922285,1.470504760742188,0.57379150390625,-0.5474395751953125,1,0.97
2020-05-16 12:35:40.198 -0400,10676.98726,0.9997711181640625,0.4661712646484375,-0.46466064453125,1,0.97
2020-05-16 12:35:40.263 -0400,10677.05223475,0.5449981689453125,0.30987548828125,-0.3499298095703125,1,0.97
2020-05-16 12:35:40.327 -0400,10677.11720875,0.534454345703125,0.4476165771484375,-0.3510894775390625,1,0.97
2020-05-16 12:35:40.393 -0400,10677.18218375,0.9863739013671875,0.7921295166015625,-0.4718475341796875,1,0.97
2020-05-16 12:35:40.457 -0400,10677.24715875,1.0516357421875,0.6839599609375,-0.5771484375,1,0.97
2020-05-16 12:35:40.523 -0400,10677.31213375,1.500320434570312,0.4559326171875,-0.367919921875,1,0.97
2020-05-16 12:35:40.587 -0400,10677.37710775,1.57928466796875,0.5424041748046875,-0.449951171875,1,0.97
2020-05-16 12:35:40.653 -0400,10677.44208275,1.708450317382812,0.33453369140625,-0.193511962890625,1,0.97
2020-05-16 12:35:40.717 -0400,10677.50705775,1.043899536132812,0.3226318359375,-0.31903076171875,1,0.97
2020-05-16 12:35:40.783 -0400,10677.57203175,0.53485107421875,0.2874298095703125,-0.118499755859375,1,0.97
2020-05-16 12:35:40.847 -0400,10677.63700675,0.41986083984375,0.2559661865234375,-0.029693603515625,1,0.97
2020-05-16 12:35:40.913 -0400,10677.70198175,0.6354827880859375,0.179901123046875,-0.0169830322265625,1,0.97
2020-05-16 12:35:40.978 -0400,10677.76695675,0.830657958984375,0.204742431640625,0.0836334228515625,1,0.97
2020-05-16 12:35:41.042 -0400,10677.83193075,0.92791748046875,0.35980224609375,-0.1685028076171875,1,0.97
2020-05-16 12:35:41.107 -0400,10677.89690575,1.338912963867188,0.576812744140625,-0.2122039794921875,1,0.97
2020-05-16 12:35:41.172 -0400,10677.96188075,1.693511962890625,0.6011505126953125,-0.561492919921875,1,0.97
2020-05-16 12:35:41.244 -0400,10678.02685475,0.9524993896484375,0.3012237548828125,-0.416107177734375,1,0.97
2020-05-16 12:35:41.302 -0400,10678.09183029167,0.566802978515625,0.2525482177734375,-0.349578857421875,1,0.97
2020-05-16 12:35:41.367 -0400,10678.15680529167,0.4323577880859375,0.5580902099609375,-0.2672882080078125,1,0.97
2020-05-16 12:35:41.432 -0400,10678.22178029167,0.5585174560546875,0.7080535888671875,-0.3037261962890625,1,0.97
2020-05-16 12:35:41.497 -0400,10678.28675429167,1.012893676757812,0.8247528076171875,-0.499420166015625,1,0.97
2020-05-16 12:35:41.562 -0400,10678.35172929167,1.517745971679688,0.6263427734375,-0.4821929931640625,1,0.97
2020-05-16 12:35:41.627 -0400,10678.41670429167,1.881622314453125,0.5989227294921875,-0.580108642578125,1,0.97
2020-05-16 12:35:41.692 -0400,10678.48167829167,1.766860961914062,0.412353515625,-0.15997314453125,1,0.97
2020-05-16 12:35:41.757 -0400,10678.54665329167,1.064727783203125,0.140380859375,-0.1757049560546875,1,0.97
2020-05-16 12:35:41.822 -0400,10678.61162829167,0.6478729248046875,0.354949951171875,-0.078399658203125,1,0.97
2020-05-16 12:35:41.887 -0400,10678.67660229167,0.553466796875,0.261749267578125,0.0007171630859375,1,0.97
2020-05-16 12:35:41.952 -0400,10678.74157729167,0.5088958740234375,0.0940093994140625,0.0347747802734375,1,0.97
2020-05-16 12:35:42.017 -0400,10678.80655229167,0.482574462890625,0.1701812744140625,0.0281524658203125,1,0.97
2020-05-16 12:35:42.082 -0400,10678.87152729167,0.7432403564453125,0.4639739990234375,-0.11126708984375,1,0.97
2020-05-16 12:35:42.147 -0400,10678.93650129167,1.200225830078125,0.85723876953125,-0.3874359130859375,1,0.97
2020-05-16 12:35:42.212 -0400,10679.00147629167,1.781661987304688,0.6025543212890625,-0.36065673828125,1,0.97
2020-05-16 12:35:42.277 -0400,10679.06645175,1.197525024414062,0.613739013671875,-0.398834228515625,1,0.97
2020-05-16 12:35:42.342 -0400,10679.13142575,0.647369384765625,0.51727294921875,-0.378631591796875,1,0.97
2020-05-16 12:35:42.407 -0400,10679.19640075,0.5496826171875,0.4974822998046875,-0.3245086669921875,1,0.97
2020-05-16 12:35:42.472 -0400,10679.26137575,0.5493621826171875,0.527191162109375,-0.2425537109375,1,0.97
2020-05-16 12:35:42.537 -0400,10679.32635075,0.9563446044921875,0.7728424072265625,-0.3181610107421875,1,0.97
2020-05-16 12:35:42.602 -0400,10679.39132475,1.631011962890625,0.907745361328125,-0.499267578125,1,0.97
2020-05-16 12:35:42.667 -0400,10679.45629975,1.654296875,0.4339447021484375,-0.40582275390625,1,0.97
2020-05-16 12:35:42.732 -0400,10679.52127475,1.614089965820312,0.551849365234375,-0.2414398193359375,1,0.97
2020-05-16 12:35:42.797 -0400,10679.58624875,0.95599365234375,0.2794647216796875,-0.2094573974609375,1,0.97
2020-05-16 12:35:42.862 -0400,10679.65122375,0.6611328125,0.256072998046875,-0.0490875244140625,1,0.97
2020-05-16 12:35:42.927 -0400,10679.71619875,0.4976654052734375,0.174957275390625,-0.0253143310546875,1,0.97
2020-05-16 12:35:42.992 -0400,10679.78117275,0.48193359375,0.120391845703125,-0.0323333740234375,1,0.97
2020-05-16 12:35:43.057 -0400,10679.84614775,0.561767578125,0.214202880859375,0.046539306640625,1,0.97
2020-05-16 12:35:43.122 -0400,10679.91112275,0.9178314208984375,0.6479339599609375,-0.1615447998046875,1,0.97
2020-05-16 12:35:43.186 -0400,10679.97609775,1.287582397460938,0.6807403564453125,-0.4689178466796875,1,0.97
2020-05-16 12:35:43.254 -0400,10680.04107175,1.963592529296875,0.65924072265625,-0.4500732421875,1,0.97
2020-05-16 12:35:43.316 -0400,10680.10604529167,0.7938079833984375,0.3537445068359375,-0.336334228515625,1,0.97
2020-05-16 12:35:43.382 -0400,10680.17102029167,0.530914306640625,0.38714599609375,-0.2277374267578125,1,0.97
2020-05-16 12:35:43.446 -0400,10680.23599429167,0.5072784423828125,0.6156463623046875,-0.25762939453125,1,0.97
2020-05-16 12:35:43.511 -0400,10680.30096929167,0.65911865234375,0.683380126953125,-0.271087646484375,1,0.97
2020-05-16 12:35:43.576 -0400,10680.36594429167,0.932708740234375,0.73150634765625,-0.29498291015625,1,0.97
2020-05-16 12:35:43.641 -0400,10680.43091829167,1.527206420898438,0.912933349609375,-0.5238494873046875,1,0.97
2020-05-16 12:35:43.706 -0400,10680.49589329167,1.60552978515625,0.5626373291015625,-0.4203948974609375,1,0.97
2020-05-16 12:35:43.771 -0400,10680.56086829167,1.7083740234375,0.3424072265625,-0.3612518310546875,1,0.97
2020-05-16 12:35:43.836 -0400,10680.62584329167,1.025863647460938,0.28155517578125,-0.343505859375,1,0.97
2020-05-16 12:35:43.901 -0400,10680.69081729167,0.636383056640625,0.24224853515625,-0.204559326171875,1,0.97
2020-05-16 12:35:43.966 -0400,10680.75579229167,0.5008697509765625,0.1320037841796875,-0.0956573486328125,1,0.97
2020-05-16 12:35:44.031 -0400,10680.82076729167,0.4820404052734375,0.0539398193359375,-0.08013916015625,1,0.97
2020-05-16 12:35:44.096 -0400,10680.88574129167,0.670196533203125,0.1866607666015625,-0.0149993896484375,1,0.97
2020-05-16 12:35:44.161 -0400,10680.95071629167,1.170150756835938,0.490753173828125,-0.1207427978515625,1,0.97
2020-05-16 12:35:44.226 -0400,10681.01569129167,1.582015991210938,0.7077178955078125,-0.1310577392578125,1,0.97
2020-05-16 12:35:44.291 -0400,10681.080667125,1.695526123046875,0.806640625,-0.6518707275390625,1,0.97
2020-05-16 12:35:44.356 -0400,10681.145642125,1.072296142578125,0.6548004150390625,-0.1845245361328125,1,0.97
2020-05-16 12:35:44.424 -0400,10681.210617125,0.7884063720703125,0.518524169921875,-0.317230224609375,1,0.97
2020-05-16 12:35:44.486 -0400,10681.275591125,0.589569091796875,0.7176055908203125,-0.3605804443359375,1,0.97
2020-05-16 12:35:44.551 -0400,10681.340566125,0.6134796142578125,1.085983276367188,-0.3625030517578125,1,0.97
2020-05-16 12:35:44.616 -0400,10681.405541125,1.2568359375,1.02191162109375,-0.4041290283203125,1,0.97
2020-05-16 12:35:44.681 -0400,10681.470515125,1.758560180664062,0.44873046875,-0.305145263671875,1,0.97
2020-05-16 12:35:44.746 -0400,10681.535490125,2.058761596679688,0.5338287353515625,-0.2813720703125,1,0.97
2020-05-16 12:35:44.811 -0400,10681.600465125,1.622024536132812,0.53466796875,-0.291656494140625,1,0.97
2020-05-16 12:35:44.876 -0400,10681.665440125,1.204544067382812,0.329315185546875,-0.1051788330078125,1,0.97
2020-05-16 12:35:44.941 -0400,10681.730414125,0.840179443359375,0.1375274658203125,0.020721435546875,1,0.97
2020-05-16 12:35:45.006 -0400,10681.795389125,0.621551513671875,0.0157012939453125,0.0156707763671875,1,0.97
2020-05-16 12:35:45.072 -0400,10681.860364125,0.5859375,0.0357818603515625,0.06585693359375,1,0.97
2020-05-16 12:35:45.136 -0400,10681.925338125,0.5407867431640625,0.2816009521484375,-0.006256103515625,1,0.97
2020-05-16 12:35:45.201 -0400,10681.990313125,0.813323974609375,0.922119140625,-0.2129058837890625,1,0.97
2020-05-16 12:35:45.266 -0400,10682.05528791667,1.310821533203125,0.913116455078125,-0.4794921875,1,0.97
2020-05-16 12:35:45.331 -0400,10682.12026191667,1.373931884765625,0.917724609375,-0.4494781494140625,1,0.97
2020-05-16 12:35:45.395 -0400,10682.18523691667,0.919219970703125,0.7194061279296875,-0.336883544921875,1,0.97
2020-05-16 12:35:45.461 -0400,10682.25021191667,0.676025390625,0.765533447265625,-0.343048095703125,1,0.97
2020-05-16 12:35:45.525 -0400,10682.31518591667,0.5974273681640625,0.8390350341796875,-0.258270263671875,1,0.97
2020-05-16 12:35:45.591 -0400,10682.38016091667,0.920928955078125,1.086135864257812,-0.2808685302734375,1,0.97
2020-05-16 12:35:45.656 -0400,10682.44513591667,1.369338989257812,1.09814453125,-0.3867340087890625,1,0.97
2020-05-16 12:35:45.720 -0400,10682.51010991667,1.647918701171875,0.536285400390625,-0.2751922607421875,1,0.97
2020-05-16 12:35:45.785 -0400,10682.57508491667,1.817291259765625,0.478668212890625,-0.218994140625,1,0.97
2020-05-16 12:35:45.850 -0400,10682.64005991667,1.244155883789062,0.4268646240234375,-0.1808013916015625,1,0.97
2020-05-16 12:35:45.915 -0400,10682.70503391667,0.99566650390625,0.3053741455078125,-0.049041748046875,1,0.97
2020-05-16 12:35:45.980 -0400,10682.77000891667,0.880859375,0.1980133056640625,-7.62939453125e-05,1,0.97
2020-05-16 12:35:46.045 -0400,10682.83498391667,0.7681427001953125,0.144989013671875,0.018951416015625,1,0.97
2020-05-16 12:35:46.111 -0400,10682.89995791667,0.5995330810546875,0.1509246826171875,0.0337677001953125,1,0.97
2020-05-16 12:35:46.175 -0400,10682.96493291667,0.7235565185546875,0.372833251953125,-0.0625152587890625,1,0.97
2020-05-16 12:35:46.240 -0400,10683.02990791667,0.847869873046875,0.84307861328125,-0.1183929443359375,1,0.97
2020-05-16 12:35:46.305 -0400,10683.0948815,1.394699096679688,1.021194458007812,-0.46490478515625,1,0.97
2020-05-16 12:35:46.370 -0400,10683.1598565,1.308807373046875,0.8386077880859375,-0.38116455078125,1,0.97
2020-05-16 12:35:46.435 -0400,10683.2248315,0.918701171875,0.78369140625,-0.4618988037109375,1,0.97
2020-05-16 12:35:46.500 -0400,10683.2898065,0.6281585693359375,0.89825439453125,-0.5018157958984375,1,0.97
2020-05-16 12:35:46.565 -0400,10683.3547805,0.52606201171875,0.9320526123046875,-0.574554443359375,1,0.97
2020-05-16 12:35:46.630 -0400,10683.4197555,0.8346099853515625,0.8453369140625,-0.54974365234375,1,0.97
2020-05-16 12:35:46.695 -0400,10683.4847305,1.839431762695312,0.7986907958984375,-0.605255126953125,1,0.97
2020-05-16 12:35:46.760 -0400,10683.5497045,2.109222412109375,0.3594207763671875,-0.0070648193359375,1,0.97
2020-05-16 12:35:46.825 -0400,10683.6146795,1.619598388671875,0.6359100341796875,-0.3450775146484375,1,0.97
2020-05-16 12:35:46.890 -0400,10683.6796545,1.137771606445312,0.5740966796875,-0.1012725830078125,1,0.97
2020-05-16 12:35:46.955 -0400,10683.7446285,0.7670135498046875,0.2487945556640625,-0.01971435546875,1,0.97
2020-05-16 12:35:47.020 -0400,10683.8096035,0.6298675537109375,0.0418701171875,-0.0436859130859375,1,0.97
2020-05-16 12:35:47.085 -0400,10683.8745785,0.51861572265625,-0.0258331298828125,-0.05999755859375,1,0.97
2020-05-16 12:35:47.150 -0400,10683.9395525,0.466705322265625,0.0777435302734375,-0.1075897216796875,1,0.97
2020-05-16 12:35:47.215 -0400,10684.0045275,0.879638671875,0.54833984375,-0.1991729736328125,1,0.97
2020-05-16 12:35:47.280 -0400,10684.069502875,1.1544189453125,1.047012329101562,-0.41015625,1,0.97
2020-05-16 12:35:47.345 -0400,10684.134476875,1.277542114257812,1.082977294921875,-0.56396484375,1,0.97
2020-05-16 12:35:47.410 -0400,10684.199451875,1.070999145507812,1.021835327148438,-0.3501434326171875,1,0.97
2020-05-16 12:35:47.475 -0400,10684.264426875,0.7353973388671875,0.995269775390625,-0.31304931640625,1,0.97
2020-05-16 12:35:47.540 -0400,10684.329400875,0.4894256591796875,0.9243316650390625,-0.2669219970703125,1,0.97
2020-05-16 12:35:47.605 -0400,10684.394375875,0.5484619140625,0.9781036376953125,-0.329803466796875,1,0.97
2020-05-16 12:35:47.670 -0400,10684.459350875,0.9863739013671875,0.843780517578125,-0.3585357666015625,1,0.97
2020-05-16 12:35:47.735 -0400,10684.524324875,2.090530395507812,0.8316650390625,-0.1905670166015625,1,0.97
2020-05-16 12:35:47.800 -0400,10684.589299875,1.87939453125,0.3888702392578125,-0.1837310791015625,1,0.97
2020-05-16 12:35:47.865 -0400,10684.654274875,1.245330810546875,0.42108154296875,-0.053466796875,1,0.97
2020-05-16 12:35:47.930 -0400,10684.719248875,0.68853759765625,0.212493896484375,-0.0034637451171875,1,0.97
2020-05-16 12:35:47.994 -0400,10684.784223875,0.6155853271484375,0.2041168212890625,-0.0086669921875,1,0.97
2020-05-16 12:35:48.060 -0400,10684.849198875,0.671051025390625,0.1042327880859375,-0.0051116943359375,1,0.97
2020-05-16 12:35:48.125 -0400,10684.914172875,0.831329345703125,0.15411376953125,0.0444488525390625,1,0.97
2020-05-16 12:35:48.190 -0400,10684.979147875,0.8972015380859375,0.2995147705078125,-0.06951904296875,1,0.97
2020-05-16 12:35:48.273 -0400,10685.044122875,1.0882568359375,0.728729248046875,-0.2257537841796875,1,0.97
2020-05-16 12:35:48.319 -0400,10685.10909691667,1.4234619140625,0.5297088623046875,-0.7004852294921875,1,0.97
2020-05-16 12:35:48.384 -0400,10685.17407191667,1.355880737304688,0.6270751953125,-0.475616455078125,1,0.97
2020-05-16 12:35:48.450 -0400,10685.23904691667,0.5972137451171875,0.509185791015625,-0.470184326171875,1,0.97
2020-05-16 12:35:48.514 -0400,10685.30402091667,0.4869842529296875,0.6978912353515625,-0.466400146484375,1,0.97
2020-05-16 12:35:48.579 -0400,10685.36899591667,0.4617156982421875,0.7086181640625,-0.45721435546875,1,0.97
2020-05-16 12:35:48.644 -0400,10685.43397091667,0.8162384033203125,0.716705322265625,-0.461517333984375,1,0.97
2020-05-16 12:35:48.709 -0400,10685.49894491667,1.950057983398438,0.7703094482421875,-0.4636383056640625,1,0.97
2020-05-16 12:35:48.774 -0400,10685.56391991667,1.7550048828125,0.525604248046875,-0.27691650390625,1,0.97
2020-05-16 12:35:48.839 -0400,10685.62889391667,1.6822509765625,0.5121612548828125,-0.2393951416015625,1,0.97
2020-05-16 12:35:48.904 -0400,10685.69386891667,1.07427978515625,0.4382781982421875,-0.1831207275390625,1,0.97
2020-05-16 12:35:48.969 -0400,10685.75884391667,0.770843505859375,0.2182464599609375,-0.0853729248046875,1,0.97
2020-05-16 12:35:49.034 -0400,10685.82381791667,0.710906982421875,0.0796051025390625,0.0032958984375,1,0.97
2020-05-16 12:35:49.099 -0400,10685.88879291667,0.682861328125,0.0615386962890625,-0.0142974853515625,1,0.97
2020-05-16 12:35:49.164 -0400,10685.95376791667,0.6960906982421875,0.184539794921875,-0.0674285888671875,1,0.97
2020-05-16 12:35:49.229 -0400,10686.01874191667,0.6773681640625,0.5270843505859375,-0.1844482421875,1,0.97
2020-05-16 12:35:49.294 -0400,10686.08371591667,0.731964111328125,1.039642333984375,-0.600250244140625,1,0.97
2020-05-16 12:35:49.359 -0400,10686.14869091667,1.208084106445312,0.778106689453125,-0.466766357421875,1,0.97
2020-05-16 12:35:49.424 -0400,10686.21366491667,0.8945159912109375,0.718109130859375,-0.5142059326171875,1,0.97
2020-05-16 12:35:49.489 -0400,10686.27863991667,0.5424041748046875,0.677459716796875,-0.446746826171875,1,0.97
2020-05-16 12:35:49.554 -0400,10686.34361491667,0.5438385009765625,0.68927001953125,-0.4709014892578125,1,0.97
2020-05-16 12:35:49.619 -0400,10686.40858891667,0.6218719482421875,0.737884521484375,-0.4673004150390625,1,0.97
2020-05-16 12:35:49.684 -0400,10686.47356391667,0.985565185546875,0.7881011962890625,-0.5054779052734375,1,0.97
2020-05-16 12:35:49.749 -0400,10686.53853891667,1.062759399414062,0.4720001220703125,-0.360565185546875,1,0.97
2020-05-16 12:35:49.814 -0400,10686.60351291667,1.92266845703125,0.731353759765625,-0.2855377197265625,1,0.97
2020-05-16 12:35:49.879 -0400,10686.66848791667,1.589614868164062,0.507568359375,-0.2164154052734375,1,0.97
2020-05-16 12:35:49.944 -0400,10686.73346291667,0.916290283203125,0.3284759521484375,-0.14697265625,1,0.97
2020-05-16 12:35:50.009 -0400,10686.79843691667,0.749420166015625,0.2584075927734375,-0.0249481201171875,1,0.97
2020-05-16 12:35:50.074 -0400,10686.86341191667,0.51416015625,0.18218994140625,-0.011627197265625,1,0.97
2020-05-16 12:35:50.139 -0400,10686.92838691667,0.48980712890625,0.1177215576171875,0.088836669921875,1,0.97
2020-05-16 12:35:50.204 -0400,10686.99336091667,0.5557708740234375,0.1867523193359375,0.0608673095703125,1,0.97
2020-05-16 12:35:50.269 -0400,10687.058336875,0.861236572265625,0.5785064697265625,-0.3278045654296875,1,0.97
2020-05-16 12:35:50.334 -0400,10687.123310875,1.460617065429688,0.79998779296875,-0.20794677734375,1,0.97
2020-05-16 12:35:50.399 -0400,10687.188285875,1.256729125976562,0.8712921142578125,-0.7241973876953125,1,0.97
2020-05-16 12:35:50.464 -0400,10687.253260875,1.129959106445312,0.8339080810546875,-0.4563140869140625,1,0.97
2020-05-16 12:35:50.529 -0400,10687.318234875,0.5846710205078125,0.381256103515625,-0.2436981201171875,1,0.97
2020-05-16 12:35:50.593 -0400,10687.383209875,0.4044647216796875,0.5631103515625,-0.2844696044921875,1,0.97
2020-05-16 12:35:50.659 -0400,10687.448184875,0.4947052001953125,0.7540283203125,-0.331024169921875,1,0.97
2020-05-16 12:35:50.724 -0400,10687.513158875,2.009902954101562,1.064407348632812,-0.700439453125,1,0.97
2020-05-16 12:35:50.789 -0400,10687.578133875,2.08294677734375,0.0943756103515625,-0.061065673828125,1,0.97
2020-05-16 12:35:50.853 -0400,10687.643108875,1.814483642578125,0.4732208251953125,-0.170013427734375,1,0.97
2020-05-16 12:35:50.919 -0400,10687.708082875,1.0843505859375,0.5909271240234375,-0.20208740234375,1,0.97
2020-05-16 12:35:50.983 -0400,10687.773057875,0.851654052734375,0.2937774658203125,-0.0150604248046875,1,0.97
2020-05-16 12:35:51.048 -0400,10687.838032875,0.72930908203125,0.1296234130859375,0.0391998291015625,1,0.97
2020-05-16 12:35:51.113 -0400,10687.903006875,0.66619873046875,-0.0076446533203125,0.0439453125,1,0.97
2020-05-16 12:35:51.178 -0400,10687.967981875,0.4835205078125,0.0569610595703125,0.0947113037109375,1,0.97
2020-05-16 12:35:51.243 -0400,10688.032955875,0.4195098876953125,0.4314727783203125,-0.148468017578125,1,0.97
2020-05-16 12:35:51.308 -0400,10688.097930125,0.9568634033203125,1.1387939453125,-0.275390625,1,0.97
2020-05-16 12:35:51.373 -0400,10688.162905125,1.714950561523438,0.7603912353515625,-0.5827178955078125,1,0.97
2020-05-16 12:35:51.438 -0400,10688.227879125,1.2611083984375,0.7658538818359375,-0.2659912109375,1,0.97
2020-05-16 12:35:51.503 -0400,10688.292854125,0.8081207275390625,0.635528564453125,-0.263275146484375,1,0.97
2020-05-16 12:35:51.568 -0400,10688.357829125,0.6667633056640625,0.813873291015625,-0.343780517578125,1,0.97
2020-05-16 12:35:51.633 -0400,10688.422803125,0.415283203125,0.8669281005859375,-0.2780303955078125,1,0.97
2020-05-16 12:35:51.698 -0400,10688.487778125,1.645263671875,1.53387451171875,-0.566131591796875,1,0.97
2020-05-16 12:35:51.763 -0400,10688.552753125,1.503997802734375,-0.07781982421875,-0.1786346435546875,1,0.97
2020-05-16 12:35:51.828 -0400,10688.617727125,1.5733642578125,0.5369110107421875,-0.370849609375,1,0.97
2020-05-16 12:35:51.893 -0400,10688.682702125,1.466873168945312,0.811859130859375,-0.249664306640625,1,0.97
2020-05-16 12:35:51.958 -0400,10688.747677125,0.971954345703125,0.1847991943359375,-0.098846435546875,1,0.97
2020-05-16 12:35:52.023 -0400,10688.812651125,0.7150421142578125,0.068389892578125,-0.09442138671875,1,0.97
2020-05-16 12:35:52.088 -0400,10688.877626125,0.605133056640625,0.092315673828125,-0.0882720947265625,1,0.97
2020-05-16 12:35:52.153 -0400,10688.942600125,0.5008544921875,0.05535888671875,-0.0492401123046875,1,0.97
2020-05-16 12:35:52.218 -0400,10689.007575125,0.5479736328125,0.33880615234375,-0.054595947265625,1,0.97
2020-05-16 12:35:52.283 -0400,10689.072550125,1.242813110351562,1.045791625976562,-0.1474761962890625,1,0.97
2020-05-16 12:35:52.348 -0400,10689.137524125,1.356216430664062,0.6245574951171875,-0.5504913330078125,1,0.97
2020-05-16 12:35:52.413 -0400,10689.202499125,1.486648559570312,0.87615966796875,-0.3226165771484375,1,0.97
2020-05-16 12:35:52.478 -0400,10689.267474125,0.8095855712890625,0.6063690185546875,-0.28790283203125,1,0.97
2020-05-16 12:35:52.543 -0400,10689.332448125,0.5727081298828125,0.4428558349609375,-0.2150115966796875,1,0.97
2020-05-16 12:35:52.608 -0400,10689.397423125,0.4802703857421875,0.508941650390625,-0.230010986328125,1,0.97
2020-05-16 12:35:52.673 -0400,10689.462398125,0.6760101318359375,0.7593994140625,-0.3502197265625,1,0.97
2020-05-16 12:35:52.738 -0400,10689.527372125,0.9578704833984375,0.6486968994140625,-0.2091827392578125,1,0.97
2020-05-16 12:35:52.803 -0400,10689.592347125,2.301406860351562,0.95526123046875,-0.67767333984375,1,0.97
2020-05-16 12:35:52.868 -0400,10689.657321125,1.73907470703125,0.542724609375,-0.659027099609375,1,0.97
2020-05-16 12:35:52.933 -0400,10689.722296125,1.495010375976562,0.435089111328125,-0.37762451171875,1,0.97
2020-05-16 12:35:52.998 -0400,10689.787271125,0.8810882568359375,0.1645355224609375,-0.22119140625,1,0.97
2020-05-16 12:35:53.063 -0400,10689.852245125,0.6889801025390625,0.0888519287109375,-0.00762939453125,1,0.97
2020-05-16 12:35:53.128 -0400,10689.917220125,0.4008331298828125,0.011627197265625,0.055908203125,1,0.97
2020-05-16 12:35:53.192 -0400,10689.982195125,0.2901153564453125,0.0059661865234375,0.01800537109375,1,0.97
2020-05-16 12:35:53.258 -0400,10690.047169125,0.1795654296875,0.1800537109375,-0.07525634765625,1,0.97
2020-05-16 12:35:53.322 -0400,10690.112143625,1.020355224609375,1.090972900390625,-0.278289794921875,1,0.97
2020-05-16 12:35:53.388 -0400,10690.177117625,1.443710327148438,0.7447662353515625,-0.67840576171875,1,0.97
2020-05-16 12:35:53.452 -0400,10690.242092625,1.817764282226562,1.118240356445312,-0.371124267578125,1,0.97
2020-05-16 12:35:53.518 -0400,10690.307067625,1.05224609375,0.6240692138671875,-0.2451934814453125,1,0.97
2020-05-16 12:35:53.582 -0400,10690.372041625,0.6299896240234375,0.4940338134765625,-0.2176666259765625,1,0.97
2020-05-16 12:35:53.647 -0400,10690.437016625,0.31414794921875,0.7129974365234375,-0.188232421875,1,0.97
2020-05-16 12:35:53.712 -0400,10690.501991625,0.4687652587890625,0.6405181884765625,-0.1700592041015625,1,0.97
2020-05-16 12:35:53.777 -0400,10690.566965625,1.304336547851562,1.007278442382812,-0.2924346923828125,1,0.97
2020-05-16 12:35:53.842 -0400,10690.631940625,1.986541748046875,0.6202392578125,0.0498809814453125,1,0.97
2020-05-16 12:35:53.907 -0400,10690.696914625,1.72613525390625,0.4278717041015625,-0.4711456298828125,1,0.97
2020-05-16 12:35:53.972 -0400,10690.761889625,1.382232666015625,0.6728515625,-0.2578125,1,0.97
2020-05-16 12:35:54.037 -0400,10690.826864625,1.014450073242188,0.14739990234375,-0.1291046142578125,1,0.97
2020-05-16 12:35:54.102 -0400,10690.891838625,0.5102081298828125,-0.1605682373046875,-0.0054931640625,1,0.97
2020-05-16 12:35:54.167 -0400,10690.956813625,0.3793182373046875,-0.0078887939453125,-0.043792724609375,1,0.97
2020-05-16 12:35:54.232 -0400,10691.021788625,0.4227447509765625,0.2602996826171875,-0.061920166015625,1,0.97
2020-05-16 12:35:54.297 -0400,10691.08676316667,0.695831298828125,0.9139251708984375,-0.1238250732421875,1,0.97
2020-05-16 12:35:54.362 -0400,10691.15173816667,0.8614044189453125,0.901611328125,-0.4458465576171875,1,0.97
2020-05-16 12:35:54.427 -0400,10691.21671216667,1.084228515625,0.7509613037109375,-0.47198486328125,1,0.97
2020-05-16 12:35:54.492 -0400,10691.28168716667,0.8965301513671875,0.5882415771484375,-0.14825439453125,1,0.97
2020-05-16 12:35:54.557 -0400,10691.34666216667,0.7943267822265625,0.65374755859375,-0.1732635498046875,1,0.97
2020-05-16 12:35:54.622 -0400,10691.41163616667,0.530975341796875,0.590667724609375,-0.149627685546875,1,0.97
2020-05-16 12:35:54.687 -0400,10691.47661116667,0.581787109375,0.6354522705078125,-0.1881103515625,1,0.97
2020-05-16 12:35:54.752 -0400,10691.54158516667,0.7625274658203125,0.5565948486328125,-0.025146484375,1,0.97
2020-05-16 12:35:54.817 -0400,10691.60656016667,2.039840698242188,1.11102294921875,-0.2437591552734375,1,0.97
2020-05-16 12:35:54.882 -0400,10691.67153516667,1.7230224609375,0.6554107666015625,-0.573638916015625,1,0.97
2020-05-16 12:35:54.947 -0400,10691.73650916667,1.268539428710938,0.5500335693359375,-0.51275634765625,1,0.97
2020-05-16 12:35:55.012 -0400,10691.80148416667,1.044296264648438,0.26800537109375,-0.1710205078125,1,0.97
2020-05-16 12:35:55.077 -0400,10691.86645916667,0.632568359375,0.0812835693359375,-0.2085418701171875,1,0.97
2020-05-16 12:35:55.142 -0400,10691.93143316667,0.3689422607421875,0.0515594482421875,-0.1615753173828125,1,0.97
2020-05-16 12:35:55.207 -0400,10691.99640816667,0.2817535400390625,0.0247955322265625,-0.097503662109375,1,0.97
2020-05-16 12:35:55.272 -0400,10692.061381625,0.383575439453125,0.178070068359375,-0.09747314453125,1,0.97
2020-05-16 12:35:55.337 -0400,10692.126356625,1.3486328125,1.645736694335938,-0.1241455078125,1,0.97
2020-05-16 12:35:55.402 -0400,10692.191331625,1.51422119140625,0.580535888671875,-0.688262939453125,1,0.97
2020-05-16 12:35:55.467 -0400,10692.256305625,1.4786376953125,0.820098876953125,-0.3508453369140625,1,0.97
2020-05-16 12:35:55.531 -0400,10692.321280625,0.8448333740234375,0.729248046875,-0.2764739990234375,1,0.97
2020-05-16 12:35:55.597 -0400,10692.386254625,0.5488128662109375,0.453826904296875,-0.282196044921875,1,0.97
2020-05-16 12:35:55.662 -0400,10692.451229625,0.3000640869140625,0.5602874755859375,-0.20831298828125,1,0.97
2020-05-16 12:35:55.727 -0400,10692.516204625,0.47100830078125,0.730133056640625,-0.1543426513671875,1,0.97
2020-05-16 12:35:55.791 -0400,10692.581178625,2.059463500976562,1.491485595703125,-0.54345703125,1,0.97
2020-05-16 12:35:55.857 -0400,10692.646153625,1.5628662109375,0.1038665771484375,-0.01837158203125,1,0.97
2020-05-16 12:35:55.921 -0400,10692.711128625,1.702789306640625,0.4215240478515625,-0.229888916015625,1,0.97
2020-05-16 12:35:55.986 -0400,10692.776102625,1.34442138671875,0.5061187744140625,-0.044921875,1,0.97
2020-05-16 12:35:56.051 -0400,10692.841077625,0.978546142578125,0.1777191162109375,0.054718017578125,1,0.97
2020-05-16 12:35:56.116 -0400,10692.906051625,0.78118896484375,0.16851806640625,0.1132354736328125,1,0.97
2020-05-16 12:35:56.181 -0400,10692.971026625,0.580474853515625,0.1302947998046875,0.0499420166015625,1,0.97
2020-05-16 12:35:56.246 -0400,10693.036001625,0.4810333251953125,0.0940399169921875,0.1132049560546875,1,0.97
2020-05-16 12:35:56.311 -0400,10693.10097666667,0.6306610107421875,0.4610748291015625,0.0446014404296875,1,0.97
2020-05-16 12:35:56.376 -0400,10693.16595166667,0.9529876708984375,0.854522705078125,-0.48529052734375,1,0.97
2020-05-16 12:35:56.441 -0400,10693.23092566667,1.516693115234375,0.96466064453125,-0.525726318359375,1,0.97
2020-05-16 12:35:56.506 -0400,10693.29590066667,1.252975463867188,0.9586639404296875,-0.521881103515625,1,0.97
2020-05-16 12:35:56.571 -0400,10693.36087566667,0.7396392822265625,0.2222137451171875,-0.4014892578125,1,0.97
2020-05-16 12:35:56.636 -0400,10693.42584966667,0.5024566650390625,0.57025146484375,-0.6010589599609375,1,0.97
2020-05-16 12:35:56.701 -0400,10693.49082466667,0.4361114501953125,0.6322174072265625,-0.46087646484375,1,0.97
2020-05-16 12:35:56.766 -0400,10693.55579966667,0.6547393798828125,0.49951171875,-0.4062042236328125,1,0.97
2020-05-16 12:35:56.831 -0400,10693.62077366667,1.692291259765625,0.7188873291015625,-0.5791778564453125,1,0.97
2020-05-16 12:35:56.896 -0400,10693.68574866667,1.877349853515625,0.46136474609375,0.6355133056640625,1,0.97
2020-05-16 12:35:56.961 -0400,10693.75072266667,1.355682373046875,0.127838134765625,-0.244720458984375,1,0.97
2020-05-16 12:35:57.026 -0400,10693.81569766667,0.7115020751953125,0.493621826171875,0.0994873046875,1,0.97
2020-05-16 12:35:57.091 -0400,10693.88067266667,0.4949951171875,0.35186767578125,0.1024932861328125,1,0.97
2020-05-16 12:35:57.156 -0400,10693.94564666667,0.45184326171875,0.058502197265625,0.1606597900390625,1,0.97
2020-05-16 12:35:57.221 -0400,10694.01062166667,0.4223175048828125,0.002960205078125,0.1687469482421875,1,0.97
2020-05-16 12:35:57.286 -0400,10694.075595625,0.512298583984375,0.2835845947265625,-4.57763671875e-05,1,0.97
2020-05-16 12:35:57.353 -0400,10694.140570625,1.762802124023438,1.3505859375,-0.0843658447265625,1,0.97
2020-05-16 12:35:57.416 -0400,10694.205545625,1.212020874023438,0.6555938720703125,-0.8953094482421875,1,0.97
2020-05-16 12:35:57.481 -0400,10694.270519625,1.264755249023438,1.0579833984375,-0.363128662109375,1,0.97
2020-05-16 12:35:57.546 -0400,10694.335494625,0.8165740966796875,0.5775146484375,-0.459075927734375,1,0.97
2020-05-16 12:35:57.611 -0400,10694.400469625,0.35882568359375,0.46856689453125,-0.325286865234375,1,0.97
2020-05-16 12:35:57.676 -0400,10694.465443625,0.3170318603515625,0.6560821533203125,-0.3642578125,1,0.97
2020-05-16 12:35:57.741 -0400,10694.530418625,1.82025146484375,1.274993896484375,-0.78692626953125,1,0.97
2020-05-16 12:35:57.806 -0400,10694.595393625,1.937026977539062,0.2234039306640625,0.1591339111328125,1,0.97
2020-05-16 12:35:57.871 -0400,10694.660367625,1.712066650390625,0.3255462646484375,-0.206939697265625,1,0.97
2020-05-16 12:35:57.936 -0400,10694.725342625,1.037139892578125,0.5994720458984375,-0.065582275390625,1,0.97
2020-05-16 12:35:58.001 -0400,10694.790317625,0.7602386474609375,0.2841796875,0.072784423828125,1,0.97
2020-05-16 12:35:58.066 -0400,10694.855291625,0.5763092041015625,0.0588226318359375,0.115020751953125,1,0.97
2020-05-16 12:35:58.130 -0400,10694.920266625,0.6197052001953125,0.074737548828125,0.0898590087890625,1,0.97
2020-05-16 12:35:58.196 -0400,10694.985241625,0.6599578857421875,0.1204986572265625,0.088775634765625,1,0.97
2020-05-16 12:35:58.260 -0400,10695.050215625,0.9642486572265625,0.983642578125,0.073333740234375,1,0.97
2020-05-16 12:35:58.326 -0400,10695.11519029167,1.210525512695312,0.6550140380859375,-0.6936187744140625,1,0.97
2020-05-16 12:35:58.390 -0400,10695.18016529167,1.601547241210938,1.032455444335938,-0.3521270751953125,1,0.97
2020-05-16 12:35:58.455 -0400,10695.24513929167,0.7615966796875,0.472198486328125,-0.3272552490234375,1,0.97
2020-05-16 12:35:58.520 -0400,10695.31011429167,0.613983154296875,0.4628753662109375,-0.2815704345703125,1,0.97
2020-05-16 12:35:58.586 -0400,10695.37508929167,0.6405029296875,0.649688720703125,-0.3643798828125,1,0.97
2020-05-16 12:35:58.650 -0400,10695.44006329167,0.93701171875,0.703857421875,-0.3772735595703125,1,0.97
2020-05-16 12:35:58.716 -0400,10695.50503829167,1.8040771484375,0.7362060546875,-0.5966949462890625,1,0.97
2020-05-16 12:35:58.780 -0400,10695.57001329167,1.623443603515625,0.458953857421875,-0.313720703125,1,0.97
2020-05-16 12:35:58.845 -0400,10695.63498729167,1.816696166992188,0.4370269775390625,-0.1312408447265625,1,0.97
2020-05-16 12:35:58.910 -0400,10695.69996229167,1.092636108398438,0.4010467529296875,-0.323150634765625,1,0.97
2020-05-16 12:35:58.975 -0400,10695.76493729167,0.80462646484375,0.2291107177734375,-0.1528472900390625,1,0.97
2020-05-16 12:35:59.040 -0400,10695.82991229167,0.5256805419921875,0.0081634521484375,-0.007568359375,1,0.97
2020-05-16 12:35:59.105 -0400,10695.89488629167,0.423065185546875,-0.03924560546875,-0.00634765625,1,0.97
2020-05-16 12:35:59.170 -0400,10695.95986129167,0.2921142578125,0.0946197509765625,0.0261993408203125,1,0.97
2020-05-16 12:35:59.235 -0400,10696.02483629167,0.546966552734375,0.7797088623046875,-0.1003570556640625,1,0.97
2020-05-16 12:35:59.304 -0400,10696.08981029167,1.416580200195312,0.8553924560546875,-0.1307373046875,1,0.97
2020-05-16 12:35:59.365 -0400,10696.15478529167,1.871627807617188,0.6218414306640625,-0.398284912109375,1,0.97
2020-05-16 12:35:59.430 -0400,10696.21976029167,1.115158081054688,0.6956787109375,-0.1301116943359375,1,0.97
2020-05-16 12:35:59.495 -0400,10696.28473529167,0.520233154296875,0.576416015625,-0.09014892578125,1,0.97
2020-05-16 12:35:59.560 -0400,10696.34970929167,0.5886688232421875,0.644134521484375,-0.04718017578125,1,0.97
2020-05-16 12:35:59.625 -0400,10696.41468429167,0.7494354248046875,0.715667724609375,-0.06427001953125,1,0.97
2020-05-16 12:35:59.690 -0400,10696.47965929167,0.762603759765625,0.7800750732421875,-0.1332855224609375,1,0.97
2020-05-16 12:35:59.755 -0400,10696.54463429167,0.81854248046875,0.9113006591796875,-0.26611328125,1,0.97
2020-05-16 12:35:59.820 -0400,10696.60960829167,1.289337158203125,1.009201049804688,-0.4669189453125,1,0.97
2020-05-16 12:35:59.885 -0400,10696.67458329167,1.7547607421875,0.6190338134765625,-0.230560302734375,1,0.97
2020-05-16 12:35:59.950 -0400,10696.73955829167,2.054794311523438,0.4371337890625,-0.203857421875,1,0.97
2020-05-16 12:36:00.015 -0400,10696.80453229167,1.256210327148438,0.3064117431640625,-0.1273040771484375,1,0.97
2020-05-16 12:36:00.080 -0400,10696.86950729167,0.7128143310546875,0.2198028564453125,-0.0298919677734375,1,0.97
2020-05-16 12:36:00.145 -0400,10696.93448229167,0.3323516845703125,0.08709716796875,0.04327392578125,1,0.97
2020-05-16 12:36:00.210 -0400,10696.99945729167,0.17724609375,0.03900146484375,0.02410888671875,1,0.97
2020-05-16 12:36:00.275 -0400,10697.064430375,0.30975341796875,0.1068267822265625,0.047821044921875,1,0.97
2020-05-16 12:36:00.340 -0400,10697.129405375,0.464263916015625,0.3451690673828125,-0.0827789306640625,1,0.97
2020-05-16 12:36:00.405 -0400,10697.194380375,1.991195678710938,1.2340087890625,0.110504150390625,1,0.97
2020-05-16 12:36:00.470 -0400,10697.259355375,1.431625366210938,0.86065673828125,-0.7337188720703125,1,0.97
2020-05-16 12:36:00.535 -0400,10697.324329375,1.411453247070312,1,-0.1557769775390625,1,0.97
2020-05-16 12:36:00.600 -0400,10697.389304375,0.901458740234375,0.860992431640625,-0.3252105712890625,1,0.97
2020-05-16 12:36:00.665 -0400,10697.454279375,0.4720611572265625,0.6835784912109375,-0.2106475830078125,1,0.97
2020-05-16 12:36:00.730 -0400,10697.519254375,0.3904876708984375,0.5453033447265625,-0.1967315673828125,1,0.97
2020-05-16 12:36:00.795 -0400,10697.584228375,0.62139892578125,0.775604248046875,-0.1577606201171875,1,0.97
2020-05-16 12:36:00.859 -0400,10697.649203375,1.990997314453125,1.323760986328125,-0.6146392822265625,1,0.97
2020-05-16 12:36:00.924 -0400,10697.714178375,1.72705078125,0.455047607421875,-0.3023223876953125,1,0.97
2020-05-16 12:36:00.989 -0400,10697.779153375,2.151107788085938,0.617340087890625,-0.29656982421875,1,0.97
2020-05-16 12:36:01.054 -0400,10697.844128375,1.41497802734375,-0.0626983642578125,-0.05804443359375,1,0.97
2020-05-16 12:36:01.119 -0400,10697.909102375,0.993927001953125,0.03350830078125,-0.0214996337890625,1,0.97
2020-05-16 12:36:01.184 -0400,10697.974077375,0.7033538818359375,0.0910491943359375,0.038116455078125,1,0.97
2020-05-16 12:36:01.249 -0400,10698.039052375,0.48724365234375,0.3325042724609375,-0.056640625,1,0.97
2020-05-16 12:36:01.315 -0400,10698.104029,0.2371063232421875,0.259521484375,0.013153076171875,1,0.97
2020-05-16 12:36:01.379 -0400,10698.169004,-0.1327667236328125,0.0255584716796875,0.05523681640625,1,0.97
2020-05-16 12:36:01.444 -0400,10698.233978,-0.1250152587890625,0.1652069091796875,-0.0750274658203125,1,0.97
2020-05-16 12:36:01.509 -0400,10698.298953,0.3133544921875,1.647232055664062,-0.5526580810546875,1,0.97
2020-05-16 12:36:01.575 -0400,10698.363928,1.069351196289062,1.544876098632812,-0.843658447265625,1,0.97
2020-05-16 12:36:01.639 -0400,10698.428903,0.6249237060546875,1.4315185546875,-0.4190826416015625,1,0.97
2020-05-16 12:36:01.704 -0400,10698.493878,0.1394500732421875,0.7574310302734375,-0.3225555419921875,1,0.97
2020-05-16 12:36:01.769 -0400,10698.558852,0.0389862060546875,0.777923583984375,-0.103240966796875,1,0.97
2020-05-16 12:36:01.834 -0400,10698.623827,1.348739624023438,1.272933959960938,-0.5022125244140625,1,0.97
2020-05-16 12:36:01.899 -0400,10698.688802,1.506683349609375,0.7619476318359375,0.2472076416015625,1,0.97
2020-05-16 12:36:01.964 -0400,10698.753777,0.928680419921875,0.51202392578125,-0.2665557861328125,1,0.97
2020-05-16 12:36:02.029 -0400,10698.818752,0.69293212890625,0.4823150634765625,-0.0560455322265625,1,0.97
2020-05-16 12:36:02.094 -0400,10698.883726,0.4395751953125,0.2434539794921875,0.037811279296875,1,0.97
2020-05-16 12:36:02.159 -0400,10698.948701,0.3050384521484375,0.074798583984375,0.0179595947265625,1,0.97
2020-05-16 12:36:02.224 -0400,10699.013676,0.81329345703125,0.321319580078125,-0.0347137451171875,1,0.97
2020-05-16 12:36:02.289 -0400,10699.078650625,2.031448364257812,0.8959808349609375,-0.0223846435546875,1,0.97
2020-05-16 12:36:02.354 -0400,10699.143625625,1.205978393554688,0.5946044921875,-0.7355499267578125,1,0.97
2020-05-16 12:36:02.419 -0400,10699.208599625,0.9062957763671875,0.7294158935546875,-0.1765594482421875,1,0.97
2020-05-16 12:36:02.484 -0400,10699.273574625,0.705535888671875,0.76519775390625,-0.3115081787109375,1,0.97
2020-05-16 12:36:02.549 -0400,10699.338549625,0.37152099609375,0.5734100341796875,-0.2156982421875,1,0.97
2020-05-16 12:36:02.614 -0400,10699.403524625,0.1281585693359375,0.5667724609375,-0.2003936767578125,1,0.97
2020-05-16 12:36:02.679 -0400,10699.468499625,0.3480987548828125,0.561737060546875,-0.120849609375,1,0.97
2020-05-16 12:36:02.744 -0400,10699.533474625,2.989578247070312,1.486724853515625,0.254852294921875,1,0.97
2020-05-16 12:36:02.809 -0400,10699.598448625,1.500534057617188,-0.0414581298828125,0.185272216796875,1,0.97
2020-05-16 12:36:02.874 -0400,10699.663423625,1.033889770507812,0.300994873046875,-0.0818023681640625,1,0.97
2020-05-16 12:36:02.939 -0400,10699.728398625,0.766326904296875,0.5676727294921875,0.3275604248046875,1,0.97
2020-05-16 12:36:03.004 -0400,10699.793373625,0.4994964599609375,0.1297149658203125,0.185882568359375,1,0.97
2020-05-16 12:36:03.069 -0400,10699.858348625,0.5105743408203125,-0.0031890869140625,0.2081451416015625,1,0.97
2020-05-16 12:36:03.134 -0400,10699.923323625,0.7974853515625,0.1831817626953125,0.12615966796875,1,0.97
2020-05-16 12:36:03.199 -0400,10699.988297625,1.69439697265625,1.415145874023438,-0.0908966064453125,1,0.97
2020-05-16 12:36:03.264 -0400,10700.053272625,0.9683837890625,0.9989166259765625,-0.76141357421875,1,0.97
2020-05-16 12:36:03.329 -0400,10700.11824716667,0.548095703125,0.9063720703125,-0.3215789794921875,1,0.97
2020-05-16 12:36:03.394 -0400,10700.18322216667,0.2485198974609375,1.391799926757812,-0.68572998046875,1,0.97
2020-05-16 12:36:03.459 -0400,10700.24819716667,-0.0462188720703125,0.51617431640625,-0.2386322021484375,1,0.97
2020-05-16 12:36:03.524 -0400,10700.31317216667,-0.12872314453125,0.50732421875,-0.0232086181640625,1,0.97
2020-05-16 12:36:03.588 -0400,10700.37814616667,0.010284423828125,0.591094970703125,0.1504974365234375,1,0.97
2020-05-16 12:36:03.654 -0400,10700.44312116667,2.64202880859375,1.811294555664062,0.3057708740234375,1,0.97
2020-05-16 12:36:03.718 -0400,10700.50809616667,1.445220947265625,0.4960479736328125,0.1277618408203125,1,0.97
2020-05-16 12:36:03.783 -0400,10700.57307116667,0.7947998046875,0.44171142578125,-0.004913330078125,1,0.97
2020-05-16 12:36:03.848 -0400,10700.63804616667,0.5466461181640625,0.38006591796875,0.147369384765625,1,0.97
2020-05-16 12:36:03.913 -0400,10700.70302116667,0.50238037109375,0.248809814453125,0.0899200439453125,1,0.97
2020-05-16 12:36:03.978 -0400,10700.76799616667,0.47198486328125,0.1933135986328125,0.032958984375,1,0.97
2020-05-16 12:36:04.043 -0400,10700.83297116667,2.047592163085938,0.8780364990234375,0.0391387939453125,1,0.97
2020-05-16 12:36:04.108 -0400,10700.89794516667,1.157485961914062,0.95233154296875,-0.65118408203125,1,0.97
2020-05-16 12:36:04.173 -0400,10700.96292016667,0.887359619140625,1.121505737304688,-0.3451385498046875,1,0.97
2020-05-16 12:36:04.238 -0400,10701.02789516667,0.3905029296875,0.84674072265625,-0.3107452392578125,1,0.97
2020-05-16 12:36:04.303 -0400,10701.092871,-0.1488189697265625,0.5526123046875,-0.11419677734375,1,0.97
2020-05-16 12:36:04.368 -0400,10701.157846,-0.422271728515625,0.4974212646484375,-0.091888427734375,1,0.97
2020-05-16 12:36:04.433 -0400,10701.222821,1.03997802734375,1.592391967773438,-0.2350921630859375,1,0.97
2020-05-16 12:36:04.498 -0400,10701.287796,1.993667602539062,1.23602294921875,0.065826416015625,1,0.97
2020-05-16 12:36:04.563 -0400,10701.35277,1.269210815429688,0.831298828125,-0.1443634033203125,1,0.97
2020-05-16 12:36:04.628 -0400,10701.417745,1.305557250976562,0.5030670166015625,0.11077880859375,1,0.97
2020-05-16 12:36:04.693 -0400,10701.48272,0.469024658203125,-0.279998779296875,0.039825439453125,1,0.97
2020-05-16 12:36:04.758 -0400,10701.547695,0.0481414794921875,-0.4055328369140625,0.066864013671875,1,0.97
2020-05-16 12:36:04.823 -0400,10701.61267,0.1475982666015625,0.0518341064453125,-0.09771728515625,1,0.97
2020-05-16 12:36:04.888 -0400,10701.677645,1.68798828125,2.661773681640625,-0.27783203125,1,0.97
2020-05-16 12:36:04.953 -0400,10701.74262,0.5142669677734375,1.11785888671875,-0.56494140625,1,0.97
2020-05-16 12:36:05.018 -0400,10701.807595,-0.0698394775390625,0.408782958984375,-0.257904052734375,1,0.97
2020-05-16 12:36:05.083 -0400,10701.87257,-0.3228759765625,0.45977783203125,-0.2086944580078125,1,0.97
2020-05-16 12:36:05.148 -0400,10701.937544,1.016677856445312,1.539016723632812,-0.1412506103515625,1,0.97
2020-05-16 12:36:05.213 -0400,10702.002519,1.717941284179688,1.658004760742188,-0.3520050048828125,1,0.97
2020-05-16 12:36:05.278 -0400,10702.0674925,0.999786376953125,0.9639739990234375,-0.31170654296875,1,0.97
2020-05-16 12:36:05.343 -0400,10702.1324675,0.596771240234375,0.39849853515625,-0.0166168212890625,1,0.97
2020-05-16 12:36:05.410 -0400,10702.1974425,0.042633056640625,-0.2965240478515625,0.005218505859375,1,0.97
2020-05-16 12:36:05.473 -0400,10702.2624175,-0.21331787109375,-0.36383056640625,0.0533905029296875,1,0.97
2020-05-16 12:36:05.538 -0400,10702.3273925,0.0813140869140625,-0.1716766357421875,0.0615997314453125,1,0.97
2020-05-16 12:36:05.603 -0400,10702.3923675,3.44952392578125,3.260726928710938,-0.1752777099609375,1,0.97
2020-05-16 12:36:05.668 -0400,10702.4573425,1.508331298828125,1.268447875976562,-0.775848388671875,1,0.97
2020-05-16 12:36:05.733 -0400,10702.5223165,0.561859130859375,0.6633148193359375,0.0279083251953125,1,0.97
2020-05-16 12:36:05.798 -0400,10702.5872915,0.25946044921875,0.781494140625,-0.3689117431640625,1,0.97
2020-05-16 12:36:05.863 -0400,10702.6522665,-0.0049896240234375,0.4684295654296875,-0.05682373046875,1,0.97
2020-05-16 12:36:05.927 -0400,10702.7172415,-0.459991455078125,0.20263671875,0.0046539306640625,1,0.97
2020-05-16 12:36:05.993 -0400,10702.7822165,0.1406402587890625,0.691253662109375,0.18804931640625,1,0.97
2020-05-16 12:36:06.057 -0400,10702.8471915,2.378433227539062,2.138275146484375,0.2509765625,1,0.97
2020-05-16 12:36:06.123 -0400,10702.9121665,1.229339599609375,1.022048950195312,-0.168060302734375,1,0.97
2020-05-16 12:36:06.187 -0400,10702.9771415,0.4155120849609375,0.0231170654296875,0.0553131103515625,1,0.97
2020-05-16 12:36:06.253 -0400,10703.0421165,-0.0080413818359375,-0.3289794921875,0.027435302734375,1,0.97
2020-05-16 12:36:06.318 -0400,10703.107092875,-0.062744140625,-0.3759613037109375,-0.052947998046875,1,0.97
2020-05-16 12:36:06.383 -0400,10703.172067875,0.2507171630859375,0.420745849609375,-0.09295654296875,1,0.97
2020-05-16 12:36:06.447 -0400,10703.237041875,1.811294555664062,1.828964233398438,-0.983123779296875,1,0.97
2020-05-16 12:36:06.513 -0400,10703.302016875,0.56585693359375,0.947113037109375,-0.269744873046875,1,0.97
2020-05-16 12:36:06.577 -0400,10703.366991875,-0.0189056396484375,0.2660980224609375,-0.0362701416015625,1,0.97
2020-05-16 12:36:06.642 -0400,10703.431966875,-0.4407806396484375,0.1647796630859375,-0.2264251708984375,1,0.97
2020-05-16 12:36:06.707 -0400,10703.496941875,-0.2947998046875,0.4474334716796875,-0.106353759765625,1,0.97
2020-05-16 12:36:06.772 -0400,10703.561916875,1.514739990234375,2.770919799804688,-0.5948486328125,1,0.97
2020-05-16 12:36:06.837 -0400,10703.626891875,2.076171875,1.333343505859375,-0.1400299072265625,1,0.97
2020-05-16 12:36:06.902 -0400,10703.691866875,0.95172119140625,0.7069244384765625,-0.4952850341796875,1,0.97
2020-05-16 12:36:06.967 -0400,10703.756841875,0.3424072265625,0.23614501953125,-0.13568115234375,1,0.97
2020-05-16 12:36:07.032 -0400,10703.821816875,0.206451416015625,-0.0251922607421875,-0.02044677734375,1,0.97
2020-05-16 12:36:07.541 -0400,10703.886791875,0.237030029296875,-0.026519775390625,0.0345001220703125,1,0.97
2020-05-16 12:36:07.543 -0400,10703.951766875,0.3824920654296875,0.04229736328125,0.0492401123046875,1,0.97
2020-05-16 12:36:07.543 -0400,10704.016741875,1.310882568359375,1.170852661132812,0.0314788818359375,1,0.97
2020-05-16 12:36:07.545 -0400,10704.141691375,1.84637451171875,0.7590789794921875,-0.3504486083984375,1,0.97
2020-05-16 12:36:07.545 -0400,10704.211664375,0.66925048828125,0.8916473388671875,-0.121368408203125,1,0.97
2020-05-16 12:36:07.546 -0400,10704.281637375,0.3278350830078125,0.4222412109375,-0.1903076171875,1,0.97
2020-05-16 12:36:07.562 -0400,10704.351610375,0.4047698974609375,0.524505615234375,-0.039276123046875,1,0.97
2020-05-16 12:36:07.632 -0400,10704.421583375,0.7978668212890625,0.9263916015625,-0.15142822265625,1,0.97
2020-05-16 12:36:07.702 -0400,10704.491556375,0.7136383056640625,0.512786865234375,-0.11737060546875,1,0.97
2020-05-16 12:36:07.772 -0400,10704.561529375,2.960418701171875,1.294235229492188,-0.518798828125,1,0.97
2020-05-16 12:36:07.936 -0400,10704.631502375,1.946273803710938,0.5967254638671875,-0.2791900634765625,1,0.97
2020-05-16 12:36:07.959 -0400,10704.701475375,1.7581787109375,0.4422454833984375,-0.2256011962890625,1,0.97
2020-05-16 12:36:07.982 -0400,10704.771448375,0.6315765380859375,0.072113037109375,-0.16278076171875,1,0.97
2020-05-16 12:36:08.073 -0400,10704.841421375,0.3382415771484375,-0.00579833984375,-0.0304412841796875,1,0.97
2020-05-16 12:36:08.154 -0400,10704.911395375,0.31109619140625,-0.00250244140625,-0.0373382568359375,1,0.97
2020-05-16 12:36:08.192 -0400,10704.981368375,0.513671875,0.1167144775390625,0.031494140625,1,0.97
2020-05-16 12:36:08.267 -0400,10705.051341375,0.9220733642578125,0.9966888427734375,-0.14208984375,1,0.97
2020-05-16 12:36:08.357 -0400,10705.121315,1.514984130859375,0.9770355224609375,-0.556610107421875,1,0.97
2020-05-16 12:36:08.437 -0400,10705.191288,1.333297729492188,0.93182373046875,-0.3123779296875,1,0.97
2020-05-16 12:36:08.479 -0400,10705.261261,0.8586883544921875,0.628997802734375,-0.165863037109375,1,0.97
2020-05-16 12:36:08.602 -0400,10705.331234,0.4189300537109375,0.45709228515625,-0.042633056640625,1,0.97
2020-05-16 12:36:08.624 -0400,10705.401207,0.39178466796875,0.5972137451171875,-0.046905517578125,1,0.97
2020-05-16 12:36:08.713 -0400,10705.47118,0.7644805908203125,0.7012481689453125,0.0158843994140625,1,0.97
2020-05-16 12:36:08.752 -0400,10705.541153,1.31732177734375,0.9539031982421875,-0.0119171142578125,1,0.97
2020-05-16 12:36:08.827 -0400,10705.611126,1.680511474609375,0.453704833984375,-0.145721435546875,1,0.97
2020-05-16 12:36:08.948 -0400,10705.681099,2.105270385742188,0.5251617431640625,-0.130523681640625,1,0.97
2020-05-16 12:36:08.963 -0400,10705.751073,1.24713134765625,0.3359832763671875,-0.31085205078125,1,0.97
2020-05-16 12:36:09.397 -0400,10705.821046,0.75286865234375,0.1541748046875,-0.1160736083984375,1,0.97
2020-05-16 12:36:09.398 -0400,10705.891019,0.5468292236328125,0.043731689453125,-0.071380615234375,1,0.97
2020-05-16 12:36:09.399 -0400,10705.960992,0.4868621826171875,-0.0181427001953125,-0.022491455078125,1,0.97
2020-05-16 12:36:09.399 -0400,10706.030965,0.30072021484375,0.1845703125,0.03607177734375,1,0.97
2020-05-16 12:36:09.400 -0400,10706.10093775,0.507568359375,0.8519134521484375,-0.2609710693359375,1,0.97
2020-05-16 12:36:09.400 -0400,10706.17091175,1.362945556640625,0.9531402587890625,-0.705810546875,1,0.97
2020-05-16 12:36:09.451 -0400,10706.24088475,1.993301391601562,0.809112548828125,-0.3111572265625,1,0.97
2020-05-16 12:36:09.521 -0400,10706.31085775,0.8564605712890625,0.399383544921875,-0.503936767578125,1,0.97
2020-05-16 12:36:09.591 -0400,10706.38083075,0.692626953125,0.5579071044921875,-0.2111968994140625,1,0.97
2020-05-16 12:36:09.661 -0400,10706.45080375,0.4732666015625,0.822357177734375,-0.2353363037109375,1,0.97
2020-05-16 12:36:09.731 -0400,10706.52077675,0.37420654296875,1.335174560546875,-0.2234039306640625,1,0.97
2020-05-16 12:36:09.802 -0400,10706.59075075,2.51055908203125,2.2188720703125,-0.8149871826171875,1,0.97
2020-05-16 12:36:09.871 -0400,10706.66072375,2.4063720703125,0.26361083984375,0.268402099609375,1,0.97
2020-05-16 12:36:09.941 -0400,10706.73069675,1.610748291015625,0.66229248046875,0.1484527587890625,1,0.97
2020-05-16 12:36:10.011 -0400,10706.80066975,1.285110473632812,0.3151702880859375,0.2787933349609375,1,0.97
2020-05-16 12:36:10.081 -0400,10706.87064375,0.946319580078125,0.1756439208984375,0.3798370361328125,1,0.97
2020-05-16 12:36:10.151 -0400,10706.94061675,0.6940460205078125,-0.1292724609375,0.278076171875,1,0.97
2020-05-16 12:36:10.221 -0400,10707.01058975,0.5511932373046875,-0.032623291015625,0.141448974609375,1,0.97
2020-05-16 12:36:10.291 -0400,10707.08056375,0.339752197265625,0.240325927734375,0.117462158203125,1,0.97
2020-05-16 12:36:10.361 -0400,10707.15053775,0.772796630859375,1.15655517578125,-0.615966796875,1,0.97
2020-05-16 12:36:10.431 -0400,10707.22051075,1.708969116210938,0.67047119140625,-0.5642852783203125,1,0.97
2020-05-16 12:36:10.501 -0400,10707.29048375,1.459014892578125,1.07586669921875,-0.4559783935546875,1,0.97
2020-05-16 12:36:10.571 -0400,10707.36045675,0.6573638916015625,0.8453216552734375,-0.2958984375,1,0.97
2020-05-16 12:36:10.641 -0400,10707.43043075,0.4980926513671875,0.452362060546875,-0.2486724853515625,1,0.97
2020-05-16 12:36:10.711 -0400,10707.50040375,0.49322509765625,0.6667022705078125,-0.3064422607421875,1,0.97
2020-05-16 12:36:10.785 -0400,10707.57037675,0.9129180908203125,0.8455047607421875,-0.27032470703125,1,0.97
2020-05-16 12:36:10.851 -0400,10707.64035075,2.29974365234375,0.592529296875,-0.274932861328125,1,0.97
2020-05-16 12:36:10.921 -0400,10707.71032375,2.256561279296875,0.125,-0.1841278076171875,1,0.97
2020-05-16 12:36:10.991 -0400,10707.78029675,1.29937744140625,0.7025909423828125,-0.2150726318359375,1,0.97
2020-05-16 12:36:11.061 -0400,10707.85026975,0.7390289306640625,0.311309814453125,-0.064666748046875,1,0.97
2020-05-16 12:36:11.131 -0400,10707.92024375,0.6444549560546875,0.1806488037109375,0.0506591796875,1,0.97
2020-05-16 12:36:11.201 -0400,10707.99021675,0.7078704833984375,-0.005462646484375,0.1096954345703125,1,0.97
2020-05-16 12:36:11.271 -0400,10708.06018975,0.392730712890625,0.141998291015625,0.100372314453125,1,0.97
2020-05-16 12:36:11.341 -0400,10708.13016291667,0.954986572265625,0.929901123046875,0.1308135986328125,1,0.97
2020-05-16 12:36:11.411 -0400,10708.20013591667,1.007522583007812,1.020294189453125,-0.7730865478515625,1,0.97
2020-05-16 12:36:11.481 -0400,10708.27010891667,1.78240966796875,1.33013916015625,-0.4992828369140625,1,0.97
2020-05-16 12:36:11.550 -0400,10708.34008191667,0.8108673095703125,0.429351806640625,-0.44451904296875,1,0.97
2020-05-16 12:36:11.620 -0400,10708.41005591667,0.455169677734375,0.664794921875,-0.4583740234375,1,0.97
2020-05-16 12:36:11.691 -0400,10708.48002891667,0.488616943359375,0.722503662109375,-0.240386962890625,1,0.97
2020-05-16 12:36:11.760 -0400,10708.55000191667,1.048721313476562,1.178726196289062,-0.331451416015625,1,0.97
2020-05-16 12:36:11.831 -0400,10708.61997591667,1.730606079101562,0.807708740234375,-0.51104736328125,1,0.97
2020-05-16 12:36:11.900 -0400,10708.68994891667,1.936004638671875,0.4626922607421875,-0.2414703369140625,1,0.97
2020-05-16 12:36:11.971 -0400,10708.75992191667,1.961944580078125,0.6023406982421875,-0.22247314453125,1,0.97
2020-05-16 12:36:12.040 -0400,10708.82989591667,1.041610717773438,0.352752685546875,-0.2030181884765625,1,0.97
2020-05-16 12:36:12.110 -0400,10708.89986891667,0.84893798828125,0.274688720703125,0.0108795166015625,1,0.97
2020-05-16 12:36:12.181 -0400,10708.96984191667,0.6692962646484375,0.1040496826171875,0.0341796875,1,0.97
2020-05-16 12:36:12.250 -0400,10709.03981591667,0.4923553466796875,0.0309906005859375,0.0444488525390625,1,0.97
2020-05-16 12:36:12.320 -0400,10709.109789625,0.3023223876953125,0.1775665283203125,0.029632568359375,1,0.97
2020-05-16 12:36:12.390 -0400,10709.179762625,0.8558197021484375,0.8249359130859375,-0.097564697265625,1,0.97
2020-05-16 12:36:12.460 -0400,10709.249736625,1.3736572265625,0.9928436279296875,-0.422119140625,1,0.97
2020-05-16 12:36:12.530 -0400,10709.319709625,1.376083374023438,1.321121215820312,-0.18658447265625,1,0.97
2020-05-16 12:36:12.600 -0400,10709.389682625,0.9141998291015625,0.84454345703125,-0.343231201171875,1,0.97
2020-05-16 12:36:12.670 -0400,10709.459656625,0.7052459716796875,0.8179931640625,-0.16748046875,1,0.97
2020-05-16 12:36:12.740 -0400,10709.529629625,0.8043060302734375,0.9220733642578125,-0.2270965576171875,1,0.97
2020-05-16 12:36:12.810 -0400,10709.599602625,0.8271331787109375,0.946319580078125,-0.254791259765625,1,0.97
2020-05-16 12:36:12.880 -0400,10709.669576625,1.275314331054688,0.8123931884765625,-0.4846343994140625,1,0.97
2020-05-16 12:36:12.950 -0400,10709.739549625,2.298828125,0.4844818115234375,0.117095947265625,1,0.97
2020-05-16 12:36:13.020 -0400,10709.809522625,1.921676635742188,0.1032257080078125,-0.1968231201171875,1,0.97
2020-05-16 12:36:13.090 -0400,10709.879496625,1.060577392578125,0.4485626220703125,-0.2240142822265625,1,0.97
2020-05-16 12:36:13.160 -0400,10709.949469625,0.9408111572265625,0.297637939453125,-0.02081298828125,1,0.97
2020-05-16 12:36:13.230 -0400,10710.019442625,0.7356109619140625,-0.1209259033203125,0.1617431640625,1,0.97
2020-05-16 12:36:13.300 -0400,10710.08941625,0.1899566650390625,-0.0573272705078125,-0.0078887939453125,1,0.97
2020-05-16 12:36:13.370 -0400,10710.15938925,0.077606201171875,0.23248291015625,0.1134490966796875,1,0.97
2020-05-16 12:36:13.440 -0400,10710.22936225,0.47406005859375,0.959381103515625,-0.4303131103515625,1,0.97
2020-05-16 12:36:13.510 -0400,10710.29933625,1.77960205078125,0.71075439453125,-0.4191131591796875,1,0.97
2020-05-16 12:36:13.580 -0400,10710.36930925,1.233612060546875,0.932708740234375,-0.318878173828125,1,0.97
2020-05-16 12:36:13.650 -0400,10710.43928225,0.790924072265625,0.2807464599609375,-0.216705322265625,1,0.97
2020-05-16 12:36:13.720 -0400,10710.50925625,0.8343505859375,0.537078857421875,-0.35076904296875,1,0.97
2020-05-16 12:36:13.790 -0400,10710.57922925,0.8167724609375,1.033248901367188,-0.4734954833984375,1,0.97
2020-05-16 12:36:13.860 -0400,10710.64920325,1.169418334960938,0.9253387451171875,-0.414703369140625,1,0.97
2020-05-16 12:36:13.930 -0400,10710.71917625,1.779769897460938,0.49755859375,-0.3003997802734375,1,0.97
2020-05-16 12:36:14.000 -0400,10710.78914925,1.864578247070312,0.4178314208984375,-0.2269744873046875,1,0.97
2020-05-16 12:36:14.070 -0400,10710.85912325,1.284713745117188,0.50677490234375,-0.188568115234375,1,0.97
2020-05-16 12:36:14.140 -0400,10710.92909625,0.8235931396484375,0.2764129638671875,0.021148681640625,1,0.97
2020-05-16 12:36:14.210 -0400,10710.99907025,0.6327056884765625,0.195159912109375,0.1390533447265625,1,0.97
2020-05-16 12:36:14.280 -0400,10711.06904325,0.5399169921875,0.0868682861328125,0.1667633056640625,1,0.97
2020-05-16 12:36:14.350 -0400,10711.13901525,0.5082855224609375,0.1163482666015625,0.188720703125,1,0.97
2020-05-16 12:36:14.420 -0400,10711.20898925,0.6065216064453125,0.4031219482421875,0.0235748291015625,1,0.97
2020-05-16 12:36:14.489 -0400,10711.27896225,0.9615020751953125,1.121856689453125,-0.3526153564453125,1,0.97
2020-05-16 12:36:14.559 -0400,10711.34893525,1.94573974609375,1.077896118164062,-0.78466796875,1,0.97
2020-05-16 12:36:14.629 -0400,10711.41890925,0.9432373046875,0.7372894287109375,-0.5035400390625,1,0.97
2020-05-16 12:36:14.699 -0400,10711.48888225,0.630340576171875,0.514801025390625,-0.3997650146484375,1,0.97
2020-05-16 12:36:14.769 -0400,10711.55885625,0.45953369140625,0.5858306884765625,-0.340362548828125,1,0.97
2020-05-16 12:36:14.839 -0400,10711.62882925,0.7158203125,0.9735107421875,-0.5218048095703125,1,0.97
2020-05-16 12:36:14.909 -0400,10711.69880225,1.483322143554688,1.130264282226562,-0.5812835693359375,1,0.97
2020-05-16 12:36:14.979 -0400,10711.76877625,1.825775146484375,0.0756683349609375,-0.0224761962890625,1,0.97
2020-05-16 12:36:15.049 -0400,10711.83874925,1.974868774414062,0.2777099609375,-0.0037689208984375,1,0.97
2020-05-16 12:36:15.119 -0400,10711.90872325,1.288711547851562,0.6121063232421875,-0.0360565185546875,1,0.97
2020-05-16 12:36:15.189 -0400,10711.97869625,0.964263916015625,0.301483154296875,0.2378692626953125,1,0.97
2020-05-16 12:36:15.259 -0400,10712.04866925,0.801177978515625,0.156402587890625,0.26171875,1,0.97
2020-05-16 12:36:15.329 -0400,10712.118644875,0.6268768310546875,-0.0630645751953125,0.1964263916015625,1,0.97
2020-05-16 12:36:15.399 -0400,10712.188617875,0.395294189453125,0.164794921875,0.03662109375,1,0.97
2020-05-16 12:36:15.469 -0400,10712.258591875,0.1717071533203125,0.2404937744140625,-0.2019805908203125,1,0.97
2020-05-16 12:36:15.539 -0400,10712.328564875,0.924560546875,0.9122772216796875,-0.2197265625,1,0.97
2020-05-16 12:36:15.609 -0400,10712.398538875,1.469070434570312,0.9390869140625,-0.5467529296875,1,0.97
2020-05-16 12:36:15.679 -0400,10712.468511875,1.628143310546875,1.17169189453125,-0.795562744140625,1,0.97
2020-05-16 12:36:15.749 -0400,10712.538484875,0.8730621337890625,0.9913787841796875,-0.41302490234375,1,0.97
2020-05-16 12:36:15.819 -0400,10712.608458875,0.4923248291015625,0.489959716796875,-0.3898162841796875,1,0.97
2020-05-16 12:36:15.889 -0400,10712.678431875,0.2906036376953125,0.5227813720703125,-0.32891845703125,1,0.97
2020-05-16 12:36:15.959 -0400,10712.748405875,0.50579833984375,0.6815643310546875,-0.419586181640625,1,0.97
2020-05-16 12:36:16.030 -0400,10712.818378875,1.487380981445312,0.4236297607421875,-0.13055419921875,1,0.97
2020-05-16 12:36:16.099 -0400,10712.888352875,2.135635375976562,0.552459716796875,0.1587982177734375,1,0.97
2020-05-16 12:36:16.169 -0400,10712.958325875,1.791748046875,0.3415985107421875,-0.2326507568359375,1,0.97
2020-05-16 12:36:16.239 -0400,10713.028298875,0.8286895751953125,0.4595489501953125,0.0299224853515625,1,0.97
2020-05-16 12:36:16.309 -0400,10713.098272375,0.5604095458984375,0.064056396484375,0.084442138671875,1,0.97
2020-05-16 12:36:16.379 -0400,10713.168245375,0.3457794189453125,-0.077667236328125,0.0704803466796875,1,0.97
2020-05-16 12:36:16.449 -0400,10713.238219375,0.4313507080078125,0.0108489990234375,0.0108795166015625,1,0.97
2020-05-16 12:36:16.519 -0400,10713.308192375,0.313079833984375,0.126495361328125,-0.04058837890625,1,0.97
2020-05-16 12:36:16.589 -0400,10713.378166375,1.108749389648438,1.127182006835938,-0.2757568359375,1,0.97
2020-05-16 12:36:16.659 -0400,10713.448139375,1.735214233398438,0.9449920654296875,-0.7135467529296875,1,0.97
2020-05-16 12:36:16.729 -0400,10713.518113375,1.503036499023438,1.3184814453125,-0.37945556640625,1,0.97
2020-05-16 12:36:16.799 -0400,10713.588086375,0.8202056884765625,0.368865966796875,-0.40673828125,1,0.97
2020-05-16 12:36:16.869 -0400,10713.658059375,0.44610595703125,0.4517974853515625,-0.253631591796875,1,0.97
2020-05-16 12:36:16.938 -0400,10713.728033375,0.1783294677734375,0.6718902587890625,-0.22796630859375,1,0.97
2020-05-16 12:36:17.008 -0400,10713.798006375,0.40478515625,0.74078369140625,-0.3155517578125,1,0.97
2020-05-16 12:36:17.078 -0400,10713.867980375,1.870468139648438,0.973175048828125,-0.5312347412109375,1,0.97
2020-05-16 12:36:17.148 -0400,10713.937953375,1.66864013671875,-0.0112152099609375,-0.3138275146484375,1,0.97
2020-05-16 12:36:17.218 -0400,10714.007927375,2.096725463867188,0.5382537841796875,-0.1142578125,1,0.97
2020-05-16 12:36:17.288 -0400,10714.077900875,1.190902709960938,0.571044921875,-0.2681427001953125,1,0.97
2020-05-16 12:36:17.358 -0400,10714.147874875,0.6949920654296875,0.1487274169921875,-0.0583953857421875,1,0.97
2020-05-16 12:36:17.428 -0400,10714.217847875,0.327392578125,0.0070037841796875,0.0287017822265625,1,0.97
2020-05-16 12:36:17.498 -0400,10714.287821875,0.1203460693359375,-0.002349853515625,-0.00665283203125,1,0.97
2020-05-16 12:36:17.568 -0400,10714.357794875,0.159210205078125,0.1509246826171875,-0.041412353515625,1,0.97
2020-05-16 12:36:17.638 -0400,10714.427768875,0.3035125732421875,0.4366455078125,-0.0810394287109375,1,0.97
2020-05-16 12:36:17.708 -0400,10714.497741875,1.97137451171875,0.9492950439453125,-0.13250732421875,1,0.97
2020-05-16 12:36:17.779 -0400,10714.567715875,1.823684692382812,0.7910919189453125,-1.01788330078125,1,0.97
2020-05-16 12:36:17.848 -0400,10714.637688875,1.615707397460938,0.8934478759765625,-0.451446533203125,1,0.97
2020-05-16 12:36:17.918 -0400,10714.707661875,0.7923431396484375,0.6833648681640625,-0.3489532470703125,1,0.97
2020-05-16 12:36:17.988 -0400,10714.777635875,0.3112335205078125,0.6356964111328125,-0.3180694580078125,1,0.97
2020-05-16 12:36:18.058 -0400,10714.847608875,0.2518310546875,0.7037353515625,-0.1936492919921875,1,0.97
2020-05-16 12:36:18.128 -0400,10714.917582875,0.601898193359375,0.7933197021484375,-0.1436614990234375,1,0.97
2020-05-16 12:36:18.198 -0400,10714.987555875,2.552459716796875,1.653396606445312,-0.649749755859375,1,0.97
2020-05-16 12:36:18.268 -0400,10715.057529875,2.071258544921875,0.61175537109375,-0.116119384765625,1,0.97
2020-05-16 12:36:18.338 -0400,10715.127502875,1.556320190429688,0.42291259765625,-0.126434326171875,1,0.97
2020-05-16 12:36:18.416 -0400,10715.197476875,1.044754028320312,0.2167816162109375,-0.0604400634765625,1,0.97
2020-05-16 12:36:18.478 -0400,10715.267449875,0.668426513671875,0.2747344970703125,0.0958404541015625,1,0.97
2020-05-16 12:36:18.548 -0400,10715.337423875,0.2352447509765625,-0.0115203857421875,-0.0001068115234375,1,0.97
2020-05-16 12:36:18.618 -0400,10715.407396875,0.330230712890625,0.19854736328125,-0.765533447265625,1,0.97
2020-05-16 12:36:18.688 -0400,10715.477370875,0.2881622314453125,0.0777435302734375,-1.17437744140625,1,0.97
2020-05-16 12:36:18.758 -0400,10715.547343875,0.3455810546875,0.0482635498046875,-1.306411743164062,1,0.97
2020-05-16 12:36:18.829 -0400,10715.617317875,0.0872344970703125,0.0496673583984375,-0.9840545654296875,1,0.97
2020-05-16 12:36:18.898 -0400,10715.687290875,0.0200042724609375,-0.089324951171875,-0.5238800048828125,1,0.97
2020-05-16 12:36:18.967 -0400,10715.757264875,-0.0259246826171875,-0.2006072998046875,-0.5369415283203125,1,0.97
2020-05-16 12:36:19.037 -0400,10715.827237875,-0.0521697998046875,0.026458740234375,-0.799285888671875,1,0.97
2020-05-16 12:36:19.107 -0400,10715.897211875,0.063201904296875,-0.01226806640625,-0.9503936767578125,1,0.97
2020-05-16 12:36:19.177 -0400,10715.967185875,-0.1643524169921875,0.06561279296875,-1.138931274414062,1,0.97
2020-05-16 12:36:19.247 -0400,10716.037158875,0.3226470947265625,0.19549560546875,-1.7652587890625,1,0.97
2020-05-16 12:36:19.318 -0400,10716.107132125,0.1652374267578125,0.27325439453125,-1.541915893554688,1,0.97
2020-05-16 12:36:19.388 -0400,10716.177105125,0.1007232666015625,-0.0391082763671875,-0.8939361572265625,1,0.97
2020-05-16 12:36:19.457 -0400,10716.247079125,0.03759765625,-0.08270263671875,-0.6443939208984375,1,0.97
2020-05-16 12:36:19.528 -0400,10716.317052125,-0.0248565673828125,-0.0299835205078125,-0.5925140380859375,1,0.97
2020-05-16 12:36:19.597 -0400,10716.387026125,0.1717529296875,-0.029876708984375,-0.8339385986328125,1,0.97
2020-05-16 12:36:19.667 -0400,10716.456999125,-0.0839080810546875,0.0442962646484375,-1.083572387695312,1,0.97
2020-05-16 12:36:19.737 -0400,10716.526973125,0.286712646484375,0.302490234375,-1.498855590820312,1,0.97
2020-05-16 12:36:19.807 -0400,10716.596946125,0.227783203125,0.196563720703125,-1.363800048828125,1,0.97
2020-05-16 12:36:19.878 -0400,10716.666920125,-0.1678619384765625,0.00286865234375,-0.9810638427734375,1,0.97
2020-05-16 12:36:19.947 -0400,10716.736893125,-0.0417633056640625,0.0111083984375,-0.68231201171875,1,0.97
2020-05-16 12:36:20.017 -0400,10716.806867125,-0.1270294189453125,-0.0735015869140625,-0.6915130615234375,1,0.97
2020-05-16 12:36:20.087 -0400,10716.876840125,-0.12628173828125,0.084381103515625,-1.007537841796875,1,0.97
2020-05-16 12:36:20.157 -0400,10716.946814125,0.1870574951171875,0.090484619140625,-1.098297119140625,1,0.97
2020-05-16 12:36:20.227 -0400,10717.016788125,0.143890380859375,0.0906982421875,-1.322921752929688,1,0.97
2020-05-16 12:36:20.297 -0400,10717.08676175,0.21038818359375,0.278961181640625,-1.291152954101562,1,0.97
2020-05-16 12:36:20.367 -0400,10717.15673575,0.2209320068359375,0.1327056884765625,-1.053237915039062,1,0.97
2020-05-16 12:36:20.437 -0400,10717.22670875,0.0904388427734375,-0.04449462890625,-0.8185272216796875,1,0.97
2020-05-16 12:36:20.507 -0400,10717.29668275,0.057098388671875,-0.0520172119140625,-0.5467529296875,1,0.97
2020-05-16 12:36:20.578 -0400,10717.36665575,0.0460357666015625,-0.0736846923828125,-0.46905517578125,1,0.97
2020-05-16 12:36:20.648 -0400,10717.43662975,-0.0318145751953125,-0.0428466796875,-0.6975860595703125,1,0.97
2020-05-16 12:36:20.724 -0400,10717.50660375,-0.2014617919921875,-0.054718017578125,-0.9946136474609375,1,0.97
2020-05-16 12:36:20.787 -0400,10717.57657675,-0.47125244140625,0.0191192626953125,-1.3133544921875,1,0.97
2020-05-16 12:36:20.857 -0400,10717.64655075,0.3826904296875,0.0900726318359375,-1.433990478515625,1,0.97
2020-05-16 12:36:20.927 -0400,10717.71652375,-0.2192230224609375,0.09674072265625,-1.268951416015625,1,0.97
2020-05-16 12:36:20.997 -0400,10717.78649775,-0.094390869140625,-0.0082550048828125,-0.7513885498046875,1,0.97
2020-05-16 12:36:21.067 -0400,10717.85647075,0.0852813720703125,-0.1107177734375,-0.543060302734375,1,0.97
2020-05-16 12:36:21.137 -0400,10717.92644475,0.064697265625,-0.0198822021484375,-0.582550048828125,1,0.97
2020-05-16 12:36:21.207 -0400,10717.99641875,-0.0797119140625,0.0332489013671875,-0.8025665283203125,1,0.97
2020-05-16 12:36:21.277 -0400,10718.06639175,0.071136474609375,0.1308135986328125,-1.108139038085938,1,0.97
2020-05-16 12:36:21.347 -0400,10718.136364625,0.367279052734375,0.4561920166015625,-1.672515869140625,1,0.97
2020-05-16 12:36:21.417 -0400,10718.206337625,0.314208984375,0.584686279296875,-1.638519287109375,1,0.97
2020-05-16 12:36:21.487 -0400,10718.276311625,0.315948486328125,0.2905731201171875,-1.087615966796875,1,0.97
2020-05-16 12:36:21.557 -0400,10718.346285625,0.1739501953125,0.087371826171875,-0.7140350341796875,1,0.97
2020-05-16 12:36:21.627 -0400,10718.416258625,0.1537017822265625,0.1053619384765625,-0.632720947265625,1,0.97
2020-05-16 12:36:21.697 -0400,10718.486232625,0.105865478515625,0.1603851318359375,-0.688812255859375,1,0.97
2020-05-16 12:36:21.767 -0400,10718.556206625,0.1510009765625,-0.0614166259765625,-0.613067626953125,1,0.97
2020-05-16 12:36:21.837 -0400,10718.626179625,0.219757080078125,0.352325439453125,-1.465576171875,1,0.97
2020-05-16 12:36:21.907 -0400,10718.696153625,0.2092132568359375,0.443572998046875,-1.537506103515625,1,0.97
2020-05-16 12:36:21.976 -0400,10718.766126625,0.21600341796875,0.140350341796875,-1.182907104492188,1,0.97
2020-05-16 12:36:22.047 -0400,10718.836100625,0.1847381591796875,0.07550048828125,-0.70977783203125,1,0.97
2020-05-16 12:36:22.117 -0400,10718.906074625,0.0587310791015625,0.0654296875,-0.7768402099609375,1,0.97
