loggingTime(txt),accelerometerTimestamp_sinceReboot(s),accelerometerAccelerationX(G),accelerometerAccelerationY(G),accelerometerAccelerationZ(G),batteryState,batteryLevel
2020-05-16 11:56:19.079 -0400,8787.485379541667,0.0125579833984375,-0.0220947265625,-0.7808837890625,1,1
2020-05-16 11:56:19.156 -0400,8787.605118541667,-0.0438385009765625,-0.0648345947265625,-0.8321380615234375,1,1
2020-05-16 11:56:19.275 -0400,8787.724856541667,-0.0648040771484375,-0.119049072265625,-1.082565307617188,1,1
2020-05-16 11:56:19.395 -0400,8787.844596541667,0.0036468505859375,0.1282958984375,-1.358367919921875,1,1
2020-05-16 11:56:19.515 -0400,8787.964335541667,-0.0185394287109375,0.3333587646484375,-0.88470458984375,1,1
2020-05-16 11:56:19.636 -0400,8788.084071125,0.245025634765625,0.33306884765625,-0.531402587890625,1,1
2020-05-16 11:56:19.754 -0400,8788.203812125001,0.2661285400390625,0.7631988525390625,-0.6885986328125,1,1
2020-05-16 11:56:19.874 -0400,8788.323546125001,0.527191162109375,0.648345947265625,-0.64776611328125,1,1
2020-05-16 11:56:19.996 -0400,8788.443279125,0.89996337890625,0.5932769775390625,-0.5448150634765625,1,1
2020-05-16 11:56:20.114 -0400,8788.563015125001,1.637786865234375,0.6753082275390625,-0.2490234375,1,1
2020-05-16 11:56:20.235 -0400,8788.682743125,1.000335693359375,0.0963592529296875,-0.0344085693359375,1,1
2020-05-16 11:56:20.313 -0400,8788.762561125001,0.6555633544921875,0.1840362548828125,-0.0411834716796875,1,1
2020-05-16 11:56:20.386 -0400,8788.832401125001,0.485870361328125,0.4639892578125,-0.089630126953125,1,1
2020-05-16 11:56:20.453 -0400,8788.902246125001,0.628173828125,0.4245758056640625,-0.059814453125,1,1
2020-05-16 11:56:20.523 -0400,8788.972086125001,0.892791748046875,0.4604949951171875,-0.1604766845703125,1,1
2020-05-16 11:56:20.595 -0400,8789.041928291666,1.000381469726562,0.362640380859375,-0.327880859375,1,1
2020-05-16 11:56:20.662 -0400,8789.111773291666,1.12713623046875,0.254302978515625,-0.362945556640625,1,1
2020-05-16 11:56:20.732 -0400,8789.181618291666,1.272171020507812,0.32568359375,-0.309661865234375,1,1
2020-05-16 11:56:20.802 -0400,8789.251464291667,1.509521484375,0.35968017578125,-0.2402496337890625,1,1
2020-05-16 11:56:20.872 -0400,8789.321310291667,1.0634765625,0.1357879638671875,-0.0791473388671875,1,1
2020-05-16 11:56:20.942 -0400,8789.391153291666,1.004638671875,0.4008331298828125,-0.076171875,1,1
2020-05-16 11:56:21.012 -0400,8789.460998291666,1.101776123046875,0.4642791748046875,-0.0030364990234375,1,1
2020-05-16 11:56:21.082 -0400,8789.530843291666,0.9203948974609375,0.4362030029296875,0.004364013671875,1,1
2020-05-16 11:56:21.151 -0400,8789.600685291667,0.6841583251953125,0.537994384765625,-0.0549774169921875,1,1
2020-05-16 11:56:21.221 -0400,8789.670525291667,0.563751220703125,0.47271728515625,-0.0798187255859375,1,1
2020-05-16 11:56:21.291 -0400,8789.740371291668,0.3983001708984375,0.292236328125,-0.0132598876953125,1,1
2020-05-16 11:56:21.361 -0400,8789.810216291668,0.4123687744140625,0.29571533203125,-0.071502685546875,1,1
2020-05-16 11:56:21.431 -0400,8789.880063291666,0.77813720703125,0.426788330078125,-0.105072021484375,1,1
2020-05-16 11:56:21.500 -0400,8789.949905291667,1.298294067382812,0.4471282958984375,-0.1603546142578125,1,1
2020-05-16 11:56:21.570 -0400,8790.019744916668,1.58544921875,0.5286407470703125,-0.3111572265625,1,1
2020-05-16 11:56:21.640 -0400,8790.089585916667,1.332489013671875,0.5616912841796875,-0.401611328125,1,1
2020-05-16 11:56:21.710 -0400,8790.159425916667,1.072830200195312,0.3310699462890625,-0.29852294921875,1,1
2020-05-16 11:56:21.780 -0400,8790.229268916668,0.9229736328125,0.074859619140625,-0.0420684814453125,1,1
2020-05-16 11:56:21.850 -0400,8790.299109916667,0.6658172607421875,0.360595703125,-0.11907958984375,1,1
2020-05-16 11:56:21.920 -0400,8790.368952916668,0.4501953125,0.406097412109375,-0.134307861328125,1,1
2020-05-16 11:56:21.989 -0400,8790.438793916666,0.4310150146484375,0.1761627197265625,-0.10272216796875,1,1
2020-05-16 11:56:22.059 -0400,8790.508635916667,0.6125946044921875,0.324462890625,-0.1065826416015625,1,1
2020-05-16 11:56:22.129 -0400,8790.578474916667,0.759613037109375,0.4211273193359375,-0.3010406494140625,1,1
2020-05-16 11:56:22.199 -0400,8790.648314916667,1.077407836914062,0.4591064453125,-0.457427978515625,1,1
2020-05-16 11:56:22.269 -0400,8790.718153916667,1.366836547851562,0.3777313232421875,-0.4614715576171875,1,1
2020-05-16 11:56:22.339 -0400,8790.787990916668,1.49945068359375,0.391387939453125,-0.3837738037109375,1,1
2020-05-16 11:56:22.408 -0400,8790.857828916667,1.157821655273438,0.4715423583984375,-0.313995361328125,1,1
2020-05-16 11:56:22.478 -0400,8790.927667916667,1.067169189453125,0.39581298828125,-0.1887054443359375,1,1
2020-05-16 11:56:22.548 -0400,8790.997503875,0.9586639404296875,0.327362060546875,-0.0830841064453125,1,1
2020-05-16 11:56:22.618 -0400,8791.067345875001,0.717803955078125,0.36138916015625,-0.07421875,1,1
2020-05-16 11:56:22.688 -0400,8791.137186875001,0.627349853515625,0.3898162841796875,-0.0201263427734375,1,1
2020-05-16 11:56:22.758 -0400,8791.207028875,0.8342742919921875,0.411224365234375,-0.009368896484375,1,1
2020-05-16 11:56:22.827 -0400,8791.276868875,0.9324188232421875,0.3651123046875,-0.00286865234375,1,1
2020-05-16 11:56:22.897 -0400,8791.346708875,1.037277221679688,0.3318328857421875,-0.0618743896484375,1,1
2020-05-16 11:56:22.967 -0400,8791.416549875001,1.199798583984375,0.3701629638671875,-0.151763916015625,1,1
2020-05-16 11:56:23.037 -0400,8791.486386875,1.213043212890625,0.3185272216796875,-0.173431396484375,1,1
2020-05-16 11:56:23.107 -0400,8791.556220875,1.110183715820312,0.3357391357421875,-0.35858154296875,1,1
2020-05-16 11:56:23.177 -0400,8791.626060875,0.9184112548828125,0.159820556640625,-0.3093414306640625,1,1
2020-05-16 11:56:23.246 -0400,8791.695896875,0.8109283447265625,0.2037506103515625,-0.3048095703125,1,1
2020-05-16 11:56:23.316 -0400,8791.765734875,0.6023712158203125,0.340484619140625,-0.3090972900390625,1,1
2020-05-16 11:56:23.386 -0400,8791.835572875001,0.500091552734375,0.3417510986328125,-0.2306365966796875,1,1
2020-05-16 11:56:23.456 -0400,8791.905413875,0.5085906982421875,0.369232177734375,-0.145965576171875,1,1
2020-05-16 11:56:23.526 -0400,8791.975254875,0.7660064697265625,0.4898834228515625,-0.193023681640625,1,1
2020-05-16 11:56:23.596 -0400,8792.04509625,1.074371337890625,0.5368499755859375,-0.3166656494140625,1,1
2020-05-16 11:56:23.666 -0400,8792.11493525,1.177780151367188,0.5036163330078125,-0.442901611328125,1,1
2020-05-16 11:56:23.736 -0400,8792.184774250001,1.181930541992188,0.523101806640625,-0.4857330322265625,1,1
2020-05-16 11:56:23.805 -0400,8792.254613250001,1.264511108398438,0.4956207275390625,-0.4261474609375,1,1
2020-05-16 11:56:23.875 -0400,8792.324452250001,1.30218505859375,0.2422027587890625,-0.2263336181640625,1,1
2020-05-16 11:56:23.945 -0400,8792.394292250001,0.97601318359375,0.3100738525390625,-0.166717529296875,1,1
2020-05-16 11:56:24.015 -0400,8792.464132250001,0.6377105712890625,0.3633575439453125,-0.07110595703125,1,1
2020-05-16 11:56:24.085 -0400,8792.53397025,0.563568115234375,0.3999481201171875,0.03839111328125,1,1
2020-05-16 11:56:24.155 -0400,8792.603810250001,0.85089111328125,0.4188385009765625,0.072021484375,1,1
2020-05-16 11:56:24.226 -0400,8792.67365425,1.012557983398438,0.3828582763671875,0.03076171875,1,1
2020-05-16 11:56:24.294 -0400,8792.743496250001,1.083831787109375,0.3148345947265625,-0.077239990234375,1,1
2020-05-16 11:56:24.364 -0400,8792.813336250001,1.151077270507812,0.37347412109375,-0.255523681640625,1,1
2020-05-16 11:56:24.434 -0400,8792.88317925,1.091064453125,0.2844085693359375,-0.46307373046875,1,1
2020-05-16 11:56:24.504 -0400,8792.95302225,0.970367431640625,0.3541107177734375,-0.667694091796875,1,1
2020-05-16 11:56:24.574 -0400,8793.022869041668,1.007003784179688,0.225830078125,-0.484619140625,1,1
2020-05-16 11:56:24.643 -0400,8793.092713041668,0.7103729248046875,0.1285552978515625,-0.3630828857421875,1,1
2020-05-16 11:56:24.713 -0400,8793.162559041668,0.5518951416015625,0.2531890869140625,-0.2812957763671875,1,1
2020-05-16 11:56:24.783 -0400,8793.232401041667,0.620849609375,0.4090576171875,-0.1456451416015625,1,1
2020-05-16 11:56:24.853 -0400,8793.302243041668,0.8147125244140625,0.4681549072265625,-0.1009368896484375,1,1
2020-05-16 11:56:24.923 -0400,8793.372085041667,0.8350830078125,0.5030517578125,-0.200958251953125,1,1
2020-05-16 11:56:24.993 -0400,8793.441929041666,1.013885498046875,0.51263427734375,-0.20599365234375,1,1
2020-05-16 11:56:25.062 -0400,8793.511773041668,1.48590087890625,0.5871734619140625,-0.308441162109375,1,1
2020-05-16 11:56:25.132 -0400,8793.581615041667,1.074951171875,0.3790130615234375,-0.2506103515625,1,1
2020-05-16 11:56:25.202 -0400,8793.651456041667,0.9407501220703125,0.36651611328125,-0.2204132080078125,1,1
2020-05-16 11:56:25.273 -0400,8793.721304041666,0.8896331787109375,0.353424072265625,-0.126983642578125,1,1
2020-05-16 11:56:25.342 -0400,8793.791151041667,0.6837615966796875,0.298126220703125,-0.0646209716796875,1,1
2020-05-16 11:56:25.412 -0400,8793.860994041666,0.653167724609375,0.3863067626953125,-0.040313720703125,1,1
2020-05-16 11:56:25.482 -0400,8793.930836041667,0.7371368408203125,0.4250030517578125,-0.0142974853515625,1,1
2020-05-16 11:56:25.551 -0400,8794.000678750001,0.8612213134765625,0.4087982177734375,-0.0529937744140625,1,1
2020-05-16 11:56:25.621 -0400,8794.07052175,0.9693603515625,0.3397216796875,-0.0737152099609375,1,1
2020-05-16 11:56:25.691 -0400,8794.140359750001,1.300765991210938,0.3467864990234375,-0.14007568359375,1,1
2020-05-16 11:56:25.761 -0400,8794.21019675,1.381912231445312,0.3972930908203125,-0.1474456787109375,1,1
2020-05-16 11:56:25.831 -0400,8794.28003475,1.234039306640625,0.6569671630859375,-0.622894287109375,1,1
2020-05-16 11:56:25.901 -0400,8794.349871750001,1.212631225585938,0.12347412109375,-0.240570068359375,1,1
2020-05-16 11:56:25.971 -0400,8794.41970875,0.96063232421875,-0.1017608642578125,-0.094024658203125,1,1
2020-05-16 11:56:26.040 -0400,8794.489542750001,0.7020111083984375,0.39276123046875,-0.2503814697265625,1,1
2020-05-16 11:56:26.110 -0400,8794.559379750001,0.3954620361328125,0.3930816650390625,-0.1751708984375,1,1
2020-05-16 11:56:26.180 -0400,8794.629221750001,0.2955474853515625,0.271392822265625,-0.095001220703125,1,1
2020-05-16 11:56:26.250 -0400,8794.699061750001,0.34674072265625,0.295562744140625,-0.133636474609375,1,1
2020-05-16 11:56:26.320 -0400,8794.76890275,0.731781005859375,0.4918060302734375,-0.21142578125,1,1
2020-05-16 11:56:26.389 -0400,8794.83874175,1.094924926757812,0.4696197509765625,-0.1969146728515625,1,1
2020-05-16 11:56:26.459 -0400,8794.908579750001,1.70904541015625,0.64788818359375,-0.4008026123046875,1,1
2020-05-16 11:56:26.529 -0400,8794.978418750001,1.2640380859375,0.6988525390625,-0.499603271484375,1,1
2020-05-16 11:56:26.599 -0400,8795.048257291668,1.164047241210938,0.4040985107421875,-0.3063507080078125,1,1
2020-05-16 11:56:26.669 -0400,8795.118094291667,1.142791748046875,0.1930999755859375,-0.1643218994140625,1,1
2020-05-16 11:56:26.739 -0400,8795.187930291668,0.78631591796875,0.30029296875,-0.1287384033203125,1,1
2020-05-16 11:56:26.808 -0400,8795.257762291667,0.5229034423828125,0.4144744873046875,-0.0537109375,1,1
2020-05-16 11:56:26.878 -0400,8795.327597291667,0.555267333984375,0.3956756591796875,0.0083770751953125,1,1
2020-05-16 11:56:26.948 -0400,8795.397434291668,0.85589599609375,0.3353424072265625,-0.04296875,1,1
2020-05-16 11:56:27.018 -0400,8795.467270291667,1.179824829101562,0.2672271728515625,-0.088531494140625,1,1
2020-05-16 11:56:27.088 -0400,8795.537106291667,1.253829956054688,0.2718963623046875,-0.219207763671875,1,1
2020-05-16 11:56:27.158 -0400,8795.606942291668,1.210708618164062,0.438934326171875,-0.316619873046875,1,1
2020-05-16 11:56:27.227 -0400,8795.676777291666,1.191452026367188,0.5010833740234375,-0.5827178955078125,1,1
2020-05-16 11:56:27.297 -0400,8795.746614291667,1.1103515625,0.0523529052734375,-0.207427978515625,1,1
2020-05-16 11:56:27.367 -0400,8795.816449291668,0.757720947265625,0.2741546630859375,-0.340576171875,1,1
2020-05-16 11:56:27.437 -0400,8795.886290291668,0.4453125,0.4611358642578125,-0.2133636474609375,1,1
2020-05-16 11:56:27.507 -0400,8795.956133291667,0.347503662109375,0.43975830078125,-0.1686859130859375,1,1
2020-05-16 11:56:27.577 -0400,8796.025976500001,0.478240966796875,0.41357421875,-0.1534271240234375,1,1
2020-05-16 11:56:27.646 -0400,8796.0958145,0.865020751953125,0.4696197509765625,-0.26812744140625,1,1
2020-05-16 11:56:27.716 -0400,8796.165654500001,1.262466430664062,0.42779541015625,-0.36273193359375,1,1
2020-05-16 11:56:27.786 -0400,8796.235495500001,1.2730712890625,0.3681793212890625,-0.5071563720703125,1,1
2020-05-16 11:56:27.856 -0400,8796.3053375,1.524581909179688,0.410736083984375,-0.59014892578125,1,1
2020-05-16 11:56:27.926 -0400,8796.3751785,1.170913696289062,0.263427734375,-0.5226898193359375,1,1
2020-05-16 11:56:27.996 -0400,8796.445014500001,1.169586181640625,0.3095245361328125,-0.2817535400390625,1,1
2020-05-16 11:56:28.066 -0400,8796.5148515,0.875213623046875,0.30255126953125,-0.1491851806640625,1,1
2020-05-16 11:56:28.135 -0400,8796.584689500001,0.48345947265625,0.3491058349609375,-0.096282958984375,1,1
2020-05-16 11:56:28.205 -0400,8796.654528500001,0.3650970458984375,0.3824920654296875,-0.0399322509765625,1,1
2020-05-16 11:56:28.275 -0400,8796.724367500001,0.6195068359375,0.3647308349609375,-0.03680419921875,1,1
2020-05-16 11:56:28.345 -0400,8796.7942105,0.8826446533203125,0.291717529296875,-0.07818603515625,1,1
2020-05-16 11:56:28.415 -0400,8796.864052500001,1.187759399414062,0.386871337890625,-0.2526397705078125,1,1
2020-05-16 11:56:28.484 -0400,8796.933897500001,1.382156372070312,0.3433685302734375,-0.1985626220703125,1,1
2020-05-16 11:56:28.554 -0400,8797.003738416668,1.342254638671875,0.5632171630859375,-0.568206787109375,1,1
2020-05-16 11:56:28.624 -0400,8797.073581416667,0.9369354248046875,0.4503326416015625,-0.6419219970703125,1,1
2020-05-16 11:56:28.694 -0400,8797.143426416667,0.8509063720703125,0.06158447265625,-0.3387908935546875,1,1
2020-05-16 11:56:28.764 -0400,8797.213265416667,0.5882110595703125,0.226165771484375,-0.36920166015625,1,1
2020-05-16 11:56:28.834 -0400,8797.283103416667,0.4330291748046875,0.4761810302734375,-0.2283935546875,1,1
2020-05-16 11:56:28.904 -0400,8797.352942416666,0.478759765625,0.40911865234375,-0.1886444091796875,1,1
2020-05-16 11:56:28.973 -0400,8797.422784416667,0.7605133056640625,0.4342498779296875,-0.1824188232421875,1,1
2020-05-16 11:56:29.043 -0400,8797.492624416667,0.87152099609375,0.413787841796875,-0.25531005859375,1,1
2020-05-16 11:56:29.113 -0400,8797.562466416668,1.017333984375,0.375457763671875,-0.3170318603515625,1,1
2020-05-16 11:56:29.183 -0400,8797.632307416667,1.269744873046875,0.375213623046875,-0.32232666015625,1,1
2020-05-16 11:56:29.253 -0400,8797.702148416667,1.463851928710938,0.5454254150390625,-0.3661651611328125,1,1
2020-05-16 11:56:29.323 -0400,8797.771987416667,0.927337646484375,0.366790771484375,-0.38671875,1,1
2020-05-16 11:56:29.392 -0400,8797.841829416668,0.9253997802734375,0.401336669921875,-0.234344482421875,1,1
2020-05-16 11:56:29.462 -0400,8797.911675416668,0.793792724609375,0.26080322265625,-0.1273345947265625,1,1
2020-05-16 11:56:29.532 -0400,8797.981517416667,0.5839080810546875,0.3527984619140625,-0.1046142578125,1,1
2020-05-16 11:56:29.602 -0400,8798.051359416668,0.82568359375,0.442626953125,-0.0800628662109375,1,1
2020-05-16 11:56:29.672 -0400,8798.121202416667,0.9669036865234375,0.3405303955078125,-0.02484130859375,1,1
2020-05-16 11:56:29.742 -0400,8798.191045416666,1.03289794921875,0.374664306640625,-0.0674896240234375,1,1
2020-05-16 11:56:29.811 -0400,8798.260888416668,1.172470092773438,0.447601318359375,-0.1758575439453125,1,1
2020-05-16 11:56:29.881 -0400,8798.330733416667,1.226318359375,0.367919921875,-0.20562744140625,1,1
2020-05-16 11:56:29.951 -0400,8798.400577416667,1.096267700195312,0.4117431640625,-0.35809326171875,1,1
2020-05-16 11:56:30.021 -0400,8798.470418416668,0.9519500732421875,0.3025665283203125,-0.342987060546875,1,1
2020-05-16 11:56:30.091 -0400,8798.540252416667,0.857330322265625,0.2405548095703125,-0.287261962890625,1,1
2020-05-16 11:56:30.161 -0400,8798.610091416667,0.614501953125,0.26080322265625,-0.243438720703125,1,1
2020-05-16 11:56:30.237 -0400,8798.679928416666,0.5404052734375,0.2955322265625,-0.1898345947265625,1,1
2020-05-16 11:56:30.300 -0400,8798.749765416667,0.66290283203125,0.322845458984375,-0.1742706298828125,1,1
2020-05-16 11:56:30.370 -0400,8798.819605416667,0.760040283203125,0.3793487548828125,-0.2169952392578125,1,1
2020-05-16 11:56:30.440 -0400,8798.889446416668,0.811309814453125,0.3979034423828125,-0.3052520751953125,1,1
2020-05-16 11:56:30.510 -0400,8798.959289416667,0.9608917236328125,0.411651611328125,-0.333526611328125,1,1
2020-05-16 11:56:30.580 -0400,8799.0291325,1.308151245117188,0.45166015625,-0.35894775390625,1,1
2020-05-16 11:56:30.650 -0400,8799.0989735,1.131790161132812,0.5672454833984375,-0.3840789794921875,1,1
2020-05-16 11:56:30.719 -0400,8799.168815500001,1.047470092773438,0.4359130859375,-0.2804718017578125,1,1
2020-05-16 11:56:30.789 -0400,8799.238654500001,1.191635131835938,0.30035400390625,-0.144561767578125,1,1
2020-05-16 11:56:30.859 -0400,8799.308493500001,0.7957916259765625,0.328369140625,-0.1099090576171875,1,1
2020-05-16 11:56:30.929 -0400,8799.378329500001,0.64642333984375,0.4206085205078125,-0.0841064453125,1,1
2020-05-16 11:56:30.999 -0400,8799.448167500001,0.9254913330078125,0.4274139404296875,-0.0352935791015625,1,1
2020-05-16 11:56:31.069 -0400,8799.518007500001,1.227203369140625,0.3395538330078125,-0.076324462890625,1,1
2020-05-16 11:56:31.138 -0400,8799.587846500001,1.33447265625,0.315277099609375,-0.1278533935546875,1,1
2020-05-16 11:56:31.208 -0400,8799.657682500001,1.193695068359375,0.3818511962890625,-0.1473388671875,1,1
2020-05-16 11:56:31.278 -0400,8799.727517500001,0.7377166748046875,0.44970703125,-0.38104248046875,1,1
2020-05-16 11:56:31.348 -0400,8799.7973585,0.7859344482421875,0.275238037109375,-0.3433074951171875,1,1
2020-05-16 11:56:31.418 -0400,8799.8671935,0.8091583251953125,0.137603759765625,-0.24664306640625,1,1
2020-05-16 11:56:31.488 -0400,8799.9370315,0.7556915283203125,0.3128662109375,-0.4034423828125,1,1
2020-05-16 11:56:31.558 -0400,8800.006870875,0.582611083984375,0.3599395751953125,-0.3609771728515625,1,1
2020-05-16 11:56:31.627 -0400,8800.076709875,0.5145721435546875,0.3383331298828125,-0.2847900390625,1,1
2020-05-16 11:56:31.697 -0400,8800.146541875001,0.5980987548828125,0.252655029296875,-0.227081298828125,1,1
2020-05-16 11:56:31.767 -0400,8800.216375875001,0.92999267578125,0.3448028564453125,-0.209625244140625,1,1
2020-05-16 11:56:31.837 -0400,8800.286211875,0.8760986328125,0.4510650634765625,-0.235870361328125,1,1
2020-05-16 11:56:31.907 -0400,8800.356050875,0.8704071044921875,0.4672393798828125,-0.2898406982421875,1,1
2020-05-16 11:56:31.976 -0400,8800.425887875001,0.9814300537109375,0.39239501953125,-0.2360687255859375,1,1
2020-05-16 11:56:32.046 -0400,8800.495722875001,1.307998657226562,0.489288330078125,-0.275421142578125,1,1
2020-05-16 11:56:32.116 -0400,8800.565558875,1.00128173828125,0.4565277099609375,-0.3448486328125,1,1
2020-05-16 11:56:32.186 -0400,8800.635395875001,1.118759155273438,0.3779144287109375,-0.2371673583984375,1,1
2020-05-16 11:56:32.256 -0400,8800.705231875001,0.92181396484375,0.296356201171875,-0.1540679931640625,1,1
2020-05-16 11:56:32.326 -0400,8800.775066875001,0.7164306640625,0.3644866943359375,-0.1165771484375,1,1
2020-05-16 11:56:32.396 -0400,8800.844903875,0.839996337890625,0.4138031005859375,-0.0820465087890625,1,1
2020-05-16 11:56:32.465 -0400,8800.914742875,0.8704071044921875,0.335205078125,-0.060455322265625,1,1
2020-05-16 11:56:32.535 -0400,8800.984583875001,0.9200897216796875,0.3382415771484375,-0.10626220703125,1,1
2020-05-16 11:56:32.605 -0400,8801.054418375001,1.205947875976562,0.3514556884765625,-0.1531982421875,1,1
2020-05-16 11:56:32.675 -0400,8801.124251375,1.288467407226562,0.2953948974609375,-0.1330413818359375,1,1
2020-05-16 11:56:32.745 -0400,8801.194084375,1.23687744140625,0.5173492431640625,-0.378509521484375,1,1
2020-05-16 11:56:32.814 -0400,8801.263916375001,0.7858123779296875,0.2164154052734375,-0.391876220703125,1,1
2020-05-16 11:56:32.884 -0400,8801.333751375001,0.73822021484375,0.116912841796875,-0.4566802978515625,1,1
2020-05-16 11:56:32.954 -0400,8801.403589375001,0.602264404296875,0.31671142578125,-0.3699188232421875,1,1
2020-05-16 11:56:33.024 -0400,8801.473426375,0.7047119140625,0.2714996337890625,-0.2489166259765625,1,1
2020-05-16 11:56:33.094 -0400,8801.543264375001,0.74151611328125,0.2713775634765625,-0.1604156494140625,1,1
2020-05-16 11:56:33.164 -0400,8801.613101375,0.701690673828125,0.3528594970703125,-0.23406982421875,1,1
2020-05-16 11:56:33.234 -0400,8801.682934375001,0.8309478759765625,0.380035400390625,-0.2778778076171875,1,1
2020-05-16 11:56:33.304 -0400,8801.752768375001,1.033767700195312,0.40423583984375,-0.3636322021484375,1,1
2020-05-16 11:56:33.373 -0400,8801.822603375,1.3692626953125,0.4720001220703125,-0.4495086669921875,1,1
2020-05-16 11:56:33.443 -0400,8801.892441375001,1.18170166015625,0.5358734130859375,-0.4217071533203125,1,1
2020-05-16 11:56:33.513 -0400,8801.962282375,1.237594604492188,0.390960693359375,-0.3630523681640625,1,1
2020-05-16 11:56:33.583 -0400,8802.032118666668,1.356948852539062,0.310272216796875,-0.2018890380859375,1,1
2020-05-16 11:56:33.653 -0400,8802.101957666668,1.021347045898438,0.3639068603515625,-0.1573028564453125,1,1
2020-05-16 11:56:33.722 -0400,8802.171798666666,0.5103912353515625,0.3958892822265625,-0.07220458984375,1,1
2020-05-16 11:56:33.792 -0400,8802.241637666668,0.3384552001953125,0.343597412109375,0.00360107421875,1,1
2020-05-16 11:56:33.862 -0400,8802.311473666667,0.4872894287109375,0.2613067626953125,-0.00653076171875,1,1
2020-05-16 11:56:33.932 -0400,8802.381312666666,0.9752197265625,0.2571563720703125,0.0170440673828125,1,1
2020-05-16 11:56:34.002 -0400,8802.451151666668,1.111190795898438,0.3088531494140625,-0.025909423828125,1,1
2020-05-16 11:56:34.072 -0400,8802.520989666667,1.113311767578125,0.537750244140625,-0.24603271484375,1,1
2020-05-16 11:56:34.142 -0400,8802.590827666667,1.1944580078125,0.614166259765625,-0.4146728515625,1,1
2020-05-16 11:56:34.212 -0400,8802.660664666668,0.6041259765625,0.2901763916015625,-0.5279541015625,1,1
2020-05-16 11:56:34.282 -0400,8802.730501666667,1.008529663085938,0.2020721435546875,-0.346710205078125,1,1
2020-05-16 11:56:34.351 -0400,8802.800336666667,0.785369873046875,0.4037322998046875,-0.428375244140625,1,1
2020-05-16 11:56:34.421 -0400,8802.870176666667,0.71832275390625,0.490966796875,-0.4227447509765625,1,1
2020-05-16 11:56:34.491 -0400,8802.940018666668,0.7439117431640625,0.4307403564453125,-0.3478240966796875,1,1
2020-05-16 11:56:34.561 -0400,8803.009860125001,0.7167205810546875,0.3424072265625,-0.3201904296875,1,1
2020-05-16 11:56:34.630 -0400,8803.079698125001,0.8443450927734375,0.319000244140625,-0.3173065185546875,1,1
2020-05-16 11:56:34.700 -0400,8803.149534125001,1.28948974609375,0.2968292236328125,-0.2338714599609375,1,1
2020-05-16 11:56:34.770 -0400,8803.219372125001,1.6009521484375,0.579132080078125,-0.417327880859375,1,1
2020-05-16 11:56:34.839 -0400,8803.289204125,1.250137329101562,0.4613189697265625,-0.30859375,1,1
2020-05-16 11:56:34.909 -0400,8803.359033125,1.158233642578125,0.272857666015625,-0.18572998046875,1,1
2020-05-16 11:56:34.979 -0400,8803.428861125001,0.8556976318359375,0.2501983642578125,-0.11334228515625,1,1
2020-05-16 11:56:35.049 -0400,8803.498689125001,0.4736328125,0.2786712646484375,-0.0764312744140625,1,1
2020-05-16 11:56:35.119 -0400,8803.568523125001,0.3529510498046875,0.2770538330078125,-0.035888671875,1,1
2020-05-16 11:56:35.189 -0400,8803.638355125,0.55328369140625,0.3195648193359375,-0.0709991455078125,1,1
2020-05-16 11:56:35.259 -0400,8803.708192125001,0.8557281494140625,0.3377227783203125,-0.0644989013671875,1,1
2020-05-16 11:56:35.333 -0400,8803.778027125001,1.28167724609375,0.4939422607421875,-0.2472991943359375,1,1
2020-05-16 11:56:35.398 -0400,8803.847862125,1.820419311523438,0.5521240234375,-0.348236083984375,1,1
2020-05-16 11:56:35.468 -0400,8803.917695125001,1.160079956054688,0.501678466796875,-0.6422119140625,1,1
2020-05-16 11:56:35.538 -0400,8803.987526125,0.74114990234375,0.241424560546875,-0.3480377197265625,1,1
2020-05-16 11:56:35.608 -0400,8804.057358,0.6656341552734375,0.191619873046875,-0.2235107421875,1,1
2020-05-16 11:56:35.678 -0400,8804.127191000001,0.6673431396484375,0.3637542724609375,-0.25244140625,1,1
2020-05-16 11:56:35.747 -0400,8804.197025000001,0.7530517578125,0.3636322021484375,-0.237457275390625,1,1
2020-05-16 11:56:35.817 -0400,8804.266858000001,0.851654052734375,0.3315887451171875,-0.2677001953125,1,1
2020-05-16 11:56:35.887 -0400,8804.336694,0.744354248046875,0.2653656005859375,-0.4073028564453125,1,1
2020-05-16 11:56:35.957 -0400,8804.406528000001,0.5035247802734375,0.1218109130859375,-0.39984130859375,1,1
2020-05-16 11:56:36.027 -0400,8804.476365,0.6002655029296875,0.2683563232421875,-0.565826416015625,1,1
2020-05-16 11:56:36.097 -0400,8804.546201000001,0.9882354736328125,0.4225006103515625,-0.3169097900390625,1,1
2020-05-16 11:56:36.167 -0400,8804.616040000001,1.62030029296875,0.5395660400390625,-0.3438568115234375,1,1
2020-05-16 11:56:36.238 -0400,8804.685877,1.571609497070312,0.44622802734375,-0.4408416748046875,1,1
2020-05-16 11:56:36.306 -0400,8804.755713,0.962860107421875,0.4037017822265625,-0.226043701171875,1,1
2020-05-16 11:56:36.376 -0400,8804.825548000001,0.8079833984375,0.38470458984375,-0.1597137451171875,1,1
2020-05-16 11:56:36.446 -0400,8804.895388000001,0.8070831298828125,0.2533416748046875,-0.052032470703125,1,1
2020-05-16 11:56:36.516 -0400,8804.965228000001,0.731231689453125,0.315155029296875,-0.0555267333984375,1,1
2020-05-16 11:56:36.586 -0400,8805.035063541667,0.7152862548828125,0.356658935546875,-0.00653076171875,1,1
2020-05-16 11:56:36.656 -0400,8805.104902541667,0.7644805908203125,0.39501953125,-0.0002899169921875,1,1
2020-05-16 11:56:36.725 -0400,8805.174743541667,0.87884521484375,0.4578094482421875,-0.0825347900390625,1,1
2020-05-16 11:56:36.795 -0400,8805.244587541667,0.8696136474609375,0.4285125732421875,-0.106048583984375,1,1
2020-05-16 11:56:36.865 -0400,8805.314431541667,1.062698364257812,0.37908935546875,-0.181610107421875,1,1
2020-05-16 11:56:36.935 -0400,8805.384271541667,1.297225952148438,0.2564239501953125,-0.2684478759765625,1,1
2020-05-16 11:56:37.005 -0400,8805.454108541668,1.352920532226562,0.3379974365234375,-0.3627166748046875,1,1
2020-05-16 11:56:37.075 -0400,8805.523946541667,1.326248168945312,0.404083251953125,-0.443206787109375,1,1
2020-05-16 11:56:37.144 -0400,8805.593781541667,0.9532470703125,-0.01788330078125,-0.2576141357421875,1,1
2020-05-16 11:56:37.215 -0400,8805.663618541666,0.9372100830078125,-0.0750274658203125,-0.183837890625,1,1
2020-05-16 11:56:37.284 -0400,8805.733456541668,0.770233154296875,0.15252685546875,-0.279693603515625,1,1
2020-05-16 11:56:37.354 -0400,8805.803292541666,0.5740509033203125,0.08447265625,-0.2223663330078125,1,1
2020-05-16 11:56:37.424 -0400,8805.873126541666,0.527008056640625,0.1652069091796875,-0.1384735107421875,1,1
2020-05-16 11:56:37.494 -0400,8805.942961541667,0.5982208251953125,0.223480224609375,-0.055572509765625,1,1
2020-05-16 11:56:37.563 -0400,8806.012800291668,0.6685791015625,0.3884735107421875,-0.0588836669921875,1,1
2020-05-16 11:56:37.633 -0400,8806.082640291666,1.008209228515625,0.5564117431640625,-0.2594757080078125,1,1
2020-05-16 11:56:37.703 -0400,8806.152481291667,1.212509155273438,0.5838165283203125,-0.4247589111328125,1,1
2020-05-16 11:56:37.773 -0400,8806.222323291668,1.639862060546875,0.3778076171875,-0.490509033203125,1,1
2020-05-16 11:56:37.843 -0400,8806.292164291668,1.297515869140625,0.1606597900390625,-0.461029052734375,1,1
2020-05-16 11:56:37.913 -0400,8806.362005291667,1.2252197265625,-0.0242919921875,-0.467071533203125,1,1
2020-05-16 11:56:37.983 -0400,8806.431843291668,1.10064697265625,0.0034942626953125,-0.1443939208984375,1,1
2020-05-16 11:56:38.052 -0400,8806.501684291667,0.6359100341796875,0.5134124755859375,-0.0694427490234375,1,1
2020-05-16 11:56:38.122 -0400,8806.571525291667,0.3294677734375,0.390869140625,0.0133056640625,1,1
2020-05-16 11:56:38.192 -0400,8806.641363291666,0.3889617919921875,0.28521728515625,0.05938720703125,1,1
2020-05-16 11:56:38.262 -0400,8806.711204291667,0.6429595947265625,0.3084564208984375,0.0708465576171875,1,1
2020-05-16 11:56:38.332 -0400,8806.781039291667,0.9307098388671875,0.3729095458984375,0.029754638671875,1,1
2020-05-16 11:56:38.402 -0400,8806.850874291667,1.222427368164062,0.452484130859375,-0.0834503173828125,1,1
2020-05-16 11:56:38.471 -0400,8806.920715291668,1.335708618164062,0.498870849609375,-0.2758636474609375,1,1
2020-05-16 11:56:38.541 -0400,8806.990554291668,1.489425659179688,0.5465087890625,-0.5545806884765625,1,1
2020-05-16 11:56:38.611 -0400,8807.060391416668,0.9870452880859375,0.2381591796875,-0.6269378662109375,1,1
2020-05-16 11:56:38.681 -0400,8807.130232416666,0.8790130615234375,-0.6571807861328125,-0.508148193359375,1,1
2020-05-16 11:56:38.751 -0400,8807.200074416667,0.6047515869140625,0.358062744140625,-0.272857666015625,1,1
2020-05-16 11:56:38.821 -0400,8807.269914416667,0.580108642578125,0.2507781982421875,-0.1895904541015625,1,1
2020-05-16 11:56:38.890 -0400,8807.339752416667,0.6384124755859375,0.3853607177734375,-0.0821685791015625,1,1
2020-05-16 11:56:38.960 -0400,8807.409591416666,0.74676513671875,0.39990234375,-0.159454345703125,1,1
2020-05-16 11:56:39.030 -0400,8807.479430416668,0.8771209716796875,0.375762939453125,-0.17022705078125,1,1
2020-05-16 11:56:39.100 -0400,8807.549269416668,1.13427734375,0.353607177734375,-0.2017669677734375,1,1
2020-05-16 11:56:39.170 -0400,8807.619109416668,1.291458129882812,0.352752685546875,-0.2220306396484375,1,1
2020-05-16 11:56:39.240 -0400,8807.688950416667,1.2303466796875,0.6221771240234375,-0.5087738037109375,1,1
2020-05-16 11:56:39.309 -0400,8807.758793416668,0.9491729736328125,0.362030029296875,-0.2940521240234375,1,1
2020-05-16 11:56:39.379 -0400,8807.828634416666,1.06829833984375,0.2324676513671875,-0.1255340576171875,1,1
2020-05-16 11:56:39.449 -0400,8807.898472416668,0.8334503173828125,0.286895751953125,-0.1481781005859375,1,1
2020-05-16 11:56:39.519 -0400,8807.968304416667,0.6820831298828125,0.44451904296875,-0.14984130859375,1,1
2020-05-16 11:56:39.589 -0400,8808.038138541668,0.7598876953125,0.405914306640625,-0.0232086181640625,1,1
2020-05-16 11:56:39.659 -0400,8808.107975541667,0.9219970703125,0.322296142578125,-0.002227783203125,1,1
2020-05-16 11:56:39.728 -0400,8808.177814541667,0.903228759765625,0.31524658203125,-0.0005950927734375,1,1
2020-05-16 11:56:39.798 -0400,8808.247653541666,1.046783447265625,0.4542388916015625,-0.1010284423828125,1,1
2020-05-16 11:56:39.868 -0400,8808.317490541667,1.115249633789062,0.4229583740234375,-0.2082977294921875,1,1
2020-05-16 11:56:39.938 -0400,8808.387329541667,1.178512573242188,0.3745269775390625,-0.2873687744140625,1,1
2020-05-16 11:56:40.008 -0400,8808.457168541667,0.990814208984375,0.4622039794921875,-0.5698699951171875,1,1
2020-05-16 11:56:40.078 -0400,8808.527006541668,0.839569091796875,0.1509246826171875,-0.3435821533203125,1,1
2020-05-16 11:56:40.148 -0400,8808.596841541666,0.7481231689453125,0.2121734619140625,-0.3063507080078125,1,1
2020-05-16 11:56:40.217 -0400,8808.666675541666,0.6817474365234375,0.3325042724609375,-0.27825927734375,1,1
2020-05-16 11:56:40.287 -0400,8808.736511541667,0.6286773681640625,0.3786773681640625,-0.2328643798828125,1,1
2020-05-16 11:56:40.357 -0400,8808.806347541667,0.7336273193359375,0.4096527099609375,-0.2194976806640625,1,1
2020-05-16 11:56:40.427 -0400,8808.876186541667,0.8562469482421875,0.3227081298828125,-0.18292236328125,1,1
2020-05-16 11:56:40.497 -0400,8808.946024541667,0.803558349609375,0.2919769287109375,-0.15264892578125,1,1
2020-05-16 11:56:40.567 -0400,8809.015862,1.051681518554688,0.3736419677734375,-0.1641387939453125,1,1
2020-05-16 11:56:40.636 -0400,8809.0857,1.451370239257812,0.6005706787109375,-0.279052734375,1,1
2020-05-16 11:56:40.706 -0400,8809.155538000001,0.9366455078125,0.4319915771484375,-0.292236328125,1,1
2020-05-16 11:56:40.776 -0400,8809.225376,0.9990997314453125,0.4121246337890625,-0.20904541015625,1,1
2020-05-16 11:56:40.846 -0400,8809.295212000001,0.8997650146484375,0.2079620361328125,-0.0963287353515625,1,1
2020-05-16 11:56:40.916 -0400,8809.365047000001,0.7587432861328125,0.369171142578125,-0.1399688720703125,1,1
2020-05-16 11:56:40.986 -0400,8809.434888,0.883087158203125,0.4469146728515625,-0.1012725830078125,1,1
2020-05-16 11:56:41.055 -0400,8809.504727000001,0.903411865234375,0.382568359375,-0.070953369140625,1,1
2020-05-16 11:56:41.125 -0400,8809.574566000001,0.9289703369140625,0.393524169921875,-0.1112060546875,1,1
2020-05-16 11:56:41.195 -0400,8809.644407,0.927734375,0.360015869140625,-0.12750244140625,1,1
2020-05-16 11:56:41.265 -0400,8809.714246000001,1.148681640625,0.349334716796875,-0.1172943115234375,1,1
2020-05-16 11:56:41.335 -0400,8809.784087,1.117568969726562,0.4780426025390625,-0.3038482666015625,1,1
2020-05-16 11:56:41.405 -0400,8809.853930000001,0.87335205078125,0.2942352294921875,-0.4427032470703125,1,1
2020-05-16 11:56:41.474 -0400,8809.923774000001,0.7789764404296875,0.2028045654296875,-0.4054107666015625,1,1
2020-05-16 11:56:41.544 -0400,8809.993617,0.6035308837890625,0.2253265380859375,-0.345855712890625,1,1
2020-05-16 11:56:41.614 -0400,8810.063458291666,0.4665069580078125,0.252593994140625,-0.38922119140625,1,1
2020-05-16 11:56:41.684 -0400,8810.133301291668,0.530059814453125,0.308837890625,-0.3560943603515625,1,1
2020-05-16 11:56:41.754 -0400,8810.203147291668,0.6927337646484375,0.3382110595703125,-0.306671142578125,1,1
2020-05-16 11:56:41.824 -0400,8810.272989291667,0.90167236328125,0.3387603759765625,-0.3841094970703125,1,1
2020-05-16 11:56:41.894 -0400,8810.342830291667,1.107192993164062,0.29400634765625,-0.321929931640625,1,1
2020-05-16 11:56:41.963 -0400,8810.412673291667,1.531234741210938,0.5078277587890625,-0.477874755859375,1,1
2020-05-16 11:56:42.033 -0400,8810.482524291667,1.225936889648438,0.3222198486328125,-0.2913665771484375,1,1
2020-05-16 11:56:42.103 -0400,8810.552370291667,1.145721435546875,0.40869140625,-0.23687744140625,1,1
2020-05-16 11:56:42.173 -0400,8810.622217291668,0.808319091796875,0.3508148193359375,-0.138031005859375,1,1
2020-05-16 11:56:42.243 -0400,8810.692065291667,0.587738037109375,0.3312225341796875,-0.1542205810546875,1,1
2020-05-16 11:56:42.313 -0400,8810.761911291667,0.6851959228515625,0.3057861328125,-0.1423797607421875,1,1
2020-05-16 11:56:42.382 -0400,8810.831754291667,0.688079833984375,0.22857666015625,-0.1062469482421875,1,1
2020-05-16 11:56:42.452 -0400,8810.901601291667,0.6068572998046875,0.26678466796875,-0.1036224365234375,1,1
2020-05-16 11:56:42.522 -0400,8810.971448291668,0.8324432373046875,0.418487548828125,-0.1600494384765625,1,1
2020-05-16 11:56:42.592 -0400,8811.041291541667,1.179153442382812,0.4705810546875,-0.2769012451171875,1,1
2020-05-16 11:56:42.662 -0400,8811.111133541668,1.373291015625,0.4920196533203125,-0.4474029541015625,1,1
2020-05-16 11:56:42.732 -0400,8811.180976541667,0.949615478515625,0.4632720947265625,-0.5734100341796875,1,1
2020-05-16 11:56:42.801 -0400,8811.250816541668,1.071746826171875,0.3676300048828125,-0.3566741943359375,1,1
2020-05-16 11:56:42.871 -0400,8811.320660541667,0.777099609375,0.4246063232421875,-0.3593292236328125,1,1
2020-05-16 11:56:42.941 -0400,8811.390500541667,0.4704437255859375,0.449554443359375,-0.2979888916015625,1,1
2020-05-16 11:56:43.011 -0400,8811.460339541667,0.480377197265625,0.3965606689453125,-0.2417755126953125,1,1
2020-05-16 11:56:43.081 -0400,8811.530178541667,0.7422637939453125,0.354522705078125,-0.2247314453125,1,1
2020-05-16 11:56:43.151 -0400,8811.600021541668,0.82476806640625,0.3735809326171875,-0.267425537109375,1,1
2020-05-16 11:56:43.221 -0400,8811.669862541667,0.971038818359375,0.3938446044921875,-0.3526458740234375,1,1
2020-05-16 11:56:43.290 -0400,8811.739706541668,1.635498046875,0.2833709716796875,-0.422943115234375,1,1
2020-05-16 11:56:43.360 -0400,8811.809552541667,1.537338256835938,0.54425048828125,-0.3355712890625,1,1
2020-05-16 11:56:43.430 -0400,8811.879396541668,1.331130981445312,0.210357666015625,-0.242279052734375,1,1
2020-05-16 11:56:43.500 -0400,8811.949239541667,0.9906158447265625,0.3376312255859375,-0.2444915771484375,1,1
2020-05-16 11:56:43.570 -0400,8812.019083375,0.6111907958984375,0.2799835205078125,-0.15008544921875,1,1
2020-05-16 11:56:43.640 -0400,8812.088926375001,0.4456329345703125,0.2405242919921875,-0.0606231689453125,1,1
2020-05-16 11:56:43.710 -0400,8812.158768375,0.4208221435546875,0.246673583984375,-0.042877197265625,1,1
2020-05-16 11:56:43.779 -0400,8812.228612375,0.562652587890625,0.2975921630859375,-0.0316314697265625,1,1
2020-05-16 11:56:43.849 -0400,8812.298455375001,1.109207153320312,0.43377685546875,-0.0582275390625,1,1
2020-05-16 11:56:43.919 -0400,8812.368296375,1.443405151367188,0.5921478271484375,-0.273040771484375,1,1
2020-05-16 11:56:43.989 -0400,8812.438141375,0.962982177734375,0.60137939453125,-0.651580810546875,1,1
2020-05-16 11:56:44.059 -0400,8812.507985375001,1.145370483398438,0.1095123291015625,-0.4233551025390625,1,1
2020-05-16 11:56:44.129 -0400,8812.577830375001,0.760406494140625,0.12237548828125,-0.41436767578125,1,1
2020-05-16 11:56:44.198 -0400,8812.647670375001,0.446807861328125,0.401153564453125,-0.4351959228515625,1,1
2020-05-16 11:56:44.268 -0400,8812.717512375,0.520050048828125,0.3654327392578125,-0.4247283935546875,1,1
2020-05-16 11:56:44.339 -0400,8812.787355375001,0.8693389892578125,0.3485107421875,-0.4177093505859375,1,1
2020-05-16 11:56:44.408 -0400,8812.857201375,1.016387939453125,0.281280517578125,-0.428497314453125,1,1
2020-05-16 11:56:44.478 -0400,8812.927048375001,1.288436889648438,0.3269195556640625,-0.4097137451171875,1,1
2020-05-16 11:56:44.548 -0400,8812.996894375001,1.430694580078125,0.34954833984375,-0.350921630859375,1,1
2020-05-16 11:56:44.617 -0400,8813.0667385,0.96875,0.34942626953125,-0.2752227783203125,1,1
2020-05-16 11:56:44.687 -0400,8813.1365845,0.78009033203125,0.3280029296875,-0.2242279052734375,1,1
2020-05-16 11:56:44.757 -0400,8813.2064295,0.892181396484375,0.3432159423828125,-0.1080780029296875,1,1
2020-05-16 11:56:44.827 -0400,8813.2762755,0.68218994140625,0.298675537109375,-0.0287628173828125,1,1
2020-05-16 11:56:44.897 -0400,8813.346121500001,0.648895263671875,0.3846282958984375,-0.0774688720703125,1,1
2020-05-16 11:56:44.967 -0400,8813.4159655,0.7237091064453125,0.4209747314453125,-0.049774169921875,1,1
2020-05-16 11:56:45.037 -0400,8813.485812500001,0.758148193359375,0.40875244140625,-0.1122894287109375,1,1
2020-05-16 11:56:45.106 -0400,8813.5556555,0.9127044677734375,0.3946685791015625,-0.1824493408203125,1,1
2020-05-16 11:56:45.176 -0400,8813.625498500001,1.2314453125,0.3838043212890625,-0.2812042236328125,1,1
2020-05-16 11:56:45.246 -0400,8813.695342500001,1.64288330078125,0.390960693359375,-0.345672607421875,1,1
2020-05-16 11:56:45.316 -0400,8813.765181500001,0.7486572265625,0.5946502685546875,-0.6815338134765625,1,1
2020-05-16 11:56:45.386 -0400,8813.8350235,0.9791107177734375,0.2273101806640625,-0.31494140625,1,1
2020-05-16 11:56:45.456 -0400,8813.904866500001,0.8300933837890625,0.052337646484375,-0.2226409912109375,1,1
2020-05-16 11:56:45.525 -0400,8813.974710500001,0.591156005859375,0.22528076171875,-0.2866973876953125,1,1
2020-05-16 11:56:45.595 -0400,8814.044556500001,0.53399658203125,0.245147705078125,-0.2827606201171875,1,1
2020-05-16 11:56:45.665 -0400,8814.1143985,0.65570068359375,0.288238525390625,-0.27349853515625,1,1
2020-05-16 11:56:45.735 -0400,8814.184241500001,0.714752197265625,0.2449188232421875,-0.289764404296875,1,1
2020-05-16 11:56:45.805 -0400,8814.2540825,1.148162841796875,0.3294525146484375,-0.4066009521484375,1,1
2020-05-16 11:56:45.875 -0400,8814.3239225,1.766098022460938,0.301300048828125,-0.2208404541015625,1,1
2020-05-16 11:56:45.944 -0400,8814.3937635,1.30120849609375,0.4884490966796875,-0.4010772705078125,1,1
2020-05-16 11:56:46.014 -0400,8814.463605500001,0.8360748291015625,0.467498779296875,-0.2663726806640625,1,1
2020-05-16 11:56:46.084 -0400,8814.5334465,0.7552032470703125,0.3543548583984375,-0.0847930908203125,1,1
2020-05-16 11:56:46.154 -0400,8814.603289500001,0.5646514892578125,0.3602294921875,-0.123382568359375,1,1
2020-05-16 11:56:46.228 -0400,8814.673134500001,0.5197601318359375,0.442657470703125,-0.066619873046875,1,1
2020-05-16 11:56:46.294 -0400,8814.7429765,0.83160400390625,0.5161895751953125,-0.1180572509765625,1,1
2020-05-16 11:56:46.363 -0400,8814.8128165,1.182891845703125,0.3875732421875,-0.08355712890625,1,1
2020-05-16 11:56:46.433 -0400,8814.8826615,1.2352294921875,0.2777252197265625,-0.1649322509765625,1,1
2020-05-16 11:56:46.503 -0400,8814.9525025,1.20404052734375,0.3986053466796875,-0.2338104248046875,1,1
2020-05-16 11:56:46.573 -0400,8815.022341625001,1.326248168945312,0.3269500732421875,-0.244720458984375,1,1
2020-05-16 11:56:46.643 -0400,8815.092178625,0.9385833740234375,0.3403167724609375,-0.4487762451171875,1,1
2020-05-16 11:56:46.713 -0400,8815.162014625001,0.9135894775390625,0.163482666015625,-0.3304901123046875,1,1
2020-05-16 11:56:46.783 -0400,8815.231852625,0.87554931640625,0.0578765869140625,-0.1190948486328125,1,1
2020-05-16 11:56:46.852 -0400,8815.301693625001,0.759185791015625,0.3174591064453125,-0.1960601806640625,1,1
2020-05-16 11:56:46.922 -0400,8815.371535625001,0.66632080078125,0.353851318359375,-0.1849212646484375,1,1
2020-05-16 11:56:46.992 -0400,8815.441373625001,0.6631011962890625,0.3787078857421875,-0.143402099609375,1,1
2020-05-16 11:56:47.062 -0400,8815.511212625001,0.710906982421875,0.3954010009765625,-0.1134490966796875,1,1
2020-05-16 11:56:47.132 -0400,8815.581049625,0.8465728759765625,0.3927459716796875,-0.159454345703125,1,1
2020-05-16 11:56:47.202 -0400,8815.650885625,1.065032958984375,0.4182586669921875,-0.235076904296875,1,1
2020-05-16 11:56:47.272 -0400,8815.720724625,1.35235595703125,0.4040679931640625,-0.3020782470703125,1,1
2020-05-16 11:56:47.341 -0400,8815.790560625001,1.445327758789062,0.5087890625,-0.4769744873046875,1,1
2020-05-16 11:56:47.411 -0400,8815.860398625,0.919189453125,0.3291168212890625,-0.3773651123046875,1,1
2020-05-16 11:56:47.481 -0400,8815.930235625001,1.020248413085938,0.1048431396484375,-0.3395538330078125,1,1
2020-05-16 11:56:47.551 -0400,8816.000071625,0.982269287109375,0.18157958984375,-0.1555633544921875,1,1
2020-05-16 11:56:47.621 -0400,8816.069909875001,0.7432861328125,0.4189453125,-0.0858917236328125,1,1
2020-05-16 11:56:47.690 -0400,8816.139748875001,0.73980712890625,0.416534423828125,-0.0770111083984375,1,1
2020-05-16 11:56:47.760 -0400,8816.209583875001,0.7440338134765625,0.3153228759765625,-0.038238525390625,1,1
2020-05-16 11:56:47.830 -0400,8816.279415875,0.7496795654296875,0.3182525634765625,-0.0068359375,1,1
2020-05-16 11:56:47.900 -0400,8816.349247875001,0.7196807861328125,0.30694580078125,-0.039031982421875,1,1
2020-05-16 11:56:47.970 -0400,8816.419083875,1.017837524414062,0.3739166259765625,-0.1446533203125,1,1
2020-05-16 11:56:48.040 -0400,8816.488918875,1.59393310546875,0.465576171875,-0.206085205078125,1,1
2020-05-16 11:56:48.109 -0400,8816.558752875,1.457794189453125,0.602020263671875,-0.6467437744140625,1,1
2020-05-16 11:56:48.179 -0400,8816.628588875001,0.9168243408203125,0.0699615478515625,-0.285064697265625,1,1
2020-05-16 11:56:48.249 -0400,8816.698424875001,0.8090972900390625,-0.085968017578125,-0.1987457275390625,1,1
2020-05-16 11:56:48.319 -0400,8816.768267875001,0.6690826416015625,0.282501220703125,-0.198883056640625,1,1
2020-05-16 11:56:48.389 -0400,8816.838109875,0.50823974609375,0.3607330322265625,-0.1510772705078125,1,1
2020-05-16 11:56:48.459 -0400,8816.907953875001,0.47576904296875,0.3408203125,-0.14434814453125,1,1
2020-05-16 11:56:48.529 -0400,8816.977798875001,0.6975250244140625,0.3758087158203125,-0.1556396484375,1,1
2020-05-16 11:56:48.598 -0400,8817.047645041666,1.156036376953125,0.470123291015625,-0.312469482421875,1,1
2020-05-16 11:56:48.668 -0400,8817.117486041667,1.822158813476562,0.377410888671875,-0.278900146484375,1,1
2020-05-16 11:56:48.738 -0400,8817.187324041668,1.695327758789062,0.311676025390625,-0.5018157958984375,1,1
2020-05-16 11:56:48.808 -0400,8817.257161041667,0.987579345703125,0.295806884765625,-0.3345489501953125,1,1
2020-05-16 11:56:48.878 -0400,8817.326998041668,0.933074951171875,0.3254547119140625,0.0476226806640625,1,1
2020-05-16 11:56:48.947 -0400,8817.396831041668,0.9995269775390625,0.4761810302734375,0.214324951171875,1,1
2020-05-16 11:56:49.018 -0400,8817.466664041667,0.805877685546875,0.4254302978515625,0.1475372314453125,1,1
2020-05-16 11:56:49.087 -0400,8817.536503041667,0.72027587890625,0.569488525390625,0.1513519287109375,1,1
2020-05-16 11:56:49.157 -0400,8817.606342041667,0.6359405517578125,0.4251556396484375,-0.131103515625,1,1
2020-05-16 11:56:49.227 -0400,8817.676177041667,0.528839111328125,0.296112060546875,-0.0936126708984375,1,1
2020-05-16 11:56:49.297 -0400,8817.746014041668,0.41839599609375,0.037261962890625,-0.2218475341796875,1,1
2020-05-16 11:56:49.367 -0400,8817.815850041667,0.5711212158203125,0.147979736328125,-0.410675048828125,1,1
2020-05-16 11:56:49.436 -0400,8817.885686041667,0.9032440185546875,0.282684326171875,-0.4674072265625,1,1
2020-05-16 11:56:49.506 -0400,8817.955524041667,1.152236938476562,0.35833740234375,-0.5922088623046875,1,1
2020-05-16 11:56:49.576 -0400,8818.025365250001,1.051666259765625,0.3669891357421875,-0.671234130859375,1,1
2020-05-16 11:56:49.646 -0400,8818.095203250001,0.8642730712890625,0.016632080078125,-0.4059295654296875,1,1
2020-05-16 11:56:49.716 -0400,8818.16504625,0.924102783203125,0.1228485107421875,-0.101898193359375,1,1
2020-05-16 11:56:49.786 -0400,8818.234887250001,0.7881622314453125,0.3450927734375,-0.058868408203125,1,1
2020-05-16 11:56:49.855 -0400,8818.30472425,0.5863800048828125,0.461090087890625,0.023406982421875,1,1
2020-05-16 11:56:49.925 -0400,8818.374563250001,0.712127685546875,0.5934600830078125,-0.043304443359375,1,1
2020-05-16 11:56:49.995 -0400,8818.444403250001,0.84149169921875,0.4597930908203125,-0.224945068359375,1,1
2020-05-16 11:56:50.065 -0400,8818.51424425,0.8748016357421875,0.4336700439453125,-0.4318389892578125,1,1
2020-05-16 11:56:50.135 -0400,8818.584082250001,1.18634033203125,0.3503570556640625,-0.378570556640625,1,1
2020-05-16 11:56:50.205 -0400,8818.653922250001,1.341567993164062,0.4828948974609375,-0.42938232421875,1,1
2020-05-16 11:56:50.274 -0400,8818.72376225,0.9970245361328125,0.582122802734375,-0.4067840576171875,1,1
2020-05-16 11:56:50.344 -0400,8818.793601250001,1.160293579101562,0.40447998046875,-0.1974029541015625,1,1
2020-05-16 11:56:50.414 -0400,8818.863439250001,1.217376708984375,0.3085784912109375,-0.0844879150390625,1,1
2020-05-16 11:56:50.484 -0400,8818.93328325,0.9977264404296875,0.33843994140625,-0.056365966796875,1,1
2020-05-16 11:56:50.554 -0400,8819.00312725,0.7512359619140625,0.39373779296875,0.024658203125,1,1
2020-05-16 11:56:50.624 -0400,8819.072971125001,0.7832489013671875,0.37176513671875,0.0805816650390625,1,1
2020-05-16 11:56:50.693 -0400,8819.142812125001,0.8340911865234375,0.3111724853515625,0.0439605712890625,1,1
2020-05-16 11:56:50.763 -0400,8819.212656125001,0.9524078369140625,0.344146728515625,-0.0747222900390625,1,1
2020-05-16 11:56:50.833 -0400,8819.282498125001,1.283599853515625,0.322357177734375,-0.222503662109375,1,1
2020-05-16 11:56:50.903 -0400,8819.352337125001,1.1317138671875,0.32598876953125,-0.4942169189453125,1,1
2020-05-16 11:56:50.973 -0400,8819.422175125001,0.964935302734375,0.23944091796875,-0.537506103515625,1,1
2020-05-16 11:56:51.045 -0400,8819.492010125001,1.08673095703125,0.197265625,-0.463714599609375,1,1
2020-05-16 11:56:51.113 -0400,8819.561850125001,0.688079833984375,0.2809295654296875,-0.439666748046875,1,1
2020-05-16 11:56:51.182 -0400,8819.631688125,0.5574188232421875,0.311920166015625,-0.3031463623046875,1,1
2020-05-16 11:56:51.252 -0400,8819.701528125001,0.57745361328125,0.3734893798828125,-0.2421722412109375,1,1
2020-05-16 11:56:51.322 -0400,8819.771365125,0.7708282470703125,0.4559326171875,-0.302032470703125,1,1
2020-05-16 11:56:51.392 -0400,8819.841200125,1.077560424804688,0.4052581787109375,-0.31280517578125,1,1
2020-05-16 11:56:51.462 -0400,8819.911034125,1.169174194335938,0.2886962890625,-0.2682647705078125,1,1
2020-05-16 11:56:51.531 -0400,8819.980872125001,1.18115234375,0.40521240234375,-0.4099273681640625,1,1
2020-05-16 11:56:51.601 -0400,8820.050707666667,1.1597900390625,0.3442535400390625,-0.294677734375,1,1
2020-05-16 11:56:51.671 -0400,8820.120542666667,1.085662841796875,0.321136474609375,-0.3255157470703125,1,1
2020-05-16 11:56:51.741 -0400,8820.190377666668,1.016937255859375,0.25421142578125,-0.1848602294921875,1,1
2020-05-16 11:56:51.811 -0400,8820.260212666668,0.7455291748046875,0.2565460205078125,-0.1102447509765625,1,1
2020-05-16 11:56:51.881 -0400,8820.330049666667,0.4984588623046875,0.308258056640625,-0.0510101318359375,1,1
2020-05-16 11:56:51.951 -0400,8820.399886666668,0.466766357421875,0.406005859375,0.0015411376953125,1,1
2020-05-16 11:56:52.020 -0400,8820.469726666668,0.56549072265625,0.41632080078125,0.0141448974609375,1,1
2020-05-16 11:56:52.090 -0400,8820.539561666666,0.6781158447265625,0.36773681640625,-0.058074951171875,1,1
2020-05-16 11:56:52.160 -0400,8820.609394666668,1.815109252929688,0.4061126708984375,-0.2019500732421875,1,1
2020-05-16 11:56:52.230 -0400,8820.679224666666,1.8375244140625,0.272369384765625,-0.5230560302734375,1,1
2020-05-16 11:56:52.300 -0400,8820.749051666668,1.255996704101562,0.5751953125,-0.59991455078125,1,1
2020-05-16 11:56:52.370 -0400,8820.818886666668,1.014785766601562,0.2267913818359375,-0.4283447265625,1,1
2020-05-16 11:56:52.439 -0400,8820.888721666668,0.9488983154296875,-0.569488525390625,0.060455322265625,1,1
2020-05-16 11:56:52.509 -0400,8820.958556666666,0.787567138671875,0.234619140625,-0.0495147705078125,1,1
2020-05-16 11:56:52.579 -0400,8821.028388875,0.595611572265625,0.5001678466796875,-0.1124267578125,1,1
2020-05-16 11:56:52.649 -0400,8821.098225875001,0.5180511474609375,0.380126953125,-0.1627960205078125,1,1
2020-05-16 11:56:52.719 -0400,8821.168062875,0.4812469482421875,0.1929168701171875,-0.048858642578125,1,1
2020-05-16 11:56:52.789 -0400,8821.237898875001,0.4733734130859375,0.245880126953125,-0.052825927734375,1,1
2020-05-16 11:56:52.858 -0400,8821.307736875,0.6280670166015625,0.4315032958984375,-0.0793609619140625,1,1
2020-05-16 11:56:52.928 -0400,8821.377575875,1.100509643554688,0.6546173095703125,-0.3807220458984375,1,1
2020-05-16 11:56:52.998 -0400,8821.447411875,1.494827270507812,0.490203857421875,-0.3632354736328125,1,1
2020-05-16 11:56:53.068 -0400,8821.517251875001,1.423965454101562,0.245758056640625,-0.5910797119140625,1,1
2020-05-16 11:56:53.138 -0400,8821.587086875001,1.094451904296875,0.35198974609375,-0.484375,1,1
2020-05-16 11:56:53.208 -0400,8821.656922875001,1.1395263671875,0.0089263916015625,-0.20965576171875,1,1
2020-05-16 11:56:53.278 -0400,8821.726761875001,0.8702392578125,0.3661041259765625,-0.0962371826171875,1,1
2020-05-16 11:56:53.347 -0400,8821.796599875001,0.6004180908203125,0.4428863525390625,-0.0428924560546875,1,1
2020-05-16 11:56:53.417 -0400,8821.866436875,0.6316375732421875,0.3988800048828125,0.04840087890625,1,1
2020-05-16 11:56:53.487 -0400,8821.936273875001,0.8660430908203125,0.3932037353515625,0.05511474609375,1,1
2020-05-16 11:56:53.557 -0400,8822.006107875,1.09112548828125,0.4188995361328125,-0.0476837158203125,1,1
2020-05-16 11:56:53.627 -0400,8822.075940791667,1.360946655273438,0.3453369140625,-0.220245361328125,1,1
2020-05-16 11:56:53.696 -0400,8822.145769791667,1.289505004882812,0.1614532470703125,-0.1854400634765625,1,1
2020-05-16 11:56:53.766 -0400,8822.215601791668,0.9965057373046875,0.3268890380859375,-0.59161376953125,1,1
2020-05-16 11:56:53.836 -0400,8822.285433791667,0.8860931396484375,0.1184844970703125,-0.3307037353515625,1,1
2020-05-16 11:56:53.910 -0400,8822.355263791667,0.77484130859375,0.1998138427734375,-0.28125,1,1
2020-05-16 11:56:53.976 -0400,8822.425097791667,0.6707000732421875,0.41400146484375,-0.20855712890625,1,1
2020-05-16 11:56:54.046 -0400,8822.494931791667,0.5709381103515625,0.442230224609375,-0.092071533203125,1,1
2020-05-16 11:56:54.116 -0400,8822.564766791667,0.6483612060546875,0.473236083984375,-0.0771942138671875,1,1
2020-05-16 11:56:54.185 -0400,8822.634601791668,0.7860260009765625,0.5111083984375,-0.17169189453125,1,1
2020-05-16 11:56:54.255 -0400,8822.704439791667,0.9786224365234375,0.50518798828125,-0.3359222412109375,1,1
2020-05-16 11:56:54.329 -0400,8822.774277791666,1.483505249023438,0.4044189453125,-0.3209228515625,1,1
2020-05-16 11:56:54.395 -0400,8822.844115791668,1.481246948242188,0.4306182861328125,-0.50537109375,1,1
2020-05-16 11:56:54.465 -0400,8822.913948791667,0.9293670654296875,0.41363525390625,-0.4581756591796875,1,1
2020-05-16 11:56:54.535 -0400,8822.983784791668,1.034652709960938,0.235565185546875,-0.3336029052734375,1,1
2020-05-16 11:56:54.604 -0400,8823.053616541667,0.934967041015625,0.136138916015625,-0.13568115234375,1,1
2020-05-16 11:56:54.674 -0400,8823.123449541667,0.645416259765625,0.3048248291015625,-0.1236114501953125,1,1
2020-05-16 11:56:54.744 -0400,8823.193283541666,0.5742645263671875,0.3911895751953125,-0.03594970703125,1,1
2020-05-16 11:56:54.814 -0400,8823.263116541668,0.739837646484375,0.3797607421875,0.0163726806640625,1,1
2020-05-16 11:56:54.884 -0400,8823.332947541667,1.039108276367188,0.3820648193359375,-0.04022216796875,1,1
2020-05-16 11:56:54.953 -0400,8823.402783541667,1.187591552734375,0.3668670654296875,-0.1326904296875,1,1
2020-05-16 11:56:55.024 -0400,8823.472616541667,1.407608032226562,0.3010101318359375,-0.1644744873046875,1,1
2020-05-16 11:56:55.093 -0400,8823.542452541667,1.347549438476562,0.452239990234375,-0.454254150390625,1,1
2020-05-16 11:56:55.163 -0400,8823.612288541668,1.044845581054688,0.2892608642578125,-0.5027313232421875,1,1
2020-05-16 11:56:55.233 -0400,8823.682125541667,0.9344940185546875,-0.1254425048828125,-0.247314453125,1,1
2020-05-16 11:56:55.305 -0400,8823.751958541667,0.783935546875,0.1801605224609375,-0.29718017578125,1,1
2020-05-16 11:56:55.373 -0400,8823.821795541668,0.5118255615234375,0.392608642578125,-0.2717742919921875,1,1
2020-05-16 11:56:55.442 -0400,8823.891626541666,0.4086151123046875,0.2452239990234375,-0.1622161865234375,1,1
2020-05-16 11:56:55.512 -0400,8823.961458541668,0.58795166015625,0.2364959716796875,-0.108001708984375,1,1
2020-05-16 11:56:55.582 -0400,8824.031290875,0.7595367431640625,0.3696441650390625,-0.1636505126953125,1,1
2020-05-16 11:56:55.652 -0400,8824.101121875001,0.9697418212890625,0.426971435546875,-0.3404388427734375,1,1
2020-05-16 11:56:55.722 -0400,8824.170955875001,1.412445068359375,0.41204833984375,-0.368682861328125,1,1
2020-05-16 11:56:55.792 -0400,8824.240788875,1.3515625,0.3610992431640625,-0.4682464599609375,1,1
2020-05-16 11:56:55.861 -0400,8824.310620875001,1.1319580078125,0.405426025390625,-0.468414306640625,1,1
2020-05-16 11:56:55.931 -0400,8824.380452875001,1.179931640625,0.1421051025390625,-0.182830810546875,1,1
2020-05-16 11:56:56.001 -0400,8824.450284875,1.009231567382812,0.217437744140625,-0.1345062255859375,1,1
2020-05-16 11:56:56.071 -0400,8824.520118875,0.677581787109375,0.3841705322265625,-0.1363372802734375,1,1
2020-05-16 11:56:56.141 -0400,8824.589954875,0.5843048095703125,0.36700439453125,-0.0333099365234375,1,1
2020-05-16 11:56:56.211 -0400,8824.659785875001,0.753173828125,0.3276519775390625,-0.001953125,1,1
2020-05-16 11:56:56.280 -0400,8824.729616875,0.907318115234375,0.292877197265625,-0.0415496826171875,1,1
2020-05-16 11:56:56.350 -0400,8824.799450875,1.179000854492188,0.330535888671875,-0.1793670654296875,1,1
2020-05-16 11:56:56.420 -0400,8824.869281875001,1.36529541015625,0.296783447265625,-0.279754638671875,1,1
2020-05-16 11:56:56.490 -0400,8824.939111875001,1.36712646484375,0.2776947021484375,-0.1996002197265625,1,1
2020-05-16 11:56:56.560 -0400,8825.008940875001,1.029144287109375,0.5073089599609375,-0.5164642333984375,1,1
2020-05-16 11:56:56.629 -0400,8825.078768125,0.965087890625,0.2904815673828125,-0.3682861328125,1,1
2020-05-16 11:56:56.699 -0400,8825.148602125,0.7645416259765625,0.2013397216796875,-0.269927978515625,1,1
2020-05-16 11:56:56.769 -0400,8825.218433125001,0.4873046875,0.340545654296875,-0.187774658203125,1,1
2020-05-16 11:56:56.839 -0400,8825.288264125,0.5333404541015625,0.41693115234375,-0.13018798828125,1,1
2020-05-16 11:56:56.909 -0400,8825.358096125001,0.7432098388671875,0.404022216796875,-0.099761962890625,1,1
2020-05-16 11:56:56.979 -0400,8825.427932125,0.8783416748046875,0.458709716796875,-0.2609710693359375,1,1
2020-05-16 11:56:57.048 -0400,8825.497765125001,0.9922637939453125,0.4547882080078125,-0.4063568115234375,1,1
2020-05-16 11:56:57.118 -0400,8825.567598125001,1.064468383789062,0.2429351806640625,-0.3540802001953125,1,1
2020-05-16 11:56:57.188 -0400,8825.637430125,1.634933471679688,0.412261962890625,-0.5182952880859375,1,1
2020-05-16 11:56:57.258 -0400,8825.707262125001,1.01434326171875,0.375457763671875,-0.4026031494140625,1,1
2020-05-16 11:56:57.329 -0400,8825.777094125,1.021774291992188,0.2253265380859375,-0.23809814453125,1,1
2020-05-16 11:56:57.398 -0400,8825.846923125,0.830169677734375,0.244232177734375,-0.089019775390625,1,1
2020-05-16 11:56:57.468 -0400,8825.916753125,0.5830841064453125,0.3833770751953125,-0.0392913818359375,1,1
2020-05-16 11:56:57.537 -0400,8825.986586125,0.701995849609375,0.446014404296875,0.003509521484375,1,1
2020-05-16 11:56:57.607 -0400,8826.056421750001,0.9924163818359375,0.452362060546875,0.0281982421875,1,1
2020-05-16 11:56:57.677 -0400,8826.126254750001,0.9123687744140625,0.335235595703125,-0.0139312744140625,1,1
2020-05-16 11:56:57.747 -0400,8826.19609075,0.89654541015625,0.3472747802734375,-0.0728302001953125,1,1
2020-05-16 11:56:57.817 -0400,8826.265923750001,1.138763427734375,0.3542327880859375,-0.1802215576171875,1,1
2020-05-16 11:56:57.886 -0400,8826.33576075,1.265106201171875,0.29046630859375,-0.2069549560546875,1,1
2020-05-16 11:56:57.956 -0400,8826.405597750001,1.367507934570312,0.5399932861328125,-0.7182769775390625,1,1
2020-05-16 11:56:58.026 -0400,8826.47543375,0.9032745361328125,0.1956939697265625,-0.576263427734375,1,1
2020-05-16 11:56:58.096 -0400,8826.54526775,0.859100341796875,-0.1021575927734375,-0.3334503173828125,1,1
2020-05-16 11:56:58.166 -0400,8826.61509675,0.720611572265625,0.327911376953125,-0.3115386962890625,1,1
2020-05-16 11:56:58.236 -0400,8826.68492575,0.6062164306640625,0.4003448486328125,-0.287872314453125,1,1
2020-05-16 11:56:58.306 -0400,8826.75475975,0.67291259765625,0.3547821044921875,-0.1572418212890625,1,1
2020-05-16 11:56:58.376 -0400,8826.824593750001,0.7587127685546875,0.3496246337890625,-0.10357666015625,1,1
2020-05-16 11:56:58.445 -0400,8826.89442875,0.7032012939453125,0.32440185546875,-0.1459503173828125,1,1
2020-05-16 11:56:58.515 -0400,8826.96426475,0.6595306396484375,0.3205718994140625,-0.181365966796875,1,1
2020-05-16 11:56:58.585 -0400,8827.034101291667,0.59979248046875,0.3600311279296875,-0.427093505859375,1,1
2020-05-16 11:56:58.655 -0400,8827.103934291667,0.959991455078125,0.2800140380859375,-0.418670654296875,1,1
2020-05-16 11:56:58.724 -0400,8827.173771291667,1.330902099609375,0.5132293701171875,-0.5451202392578125,1,1
2020-05-16 11:56:58.794 -0400,8827.243608291667,1.901611328125,0.454498291015625,-0.653900146484375,1,1
2020-05-16 11:56:58.864 -0400,8827.313441291668,1.084930419921875,0.1675262451171875,-0.28179931640625,1,1
2020-05-16 11:56:58.934 -0400,8827.383275291668,0.953643798828125,0.339141845703125,-0.2039947509765625,1,1
2020-05-16 11:56:59.004 -0400,8827.453106291667,0.986480712890625,0.3510894775390625,-0.107818603515625,1,1
2020-05-16 11:56:59.074 -0400,8827.522939291668,0.6518096923828125,0.2758636474609375,-0.016204833984375,1,1
2020-05-16 11:56:59.143 -0400,8827.592776291667,0.4564056396484375,0.3338623046875,0.022003173828125,1,1
2020-05-16 11:56:59.214 -0400,8827.662616291667,0.55462646484375,0.367645263671875,0.0600128173828125,1,1
2020-05-16 11:56:59.283 -0400,8827.732450291667,0.7795257568359375,0.3926544189453125,0.0059967041015625,1,1
2020-05-16 11:56:59.353 -0400,8827.802285291667,0.76446533203125,0.425018310546875,-0.291351318359375,1,1
2020-05-16 11:56:59.423 -0400,8827.872121291668,0.703460693359375,0.35394287109375,-0.710113525390625,1,1
2020-05-16 11:56:59.493 -0400,8827.941964291667,0.9803009033203125,0.0313720703125,-0.5568389892578125,1,1
2020-05-16 11:56:59.563 -0400,8828.011801291666,1.396820068359375,0.152557373046875,-0.584442138671875,1,1
2020-05-16 11:56:59.632 -0400,8828.081633875001,1.543258666992188,0.1761322021484375,-0.229278564453125,1,1
2020-05-16 11:56:59.702 -0400,8828.151470875,1.446853637695312,0.6951446533203125,-0.2669830322265625,1,1
2020-05-16 11:56:59.772 -0400,8828.221308875001,0.7820892333984375,0.4066925048828125,-0.18597412109375,1,1
2020-05-16 11:56:59.842 -0400,8828.291148875,0.83685302734375,0.244659423828125,-0.143341064453125,1,1
2020-05-16 11:56:59.912 -0400,8828.360985875001,0.6021881103515625,-0.184661865234375,-0.09100341796875,1,1
2020-05-16 11:56:59.982 -0400,8828.430820875001,0.524078369140625,0.102874755859375,-0.20703125,1,1
2020-05-16 11:57:00.051 -0400,8828.500655875001,0.5312347412109375,0.2482757568359375,-0.1986236572265625,1,1
2020-05-16 11:57:00.121 -0400,8828.570491875,0.6641845703125,0.3261566162109375,-0.2496337890625,1,1
2020-05-16 11:57:00.191 -0400,8828.640327875,0.9010467529296875,0.417938232421875,-0.3568115234375,1,1
2020-05-16 11:57:00.261 -0400,8828.710162875001,1.0615234375,0.4139862060546875,-0.433380126953125,1,1
2020-05-16 11:57:00.331 -0400,8828.780002875001,1.247909545898438,0.3339996337890625,-0.4348297119140625,1,1
2020-05-16 11:57:00.401 -0400,8828.849841875,1.541305541992188,0.413818359375,-0.527313232421875,1,1
2020-05-16 11:57:00.470 -0400,8828.919681875001,1.074005126953125,0.3600921630859375,-0.2938690185546875,1,1
2020-05-16 11:57:00.540 -0400,8828.989518875,1.139373779296875,0.328155517578125,-0.2323150634765625,1,1
2020-05-16 11:57:00.610 -0400,8829.059354875,1.21368408203125,0.2805328369140625,-0.0967254638671875,1,1
2020-05-16 11:57:00.680 -0400,8829.129191875001,0.9332275390625,0.2604522705078125,-0.03338623046875,1,1
2020-05-16 11:57:00.750 -0400,8829.199033875,0.6426239013671875,0.2931365966796875,0.0235137939453125,1,1
2020-05-16 11:57:00.820 -0400,8829.268875875001,0.5982666015625,0.3365478515625,0.0588226318359375,1,1
2020-05-16 11:57:00.889 -0400,8829.338712875,0.7114105224609375,0.339202880859375,0.067108154296875,1,1
2020-05-16 11:57:00.959 -0400,8829.408548875001,0.8598785400390625,0.3667449951171875,0.0223236083984375,1,1
2020-05-16 11:57:01.029 -0400,8829.478391875,1.065521240234375,0.420166015625,-0.099609375,1,1
2020-05-16 11:57:01.099 -0400,8829.548229875001,1.413818359375,0.439056396484375,-0.2588043212890625,1,1
2020-05-16 11:57:01.169 -0400,8829.618068875001,1.5626220703125,0.3055877685546875,-0.3298492431640625,1,1
2020-05-16 11:57:01.239 -0400,8829.687907875001,1.154052734375,0.223358154296875,-0.43145751953125,1,1
2020-05-16 11:57:01.309 -0400,8829.757748875001,1.13720703125,-0.4986419677734375,-0.115081787109375,1,1
2020-05-16 11:57:01.378 -0400,8829.827587875001,0.80633544921875,-0.0019989013671875,-0.1562042236328125,1,1
2020-05-16 11:57:01.448 -0400,8829.897424875,0.556793212890625,0.2261962890625,-0.193878173828125,1,1
2020-05-16 11:57:01.518 -0400,8829.967266875001,0.4614105224609375,0.27740478515625,-0.14910888671875,1,1
2020-05-16 11:57:01.588 -0400,8830.037106375001,0.7129364013671875,0.20062255859375,-0.1328582763671875,1,1
2020-05-16 11:57:01.658 -0400,8830.106942375001,0.8160552978515625,0.3459320068359375,-0.194183349609375,1,1
2020-05-16 11:57:01.728 -0400,8830.176779375,0.844512939453125,0.3799896240234375,-0.2939910888671875,1,1
2020-05-16 11:57:01.797 -0400,8830.246615375001,0.843963623046875,0.308837890625,-0.4137725830078125,1,1
2020-05-16 11:57:01.867 -0400,8830.316450375001,0.923980712890625,0.3957366943359375,-0.3883209228515625,1,1
2020-05-16 11:57:01.937 -0400,8830.386285375,1.121139526367188,0.237396240234375,-0.3311920166015625,1,1
2020-05-16 11:57:02.007 -0400,8830.456123375001,1.459426879882812,0.4458465576171875,-0.4339752197265625,1,1
2020-05-16 11:57:02.077 -0400,8830.525963375001,1.223388671875,0.411468505859375,-0.203704833984375,1,1
2020-05-16 11:57:02.146 -0400,8830.595802375001,0.9476776123046875,0.419158935546875,-0.0219879150390625,1,1
2020-05-16 11:57:02.216 -0400,8830.665637375001,0.9798736572265625,0.459625244140625,0.1911163330078125,1,1
2020-05-16 11:57:02.286 -0400,8830.735476375001,0.798736572265625,0.4227142333984375,0.339080810546875,1,1
2020-05-16 11:57:02.356 -0400,8830.805317375001,0.5869140625,0.4134521484375,0.2006378173828125,1,1
2020-05-16 11:57:02.426 -0400,8830.875156375001,0.62451171875,0.3782958984375,0.2497100830078125,1,1
2020-05-16 11:57:02.496 -0400,8830.944990375001,0.923187255859375,0.48736572265625,0.055999755859375,1,1
2020-05-16 11:57:02.566 -0400,8831.014824375001,1.228759765625,0.5325775146484375,-0.138763427734375,1,1
2020-05-16 11:57:02.635 -0400,8831.08466525,1.3609619140625,0.314300537109375,-0.186859130859375,1,1
2020-05-16 11:57:02.705 -0400,8831.154506250001,1.099288940429688,0.079010009765625,-0.1572418212890625,1,1
2020-05-16 11:57:02.775 -0400,8831.224347250001,1.14129638671875,0.361907958984375,-0.40887451171875,1,1
2020-05-16 11:57:02.845 -0400,8831.294186250001,0.9612884521484375,0.36578369140625,-0.3704071044921875,1,1
2020-05-16 11:57:02.915 -0400,8831.364025250001,1.050094604492188,0.083099365234375,-0.2157745361328125,1,1
2020-05-16 11:57:02.985 -0400,8831.43386225,0.772186279296875,0.1822662353515625,-0.2783660888671875,1,1
2020-05-16 11:57:03.054 -0400,8831.503699250001,0.4524383544921875,0.236297607421875,-0.2394561767578125,1,1
2020-05-16 11:57:03.124 -0400,8831.573535250001,0.2801513671875,0.2499237060546875,-0.189788818359375,1,1
2020-05-16 11:57:03.194 -0400,8831.64337125,0.5188751220703125,0.26934814453125,-0.1869354248046875,1,1
2020-05-16 11:57:03.264 -0400,8831.713207250001,0.875396728515625,0.3433837890625,-0.202972412109375,1,1
2020-05-16 11:57:03.334 -0400,8831.783042250001,1.251876831054688,0.51031494140625,-0.3337249755859375,1,1
2020-05-16 11:57:03.404 -0400,8831.85287925,1.570404052734375,0.516448974609375,-0.4367828369140625,1,1
2020-05-16 11:57:03.473 -0400,8831.92271225,1.212295532226562,0.4003753662109375,-0.229278564453125,1,1
2020-05-16 11:57:03.543 -0400,8831.99254825,0.9596099853515625,0.283905029296875,-0.09344482421875,1,1
2020-05-16 11:57:03.613 -0400,8832.062386041667,0.989715576171875,0.340789794921875,0.0601959228515625,1,1
2020-05-16 11:57:03.683 -0400,8832.132225041667,0.8983001708984375,0.377227783203125,0.25726318359375,1,1
2020-05-16 11:57:03.753 -0400,8832.202060041667,0.67706298828125,0.294769287109375,0.158355712890625,1,1
2020-05-16 11:57:03.823 -0400,8832.271894041667,0.6031646728515625,0.3570404052734375,0.0978240966796875,1,1
2020-05-16 11:57:03.892 -0400,8832.341727041667,0.6553192138671875,0.3743896484375,0.017730712890625,1,1
2020-05-16 11:57:03.962 -0400,8832.411564041668,0.8914337158203125,0.4333648681640625,-0.03424072265625,1,1
2020-05-16 11:57:04.032 -0400,8832.481397041667,1.048980712890625,0.465606689453125,-0.0919189453125,1,1
2020-05-16 11:57:04.102 -0400,8832.551231041667,1.17724609375,0.355621337890625,-0.1350250244140625,1,1
2020-05-16 11:57:04.172 -0400,8832.621063041668,1.295654296875,0.3638153076171875,-0.13916015625,1,1
2020-05-16 11:57:04.242 -0400,8832.690896041668,1.207992553710938,0.4422454833984375,-0.0882110595703125,1,1
2020-05-16 11:57:04.312 -0400,8832.760729041667,0.9691925048828125,0.3992462158203125,-0.1356658935546875,1,1
2020-05-16 11:57:04.381 -0400,8832.830564041667,0.923553466796875,0.083465576171875,-0.07025146484375,1,1
2020-05-16 11:57:04.451 -0400,8832.900397041667,0.8209381103515625,0.105255126953125,-0.141845703125,1,1
2020-05-16 11:57:04.521 -0400,8832.970231041667,0.6163330078125,0.2091064453125,-0.211273193359375,1,1
2020-05-16 11:57:04.591 -0400,8833.040064500001,0.550537109375,0.2607879638671875,-0.1768798828125,1,1
2020-05-16 11:57:04.660 -0400,8833.1099015,0.6225433349609375,0.3476409912109375,-0.1561737060546875,1,1
2020-05-16 11:57:04.730 -0400,8833.179734500001,0.72906494140625,0.4368438720703125,-0.1873016357421875,1,1
2020-05-16 11:57:04.800 -0400,8833.2495705,0.74658203125,0.3909912109375,-0.2211456298828125,1,1
2020-05-16 11:57:04.870 -0400,8833.319402500001,1.139892578125,0.400726318359375,-0.3720703125,1,1
2020-05-16 11:57:04.940 -0400,8833.389237500001,1.389022827148438,0.30072021484375,-0.36767578125,1,1
2020-05-16 11:57:05.010 -0400,8833.459075500001,1.7940673828125,0.3468017578125,-0.349517822265625,1,1
2020-05-16 11:57:05.080 -0400,8833.5289085,1.437942504882812,0.171478271484375,-0.1381988525390625,1,1
2020-05-16 11:57:05.149 -0400,8833.598748500001,1.575057983398438,0.2577362060546875,-0.0782470703125,1,1
2020-05-16 11:57:05.219 -0400,8833.6685815,1.070083618164062,0.2299041748046875,-0.0861053466796875,1,1
2020-05-16 11:57:05.289 -0400,8833.7384155,0.4068603515625,0.15478515625,-0.1592254638671875,1,1
2020-05-16 11:57:05.359 -0400,8833.8082565,0.03558349609375,0.172637939453125,-0.5010528564453125,1,1
2020-05-16 11:57:05.429 -0400,8833.878097500001,0.04486083984375,0.2675628662109375,-0.7129974365234375,1,1
2020-05-16 11:57:05.499 -0400,8833.9479355,0.908660888671875,0.9414825439453125,-0.395538330078125,1,1
2020-05-16 11:57:05.569 -0400,8834.017776500001,1.353927612304688,0.7906036376953125,-0.31005859375,1,1
2020-05-16 11:57:05.639 -0400,8834.087610500001,1.0870361328125,0.448272705078125,-0.0124053955078125,1,1
2020-05-16 11:57:05.708 -0400,8834.157445500001,1.145477294921875,0.5465850830078125,-0.29901123046875,1,1
2020-05-16 11:57:05.778 -0400,8834.227280500001,1.165496826171875,0.3364410400390625,0.09661865234375,1,1
2020-05-16 11:57:05.848 -0400,8834.297115500001,0.9427337646484375,0.22283935546875,0.0310516357421875,1,1
2020-05-16 11:57:05.918 -0400,8834.3669525,0.67718505859375,0.361297607421875,-0.073486328125,1,1
2020-05-16 11:57:05.988 -0400,8834.436789500001,0.631622314453125,0.41455078125,-0.0849456787109375,1,1
2020-05-16 11:57:06.057 -0400,8834.506627500001,0.92626953125,0.563446044921875,-0.2664642333984375,1,1
2020-05-16 11:57:06.127 -0400,8834.576467500001,1.178802490234375,0.717041015625,-0.5532684326171875,1,1
2020-05-16 11:57:06.197 -0400,8834.6463035,1.305389404296875,0.42132568359375,-0.53607177734375,1,1
2020-05-16 11:57:06.267 -0400,8834.716141500001,1.364898681640625,0.383819580078125,-0.4666290283203125,1,1
2020-05-16 11:57:06.337 -0400,8834.7859835,1.242904663085938,0.4912872314453125,-0.4852294921875,1,1
2020-05-16 11:57:06.407 -0400,8834.855825500001,1.093170166015625,0.28631591796875,-0.31695556640625,1,1
2020-05-16 11:57:06.476 -0400,8834.9256685,1.07513427734375,0.2938385009765625,-0.1870574951171875,1,1
2020-05-16 11:57:06.546 -0400,8834.9955095,0.96734619140625,0.409820556640625,-0.0846405029296875,1,1
2020-05-16 11:57:06.616 -0400,8835.065353,0.8735198974609375,0.3956451416015625,0.0081939697265625,1,1
2020-05-16 11:57:06.686 -0400,8835.135194,0.9923095703125,0.4180450439453125,-0.0243682861328125,1,1
2020-05-16 11:57:06.756 -0400,8835.205033,1.084945678710938,0.3424072265625,-0.025665283203125,1,1
2020-05-16 11:57:06.826 -0400,8835.274872,1.262100219726562,0.3235015869140625,-0.1183013916015625,1,1
2020-05-16 11:57:06.895 -0400,8835.344709000001,1.228561401367188,0.23736572265625,-0.1322784423828125,1,1
2020-05-16 11:57:06.965 -0400,8835.414549000001,1.008834838867188,0.2102203369140625,-0.202239990234375,1,1
2020-05-16 11:57:07.035 -0400,8835.484390000001,0.940399169921875,0.0521240234375,-0.247833251953125,1,1
2020-05-16 11:57:07.105 -0400,8835.554231,0.910491943359375,0.0134735107421875,-0.23565673828125,1,1
2020-05-16 11:57:07.175 -0400,8835.62407,0.795806884765625,0.258331298828125,-0.460205078125,1,1
2020-05-16 11:57:07.245 -0400,8835.693909000001,0.81292724609375,0.2789459228515625,-0.4376983642578125,1,1
2020-05-16 11:57:07.319 -0400,8835.763749,0.7774658203125,0.595245361328125,-0.2834320068359375,1,1
2020-05-16 11:57:07.384 -0400,8835.833593000001,0.956268310546875,0.50823974609375,-0.2215728759765625,1,1
2020-05-16 11:57:07.454 -0400,8835.903437000001,1.059677124023438,0.7103424072265625,-0.4399871826171875,1,1
2020-05-16 11:57:07.524 -0400,8835.973279,1.256637573242188,0.51043701171875,-0.4163360595703125,1,1
2020-05-16 11:57:07.594 -0400,8836.043117291667,1.367401123046875,0.452484130859375,-0.400848388671875,1,1
2020-05-16 11:57:07.664 -0400,8836.112960291668,0.9986114501953125,0.3000946044921875,-0.3074188232421875,1,1
2020-05-16 11:57:07.734 -0400,8836.182799291668,0.935546875,0.330352783203125,-0.1783599853515625,1,1
2020-05-16 11:57:07.803 -0400,8836.252638291668,1.00213623046875,0.383392333984375,-0.0985260009765625,1,1
2020-05-16 11:57:07.873 -0400,8836.322483291668,0.9295806884765625,0.3296356201171875,0.0249481201171875,1,1
2020-05-16 11:57:07.943 -0400,8836.392326291667,1.084213256835938,0.3941192626953125,0.00408935546875,1,1
2020-05-16 11:57:08.013 -0400,8836.462165291667,1.090530395507812,0.33673095703125,-0.0144195556640625,1,1
2020-05-16 11:57:08.083 -0400,8836.532003291668,1.146133422851562,0.344696044921875,-0.080322265625,1,1
2020-05-16 11:57:08.153 -0400,8836.601839291667,1.142807006835938,0.319305419921875,-0.1833038330078125,1,1
2020-05-16 11:57:08.222 -0400,8836.671677291668,1.158721923828125,0.1993560791015625,-0.252197265625,1,1
2020-05-16 11:57:08.293 -0400,8836.741517291668,1.048934936523438,0.2133941650390625,-0.5014495849609375,1,1
2020-05-16 11:57:08.362 -0400,8836.811356291668,1.055221557617188,0.1216583251953125,-0.27862548828125,1,1
2020-05-16 11:57:08.432 -0400,8836.881195291668,1.010421752929688,0.3783416748046875,-0.4694366455078125,1,1
2020-05-16 11:57:08.502 -0400,8836.951036291668,0.7439727783203125,0.393157958984375,-0.302520751953125,1,1
2020-05-16 11:57:08.572 -0400,8837.020879291667,0.7338104248046875,0.4248504638671875,-0.1599884033203125,1,1
2020-05-16 11:57:08.641 -0400,8837.090721,0.91015625,0.5568389892578125,-0.1812896728515625,1,1
2020-05-16 11:57:08.711 -0400,8837.160561000001,0.9565887451171875,0.5853271484375,-0.385772705078125,1,1
2020-05-16 11:57:08.781 -0400,8837.230401000001,1.060745239257812,0.47735595703125,-0.440277099609375,1,1
2020-05-16 11:57:08.851 -0400,8837.300238,1.257186889648438,0.4736175537109375,-0.5707855224609375,1,1
2020-05-16 11:57:08.921 -0400,8837.370075000001,1.342330932617188,0.4010772705078125,-0.421539306640625,1,1
2020-05-16 11:57:08.991 -0400,8837.439910000001,1.391326904296875,0.226593017578125,-0.2757568359375,1,1
2020-05-16 11:57:09.060 -0400,8837.509746,1.16229248046875,0.2242584228515625,-0.07147216796875,1,1
2020-05-16 11:57:09.130 -0400,8837.579585000001,0.6926116943359375,0.32916259765625,-0.0322265625,1,1
2020-05-16 11:57:09.200 -0400,8837.649423000001,0.5311279296875,0.364776611328125,0.0336151123046875,1,1
2020-05-16 11:57:09.270 -0400,8837.719264000001,0.6351318359375,0.291412353515625,0.1178131103515625,1,1
2020-05-16 11:57:09.340 -0400,8837.789103000001,0.7936859130859375,0.3134918212890625,0.077117919921875,1,1
2020-05-16 11:57:09.410 -0400,8837.858939,0.7464599609375,0.3330078125,0.0246734619140625,1,1
2020-05-16 11:57:09.479 -0400,8837.92877,0.9521331787109375,0.4674530029296875,-0.160980224609375,1,1
2020-05-16 11:57:09.549 -0400,8837.998602,1.284225463867188,0.4250335693359375,-0.33209228515625,1,1
2020-05-16 11:57:09.619 -0400,8838.068435166668,1.560821533203125,0.2468414306640625,-0.37286376953125,1,1
2020-05-16 11:57:09.689 -0400,8838.138266166667,1.195632934570312,0.457794189453125,-0.7278594970703125,1,1
2020-05-16 11:57:09.759 -0400,8838.208101166667,0.902099609375,0.295562744140625,-0.5941009521484375,1,1
2020-05-16 11:57:09.829 -0400,8838.277940166667,0.83203125,0.504302978515625,-0.460235595703125,1,1
2020-05-16 11:57:09.899 -0400,8838.347774166667,0.729522705078125,0.37744140625,-0.330352783203125,1,1
2020-05-16 11:57:09.969 -0400,8838.417607166668,0.8159332275390625,0.2909698486328125,-0.2077484130859375,1,1
2020-05-16 11:57:10.038 -0400,8838.487442166666,0.923095703125,0.348907470703125,-0.0426483154296875,1,1
2020-05-16 11:57:10.108 -0400,8838.557275166668,0.88800048828125,0.393524169921875,-0.0956878662109375,1,1
2020-05-16 11:57:10.178 -0400,8838.627109166668,0.78936767578125,0.3936004638671875,-0.1085662841796875,1,1
2020-05-16 11:57:10.258 -0400,8838.696945166666,0.79754638671875,0.30621337890625,-0.13165283203125,1,1
2020-05-16 11:57:10.318 -0400,8838.766782166667,1.01361083984375,0.282257080078125,-0.1577301025390625,1,1
2020-05-16 11:57:10.387 -0400,8838.836621166667,1.386444091796875,0.392730712890625,-0.2747955322265625,1,1
2020-05-16 11:57:10.457 -0400,8838.906457166668,1.099685668945312,0.46466064453125,-0.3283538818359375,1,1
2020-05-16 11:57:10.527 -0400,8838.976296166667,0.9716339111328125,0.5099029541015625,-0.3306732177734375,1,1
2020-05-16 11:57:10.597 -0400,8839.046133166667,0.8590850830078125,0.3225860595703125,-0.1086273193359375,1,1
2020-05-16 11:57:10.667 -0400,8839.115966166668,0.748779296875,0.3580474853515625,-0.14129638671875,1,1
2020-05-16 11:57:10.737 -0400,8839.185803166667,0.75762939453125,0.46612548828125,-0.143157958984375,1,1
2020-05-16 11:57:10.806 -0400,8839.255643166667,0.958984375,0.47064208984375,-0.125244140625,1,1
2020-05-16 11:57:10.876 -0400,8839.325480166668,1.04058837890625,0.3795013427734375,-0.084869384765625,1,1
2020-05-16 11:57:10.946 -0400,8839.395321166667,1.05584716796875,0.3492279052734375,-0.0858306884765625,1,1
2020-05-16 11:57:11.016 -0400,8839.465164166668,1.282455444335938,0.364166259765625,-0.0307464599609375,1,1
2020-05-16 11:57:11.086 -0400,8839.535006166667,1.359146118164062,0.375640869140625,-0.010406494140625,1,1
2020-05-16 11:57:11.156 -0400,8839.604849166668,1.260879516601562,0.469207763671875,-0.126007080078125,1,1
2020-05-16 11:57:11.226 -0400,8839.674686166667,0.793365478515625,0.3341522216796875,-0.236907958984375,1,1
2020-05-16 11:57:11.295 -0400,8839.744524166666,0.819610595703125,0.1141357421875,-0.2478179931640625,1,1
2020-05-16 11:57:11.365 -0400,8839.814362166668,0.5901641845703125,-0.191986083984375,-0.2967529296875,1,1
2020-05-16 11:57:11.435 -0400,8839.884201166667,0.53564453125,0.0933380126953125,-0.3748321533203125,1,1
2020-05-16 11:57:11.505 -0400,8839.954039166667,0.638824462890625,0.1686859130859375,-0.324127197265625,1,1
2020-05-16 11:57:11.575 -0400,8840.023875166667,0.8579254150390625,0.2250518798828125,-0.217437744140625,1,1
2020-05-16 11:57:11.644 -0400,8840.093711875001,0.8608551025390625,0.372772216796875,-0.1945037841796875,1,1
2020-05-16 11:57:11.714 -0400,8840.163550875001,0.9691314697265625,0.5302886962890625,-0.2750701904296875,1,1
2020-05-16 11:57:11.784 -0400,8840.233386875001,1.249053955078125,0.5069122314453125,-0.322509765625,1,1
2020-05-16 11:57:11.854 -0400,8840.303226875001,1.44189453125,0.5135955810546875,-0.4370880126953125,1,1
2020-05-16 11:57:11.924 -0400,8840.373064875001,1.2591552734375,0.5502166748046875,-0.41973876953125,1,1
2020-05-16 11:57:11.994 -0400,8840.442907875,1.00421142578125,0.4405975341796875,-0.4084320068359375,1,1
2020-05-16 11:57:12.064 -0400,8840.512749875001,0.8470611572265625,0.2998046875,-0.1776123046875,1,1
2020-05-16 11:57:12.133 -0400,8840.582590875001,0.704315185546875,0.326690673828125,-0.1784820556640625,1,1
2020-05-16 11:57:12.203 -0400,8840.652431875,0.626312255859375,0.3178863525390625,-0.03277587890625,1,1
2020-05-16 11:57:12.273 -0400,8840.722272875,0.8836212158203125,0.39202880859375,-0.0501251220703125,1,1
2020-05-16 11:57:12.343 -0400,8840.792116875,1.039810180664062,0.3362274169921875,-0.0172271728515625,1,1
2020-05-16 11:57:12.413 -0400,8840.861960875001,0.9613189697265625,0.3277740478515625,-0.069244384765625,1,1
2020-05-16 11:57:12.483 -0400,8840.931807875,1.23480224609375,0.3818359375,-0.1900787353515625,1,1
2020-05-16 11:57:12.552 -0400,8841.001650875001,1.244094848632812,0.321929931640625,-0.2279205322265625,1,1
2020-05-16 11:57:12.622 -0400,8841.071495791668,1.20654296875,0.4891510009765625,-0.6497344970703125,1,1
2020-05-16 11:57:12.692 -0400,8841.141341791666,1.031707763671875,0.10247802734375,-0.377288818359375,1,1
2020-05-16 11:57:12.762 -0400,8841.211189791667,0.8255462646484375,0.06854248046875,-0.2999725341796875,1,1
2020-05-16 11:57:12.832 -0400,8841.281033791667,0.489593505859375,0.4446868896484375,-0.31414794921875,1,1
2020-05-16 11:57:12.902 -0400,8841.350876791666,0.309417724609375,0.4285736083984375,-0.19635009765625,1,1
2020-05-16 11:57:12.971 -0400,8841.420722791667,0.5564117431640625,0.3943634033203125,-0.151702880859375,1,1
2020-05-16 11:57:13.041 -0400,8841.490573791667,0.8834686279296875,0.507843017578125,-0.2408447265625,1,1
2020-05-16 11:57:13.111 -0400,8841.560420791668,1.297866821289062,0.4572906494140625,-0.3929290771484375,1,1
2020-05-16 11:57:13.181 -0400,8841.630268791667,1.57391357421875,0.212493896484375,-0.3306427001953125,1,1
2020-05-16 11:57:13.251 -0400,8841.700115791667,1.115219116210938,0.4007720947265625,-0.407440185546875,1,1
2020-05-16 11:57:13.321 -0400,8841.769965791667,0.9866790771484375,0.4034271240234375,-0.3264617919921875,1,1
2020-05-16 11:57:13.391 -0400,8841.839814791667,1.053085327148438,0.3266143798828125,-0.1261138916015625,1,1
2020-05-16 11:57:13.460 -0400,8841.909661791668,0.7210845947265625,0.259063720703125,-0.0629119873046875,1,1
2020-05-16 11:57:13.530 -0400,8841.979511791667,0.6584625244140625,0.4234771728515625,-0.0787353515625,1,1
2020-05-16 11:57:13.600 -0400,8842.049357125001,0.85845947265625,0.498870849609375,-0.019287109375,1,1
2020-05-16 11:57:13.670 -0400,8842.119194125,1.05255126953125,0.5252532958984375,-0.201629638671875,1,1
2020-05-16 11:57:13.740 -0400,8842.189035125,0.862152099609375,0.61834716796875,-0.33758544921875,1,1
2020-05-16 11:57:13.810 -0400,8842.258876125001,0.6839447021484375,0.68890380859375,-0.48297119140625,1,1
2020-05-16 11:57:13.879 -0400,8842.328720125,0.69744873046875,0.4198760986328125,-0.43951416015625,1,1
2020-05-16 11:57:13.949 -0400,8842.398561125001,0.801910400390625,0.323883056640625,-0.419097900390625,1,1
2020-05-16 11:57:14.019 -0400,8842.468406125001,1.0198974609375,0.2587738037109375,-0.1900634765625,1,1
2020-05-16 11:57:14.089 -0400,8842.538251125001,0.94329833984375,0.39837646484375,-0.27581787109375,1,1
2020-05-16 11:57:14.159 -0400,8842.608093125,1.187713623046875,0.400604248046875,-0.2229156494140625,1,1
2020-05-16 11:57:14.229 -0400,8842.677938125,1.111114501953125,0.2175750732421875,-0.2248687744140625,1,1
2020-05-16 11:57:14.298 -0400,8842.747778125,0.7942657470703125,0.2221832275390625,-0.3458404541015625,1,1
2020-05-16 11:57:14.369 -0400,8842.817622125001,0.5917816162109375,0.239288330078125,-0.425201416015625,1,1
2020-05-16 11:57:14.438 -0400,8842.887463125,0.421722412109375,0.1757965087890625,-0.4274749755859375,1,1
2020-05-16 11:57:14.508 -0400,8842.957304125001,0.576690673828125,0.06036376953125,-0.4781341552734375,1,1
2020-05-16 11:57:14.578 -0400,8843.027145125001,0.831817626953125,0.670501708984375,-0.517486572265625,1,1
2020-05-16 11:57:14.648 -0400,8843.096981166667,0.8242645263671875,0.4704132080078125,-0.335784912109375,1,1
2020-05-16 11:57:14.718 -0400,8843.166822166668,0.92388916015625,0.49383544921875,-0.2179412841796875,1,1
2020-05-16 11:57:14.787 -0400,8843.236663166666,1.177108764648438,0.2474212646484375,-0.2223968505859375,1,1
2020-05-16 11:57:14.857 -0400,8843.306507166668,1.317001342773438,0.2663726806640625,-0.235870361328125,1,1
2020-05-16 11:57:14.927 -0400,8843.376352166668,1.348526000976562,0.53857421875,-0.1891937255859375,1,1
2020-05-16 11:57:14.997 -0400,8843.446197166668,1.002655029296875,0.4985198974609375,-0.333770751953125,1,1
2020-05-16 11:57:15.067 -0400,8843.516039166667,1.292129516601562,0.44293212890625,-0.2034912109375,1,1
2020-05-16 11:57:15.137 -0400,8843.585880166667,0.8849639892578125,0.1497650146484375,-0.1385955810546875,1,1
2020-05-16 11:57:15.206 -0400,8843.655722166668,0.4120635986328125,0.2445526123046875,-0.1724700927734375,1,1
2020-05-16 11:57:15.277 -0400,8843.725562166666,0.3784637451171875,0.3171844482421875,-0.11492919921875,1,1
2020-05-16 11:57:15.346 -0400,8843.795401166668,0.4686126708984375,0.337005615234375,-0.1385650634765625,1,1
2020-05-16 11:57:15.416 -0400,8843.865240166668,0.8064117431640625,0.3223724365234375,-0.120697021484375,1,1
2020-05-16 11:57:15.486 -0400,8843.935084166667,1.008636474609375,0.2337646484375,0.0009307861328125,1,1
2020-05-16 11:57:15.556 -0400,8844.004924166667,1.718460083007812,0.640472412109375,-0.2480621337890625,1,1
2020-05-16 11:57:15.626 -0400,8844.074761375001,1.632293701171875,0.5645751953125,-0.289154052734375,1,1
2020-05-16 11:57:15.695 -0400,8844.144605375001,1.350753784179688,0.606353759765625,-0.4827728271484375,1,1
2020-05-16 11:57:15.765 -0400,8844.214454375,0.840667724609375,0.1982574462890625,-0.385467529296875,1,1
2020-05-16 11:57:15.835 -0400,8844.284298375,0.7917022705078125,0.0945587158203125,-0.1156158447265625,1,1
2020-05-16 11:57:15.905 -0400,8844.354143375,0.80145263671875,0.2654571533203125,-0.1251678466796875,1,1
2020-05-16 11:57:15.975 -0400,8844.423988375,0.7521514892578125,0.380126953125,-0.112579345703125,1,1
2020-05-16 11:57:16.045 -0400,8844.493827375001,0.6947174072265625,0.332275390625,-0.1645050048828125,1,1
2020-05-16 11:57:16.115 -0400,8844.563669375,0.5205535888671875,0.001068115234375,-0.123321533203125,1,1
2020-05-16 11:57:16.184 -0400,8844.633514375,0.484893798828125,0.0204010009765625,-0.1448516845703125,1,1
2020-05-16 11:57:16.254 -0400,8844.703361375001,0.569000244140625,0.2230987548828125,-0.1318511962890625,1,1
2020-05-16 11:57:16.324 -0400,8844.773209375,0.817596435546875,0.4119110107421875,-0.3345794677734375,1,1
2020-05-16 11:57:16.394 -0400,8844.843056375001,1.07366943359375,0.329864501953125,-0.6476593017578125,1,1
2020-05-16 11:57:16.464 -0400,8844.912899375,1.251495361328125,0.2929840087890625,-0.50750732421875,1,1
2020-05-16 11:57:16.533 -0400,8844.982740375001,1.761154174804688,0.373260498046875,-0.488311767578125,1,1
2020-05-16 11:57:16.603 -0400,8845.052582166667,1.205947875976562,0.4614715576171875,-0.466461181640625,1,1
2020-05-16 11:57:16.673 -0400,8845.122424166668,0.9131011962890625,0.508026123046875,-0.2726898193359375,1,1
2020-05-16 11:57:16.743 -0400,8845.192267166667,0.9709930419921875,0.4608917236328125,-0.0811614990234375,1,1
2020-05-16 11:57:16.813 -0400,8845.262109166668,0.888916015625,0.296630859375,-0.0241241455078125,1,1
2020-05-16 11:57:16.883 -0400,8845.331950166667,0.9170379638671875,0.399200439453125,0.015289306640625,1,1
2020-05-16 11:57:16.953 -0400,8845.401792166667,1.035446166992188,0.4218292236328125,0.013336181640625,1,1
2020-05-16 11:57:17.022 -0400,8845.471634166668,0.970947265625,0.3463134765625,-0.0507965087890625,1,1
2020-05-16 11:57:17.092 -0400,8845.541473166668,1.0750732421875,0.311126708984375,-0.1366424560546875,1,1
2020-05-16 11:57:17.162 -0400,8845.611312166668,1.103897094726562,0.2646026611328125,-0.2332763671875,1,1
2020-05-16 11:57:17.232 -0400,8845.681157166668,1.052963256835938,0.1554107666015625,-0.23052978515625,1,1
2020-05-16 11:57:17.309 -0400,8845.751002166668,1.051910400390625,0.2841644287109375,-0.59454345703125,1,1
2020-05-16 11:57:17.372 -0400,8845.820850166667,0.9395599365234375,0.16558837890625,-0.4026641845703125,1,1
2020-05-16 11:57:17.441 -0400,8845.890693166668,0.9477996826171875,0.2468719482421875,-0.381866455078125,1,1
2020-05-16 11:57:17.511 -0400,8845.960537166668,0.7378692626953125,0.3927001953125,-0.3381195068359375,1,1
2020-05-16 11:57:17.581 -0400,8846.030378166668,0.6051177978515625,0.3952178955078125,-0.2252197265625,1,1
2020-05-16 11:57:17.651 -0400,8846.100216791667,0.6731109619140625,0.3952789306640625,-0.1820220947265625,1,1
2020-05-16 11:57:17.721 -0400,8846.170059791668,0.7718048095703125,0.379852294921875,-0.165313720703125,1,1
2020-05-16 11:57:17.791 -0400,8846.239904791668,0.882720947265625,0.4019622802734375,-0.2948150634765625,1,1
2020-05-16 11:57:17.860 -0400,8846.309748791668,0.9816741943359375,0.36151123046875,-0.395843505859375,1,1
2020-05-16 11:57:17.930 -0400,8846.379594791668,1.144302368164062,0.2103729248046875,-0.3648529052734375,1,1
2020-05-16 11:57:18.000 -0400,8846.449437791667,1.35296630859375,0.369293212890625,-0.5131683349609375,1,1
2020-05-16 11:57:18.070 -0400,8846.519282791667,1.074737548828125,0.4191131591796875,-0.4191741943359375,1,1
2020-05-16 11:57:18.140 -0400,8846.589123791668,0.9630126953125,0.349090576171875,-0.359130859375,1,1
2020-05-16 11:57:18.210 -0400,8846.658963791668,1.100006103515625,0.2787933349609375,-0.152252197265625,1,1
2020-05-16 11:57:18.280 -0400,8846.728800791667,0.8681488037109375,0.3094635009765625,-0.0533905029296875,1,1
2020-05-16 11:57:18.350 -0400,8846.798637791668,0.726715087890625,0.409423828125,-0.0306549072265625,1,1
2020-05-16 11:57:18.419 -0400,8846.868478791666,0.679901123046875,0.4320831298828125,0.0042266845703125,1,1
2020-05-16 11:57:18.489 -0400,8846.938317791668,0.7760009765625,0.4055633544921875,0.0211944580078125,1,1
2020-05-16 11:57:18.559 -0400,8847.008157791668,1.050033569335938,0.367218017578125,-0.097320556640625,1,1
2020-05-16 11:57:18.629 -0400,8847.077999375,1.265838623046875,0.249114990234375,-0.230010986328125,1,1
2020-05-16 11:57:18.699 -0400,8847.147835375001,1.262741088867188,0.149505615234375,-0.18487548828125,1,1
2020-05-16 11:57:18.768 -0400,8847.217676375001,1.230224609375,0.4755706787109375,-0.43499755859375,1,1
2020-05-16 11:57:18.838 -0400,8847.287513375,0.988311767578125,0.251556396484375,-0.4235076904296875,1,1
2020-05-16 11:57:18.908 -0400,8847.357355375001,0.926849365234375,0.0048980712890625,-0.2326202392578125,1,1
2020-05-16 11:57:18.978 -0400,8847.427197375,0.7829132080078125,0.19622802734375,-0.29388427734375,1,1
2020-05-16 11:57:19.048 -0400,8847.497040375001,0.639617919921875,0.2949066162109375,-0.2165069580078125,1,1
2020-05-16 11:57:19.118 -0400,8847.566886375,0.4904632568359375,0.3138275146484375,-0.1836395263671875,1,1
2020-05-16 11:57:19.187 -0400,8847.636729375001,0.5182342529296875,0.3501434326171875,-0.171234130859375,1,1
2020-05-16 11:57:19.257 -0400,8847.706569375001,0.7506103515625,0.398162841796875,-0.226165771484375,1,1
2020-05-16 11:57:19.327 -0400,8847.776411375,1.09429931640625,0.3491363525390625,-0.234039306640625,1,1
2020-05-16 11:57:19.397 -0400,8847.846249375001,1.238433837890625,0.4350738525390625,-0.3152618408203125,1,1
2020-05-16 11:57:19.467 -0400,8847.916087375001,1.317581176757812,0.670166015625,-0.6324615478515625,1,1
2020-05-16 11:57:19.537 -0400,8847.985929375001,1.228195190429688,0.28546142578125,-0.2291412353515625,1,1
2020-05-16 11:57:19.606 -0400,8848.055769666667,1.202774047851562,0.1272735595703125,-0.1983184814453125,1,1
2020-05-16 11:57:19.676 -0400,8848.125612666667,0.895965576171875,0.2905120849609375,-0.160247802734375,1,1
2020-05-16 11:57:19.746 -0400,8848.195450666668,0.5835113525390625,0.36181640625,-0.048553466796875,1,1
2020-05-16 11:57:19.816 -0400,8848.265288666667,0.5704193115234375,0.3616790771484375,0.019287109375,1,1
2020-05-16 11:57:19.886 -0400,8848.335131666667,0.83056640625,0.419921875,0.01220703125,1,1
2020-05-16 11:57:19.956 -0400,8848.404972666667,0.988983154296875,0.3992156982421875,-0.049407958984375,1,1
2020-05-16 11:57:20.026 -0400,8848.474810666667,1.110427856445312,0.3466644287109375,-0.1827392578125,1,1
2020-05-16 11:57:20.095 -0400,8848.544650666667,1.31610107421875,0.28131103515625,-0.2144927978515625,1,1
2020-05-16 11:57:20.165 -0400,8848.614490666667,1.158950805664062,0.263153076171875,-0.2316436767578125,1,1
2020-05-16 11:57:20.235 -0400,8848.684324666667,0.98236083984375,0.451385498046875,-0.56170654296875,1,1
2020-05-16 11:57:20.305 -0400,8848.754160666667,0.905975341796875,0.0953216552734375,-0.3962554931640625,1,1
2020-05-16 11:57:20.375 -0400,8848.823998666667,0.7256317138671875,0.0113067626953125,-0.4156494140625,1,1
2020-05-16 11:57:20.445 -0400,8848.893832666667,0.48828125,0.1867218017578125,-0.3787841796875,1,1
2020-05-16 11:57:20.515 -0400,8848.963667666667,0.552276611328125,0.2088165283203125,-0.341552734375,1,1
2020-05-16 11:57:20.584 -0400,8849.033504666668,0.848358154296875,0.2776031494140625,-0.2146759033203125,1,1
2020-05-16 11:57:20.654 -0400,8849.103343000001,0.8377838134765625,0.38482666015625,-0.2307281494140625,1,1
2020-05-16 11:57:20.724 -0400,8849.173185,0.8978118896484375,0.4328460693359375,-0.3248748779296875,1,1
2020-05-16 11:57:20.794 -0400,8849.243027,1.069305419921875,0.3599700927734375,-0.189697265625,1,1
2020-05-16 11:57:20.864 -0400,8849.312868000001,1.343658447265625,0.4425201416015625,-0.3925628662109375,1,1
2020-05-16 11:57:20.933 -0400,8849.382713000001,1.406448364257812,0.5015716552734375,-0.453125,1,1
2020-05-16 11:57:21.003 -0400,8849.452557000001,1.173828125,0.213714599609375,-0.2824249267578125,1,1
2020-05-16 11:57:21.073 -0400,8849.5224,0.77105712890625,0.2152252197265625,-0.1382598876953125,1,1
2020-05-16 11:57:21.143 -0400,8849.592243000001,0.4945831298828125,0.319244384765625,-0.162841796875,1,1
2020-05-16 11:57:21.213 -0400,8849.662088000001,0.457977294921875,0.3419189453125,-0.0819854736328125,1,1
2020-05-16 11:57:21.283 -0400,8849.73193,0.8889617919921875,0.381134033203125,-0.1199188232421875,1,1
2020-05-16 11:57:21.353 -0400,8849.801779000001,1.260345458984375,0.2846221923828125,-0.0961761474609375,1,1
2020-05-16 11:57:21.422 -0400,8849.871627,1.337173461914062,0.287811279296875,-0.163848876953125,1,1
2020-05-16 11:57:21.492 -0400,8849.941473000001,1.275833129882812,0.3835906982421875,-0.18597412109375,1,1
2020-05-16 11:57:21.562 -0400,8850.011313000001,1.004669189453125,0.360504150390625,-0.1986541748046875,1,1
2020-05-16 11:57:21.632 -0400,8850.081152041666,0.739105224609375,0.348876953125,-0.3893890380859375,1,1
2020-05-16 11:57:21.702 -0400,8850.150992041667,0.7471466064453125,0.2315216064453125,-0.317779541015625,1,1
2020-05-16 11:57:21.771 -0400,8850.220832041667,0.4559173583984375,0.2229156494140625,-0.345001220703125,1,1
2020-05-16 11:57:21.841 -0400,8850.290669041668,0.3072662353515625,0.287078857421875,-0.21978759765625,1,1
2020-05-16 11:57:21.911 -0400,8850.360509041668,0.6720733642578125,0.40869140625,-0.3021392822265625,1,1
2020-05-16 11:57:21.981 -0400,8850.430347041667,1.220611572265625,0.4423980712890625,-0.34552001953125,1,1
2020-05-16 11:57:22.051 -0400,8850.500190041666,1.39202880859375,0.3943939208984375,-0.4365692138671875,1,1
2020-05-16 11:57:22.121 -0400,8850.570035041666,1.336746215820312,0.4520721435546875,-0.504547119140625,1,1
2020-05-16 11:57:22.191 -0400,8850.639875041667,1.196487426757812,0.4404144287109375,-0.368408203125,1,1
2020-05-16 11:57:22.261 -0400,8850.709717041667,1.481170654296875,0.0711822509765625,-0.0475311279296875,1,1
2020-05-16 11:57:22.331 -0400,8850.779559041668,0.9964141845703125,0.2491912841796875,-0.108245849609375,1,1
2020-05-16 11:57:22.400 -0400,8850.849398041668,0.79840087890625,0.4724273681640625,-0.0606536865234375,1,1
2020-05-16 11:57:22.470 -0400,8850.919236041667,0.588775634765625,0.3757476806640625,0.044342041015625,1,1
2020-05-16 11:57:22.540 -0400,8850.989079041667,0.6293487548828125,0.332611083984375,0.0535125732421875,1,1
2020-05-16 11:57:22.610 -0400,8851.058918916668,0.732666015625,0.3509979248046875,-0.0228271484375,1,1
2020-05-16 11:57:22.679 -0400,8851.128760916667,0.73016357421875,0.28314208984375,-0.110107421875,1,1
2020-05-16 11:57:22.749 -0400,8851.198600916667,0.917236328125,0.3501739501953125,-0.292938232421875,1,1
2020-05-16 11:57:22.819 -0400,8851.268436916667,1.42718505859375,0.3116302490234375,-0.4434967041015625,1,1
2020-05-16 11:57:22.889 -0400,8851.338276916667,1.581039428710938,0.124603271484375,-0.26220703125,1,1
2020-05-16 11:57:22.959 -0400,8851.408116916667,1.370437622070312,0.529815673828125,-0.682891845703125,1,1
2020-05-16 11:57:23.029 -0400,8851.477955916667,0.969512939453125,0.2911529541015625,-0.43560791015625,1,1
2020-05-16 11:57:23.099 -0400,8851.547796916668,0.808319091796875,0.2706146240234375,-0.2304840087890625,1,1
2020-05-16 11:57:23.168 -0400,8851.617634916667,0.4947052001953125,0.433990478515625,-0.1665496826171875,1,1
2020-05-16 11:57:23.238 -0400,8851.687477916666,0.330322265625,0.4455413818359375,-0.1059722900390625,1,1
2020-05-16 11:57:23.309 -0400,8851.757315916668,0.3480377197265625,0.37713623046875,-0.04449462890625,1,1
2020-05-16 11:57:23.378 -0400,8851.827156916666,0.6771697998046875,0.3958282470703125,-0.0683135986328125,1,1
2020-05-16 11:57:23.448 -0400,8851.896995916668,0.992156982421875,0.4681854248046875,-0.27069091796875,1,1
2020-05-16 11:57:23.518 -0400,8851.966832916667,1.1627197265625,0.4154510498046875,-0.4452667236328125,1,1
2020-05-16 11:57:23.587 -0400,8852.036669916668,1.540542602539062,0.358367919921875,-0.4726104736328125,1,1
2020-05-16 11:57:23.657 -0400,8852.106508625,1.129653930664062,0.5262298583984375,-0.6651611328125,1,1
2020-05-16 11:57:23.727 -0400,8852.176348625,1.0623779296875,0.23529052734375,-0.3438262939453125,1,1
2020-05-16 11:57:23.797 -0400,8852.246188625,0.8766326904296875,0.1745452880859375,-0.2170562744140625,1,1
2020-05-16 11:57:23.867 -0400,8852.316028625,0.52850341796875,0.38555908203125,-0.2204437255859375,1,1
2020-05-16 11:57:23.937 -0400,8852.385872625,0.456512451171875,0.4545745849609375,-0.1083221435546875,1,1
2020-05-16 11:57:24.006 -0400,8852.455712625,0.9219970703125,0.46527099609375,-0.060272216796875,1,1
2020-05-16 11:57:24.076 -0400,8852.525551625,1.295608520507812,0.3263702392578125,0.0077667236328125,1,1
2020-05-16 11:57:24.147 -0400,8852.595390625,1.21923828125,0.343994140625,-0.1034698486328125,1,1
2020-05-16 11:57:24.216 -0400,8852.665230625,1.374313354492188,0.5317230224609375,-0.1679840087890625,1,1
2020-05-16 11:57:24.286 -0400,8852.735072625001,0.973724365234375,0.4881744384765625,-0.442169189453125,1,1
2020-05-16 11:57:24.356 -0400,8852.804915625,0.812255859375,0.1399383544921875,-0.4050750732421875,1,1
2020-05-16 11:57:24.425 -0400,8852.874758625001,0.6782073974609375,-0.0486907958984375,-0.2905120849609375,1,1
2020-05-16 11:57:24.496 -0400,8852.944599625,0.4528045654296875,0.29632568359375,-0.4083251953125,1,1
2020-05-16 11:57:24.566 -0400,8853.014440625,0.2756500244140625,0.3599700927734375,-0.29119873046875,1,1
2020-05-16 11:57:24.635 -0400,8853.084280625,0.4768829345703125,0.401885986328125,-0.2165985107421875,1,1
2020-05-16 11:57:24.705 -0400,8853.154120625,1.123703002929688,0.52142333984375,-0.25457763671875,1,1
2020-05-16 11:57:24.775 -0400,8853.223960625,1.116424560546875,0.4494476318359375,-0.35748291015625,1,1
2020-05-16 11:57:24.845 -0400,8853.293798625,1.44195556640625,0.3834075927734375,-0.357574462890625,1,1
2020-05-16 11:57:24.914 -0400,8853.363639625,1.4024658203125,0.4329833984375,-0.2847900390625,1,1
2020-05-16 11:57:24.984 -0400,8853.433483625,0.99566650390625,0.444732666015625,-0.293304443359375,1,1
2020-05-16 11:57:25.054 -0400,8853.503327625,0.94549560546875,0.480010986328125,-0.2303314208984375,1,1
2020-05-16 11:57:25.124 -0400,8853.573165625001,0.716522216796875,0.2717437744140625,-0.139739990234375,1,1
2020-05-16 11:57:25.194 -0400,8853.643007625,0.487396240234375,0.2937469482421875,-0.0976715087890625,1,1
2020-05-16 11:57:25.263 -0400,8853.712848625,0.6060638427734375,0.3162078857421875,-0.0849151611328125,1,1
2020-05-16 11:57:25.334 -0400,8853.782688625,1.163070678710938,0.35546875,-0.123504638671875,1,1
2020-05-16 11:57:25.403 -0400,8853.852526625,1.200775146484375,0.37774658203125,-0.1913299560546875,1,1
2020-05-16 11:57:25.473 -0400,8853.922360625,1.419967651367188,0.3360595703125,-0.0802154541015625,1,1
2020-05-16 11:57:25.543 -0400,8853.992201625,0.9383697509765625,0.489288330078125,-0.44403076171875,1,1
2020-05-16 11:57:25.613 -0400,8854.062040875,0.86810302734375,0.2430572509765625,-0.287353515625,1,1
2020-05-16 11:57:25.683 -0400,8854.131880875,0.669219970703125,0.2766876220703125,-0.3045806884765625,1,1
2020-05-16 11:57:25.752 -0400,8854.201719875,0.4073028564453125,0.3657379150390625,-0.2168731689453125,1,1
2020-05-16 11:57:25.822 -0400,8854.271559875,0.431365966796875,0.4466552734375,-0.177734375,1,1
2020-05-16 11:57:25.892 -0400,8854.341396875001,0.6290130615234375,0.5091552734375,-0.2244873046875,1,1
2020-05-16 11:57:25.962 -0400,8854.411236875001,0.9910430908203125,0.6417083740234375,-0.38067626953125,1,1
2020-05-16 11:57:26.032 -0400,8854.481076875001,1.396530151367188,0.46875,-0.4882354736328125,1,1
2020-05-16 11:57:26.102 -0400,8854.550909875001,1.5362548828125,0.215118408203125,-0.3762664794921875,1,1
2020-05-16 11:57:26.171 -0400,8854.620743875001,1.019012451171875,0.4624481201171875,-0.3757781982421875,1,1
2020-05-16 11:57:26.242 -0400,8854.690578875001,0.8216094970703125,0.468780517578125,-0.2569122314453125,1,1
2020-05-16 11:57:26.311 -0400,8854.760418875001,0.8565521240234375,0.4377899169921875,-0.1548309326171875,1,1
2020-05-16 11:57:26.381 -0400,8854.830254875,0.844818115234375,0.3618621826171875,-0.0581512451171875,1,1
2020-05-16 11:57:26.451 -0400,8854.900089875,0.7330169677734375,0.3908233642578125,-0.0597076416015625,1,1
2020-05-16 11:57:26.521 -0400,8854.969929875,0.7890777587890625,0.4269256591796875,-0.022796630859375,1,1
2020-05-16 11:57:26.591 -0400,8855.039766875001,0.9373016357421875,0.34405517578125,0.02691650390625,1,1
2020-05-16 11:57:26.660 -0400,8855.109608791667,0.960662841796875,0.3786773681640625,-0.025390625,1,1
2020-05-16 11:57:26.730 -0400,8855.179451791668,1.01531982421875,0.43426513671875,-0.12835693359375,1,1
2020-05-16 11:57:26.800 -0400,8855.249296791668,1.251373291015625,0.3899688720703125,-0.311370849609375,1,1
2020-05-16 11:57:26.870 -0400,8855.319142791666,1.031784057617188,0.327301025390625,-0.5674896240234375,1,1
2020-05-16 11:57:26.940 -0400,8855.388989791667,0.7632293701171875,0.2542266845703125,-0.61248779296875,1,1
2020-05-16 11:57:27.010 -0400,8855.458835791667,0.8463592529296875,0.1256866455078125,-0.4176177978515625,1,1
2020-05-16 11:57:27.079 -0400,8855.528683791666,0.519927978515625,0.617767333984375,-0.448516845703125,1,1
2020-05-16 11:57:27.149 -0400,8855.598526791668,0.5281829833984375,0.4880828857421875,-0.2939300537109375,1,1
2020-05-16 11:57:27.219 -0400,8855.668365791667,0.804473876953125,0.4471893310546875,-0.23028564453125,1,1
2020-05-16 11:57:27.289 -0400,8855.738208791667,0.87567138671875,0.4228973388671875,-0.2105865478515625,1,1
2020-05-16 11:57:27.359 -0400,8855.808055791667,0.9104461669921875,0.3887481689453125,-0.2703094482421875,1,1
2020-05-16 11:57:27.429 -0400,8855.877900791667,1.123382568359375,0.3064727783203125,-0.231048583984375,1,1
2020-05-16 11:57:27.498 -0400,8855.947740791667,1.4974365234375,0.4785614013671875,-0.3875274658203125,1,1
2020-05-16 11:57:27.568 -0400,8856.017582791666,0.9393310546875,0.366668701171875,-0.32989501953125,1,1
2020-05-16 11:57:27.638 -0400,8856.087424041667,1.006591796875,0.3512115478515625,-0.31817626953125,1,1
2020-05-16 11:57:27.708 -0400,8856.157263041667,0.8190155029296875,0.244659423828125,-0.20953369140625,1,1
2020-05-16 11:57:27.778 -0400,8856.227105041668,0.597259521484375,0.2988739013671875,-0.163330078125,1,1
2020-05-16 11:57:27.848 -0400,8856.296945041668,0.6150360107421875,0.3576202392578125,-0.160003662109375,1,1
2020-05-16 11:57:27.918 -0400,8856.366786041668,0.7563934326171875,0.3305206298828125,-0.087677001953125,1,1
2020-05-16 11:57:27.987 -0400,8856.436633041667,0.8762359619140625,0.368408203125,-0.088653564453125,1,1
2020-05-16 11:57:28.057 -0400,8856.506479041667,1.134368896484375,0.508697509765625,-0.2081451416015625,1,1
2020-05-16 11:57:28.128 -0400,8856.576326041668,1.293624877929688,0.5037841796875,-0.50628662109375,1,1
2020-05-16 11:57:28.197 -0400,8856.646167041667,1.278915405273438,0.1508331298828125,-0.6148529052734375,1,1
2020-05-16 11:57:28.267 -0400,8856.716013041667,0.8424072265625,0.350677490234375,-0.5583953857421875,1,1
2020-05-16 11:57:28.337 -0400,8856.785855041668,0.8066558837890625,0.6526336669921875,-0.5829315185546875,1,1
2020-05-16 11:57:28.406 -0400,8856.855693041667,0.415496826171875,0.9472503662109375,-0.3944091796875,1,1
2020-05-16 11:57:28.476 -0400,8856.925529041668,0.328399658203125,0.900604248046875,-0.3211212158203125,1,1
2020-05-16 11:57:28.546 -0400,8856.995362041667,0.1790618896484375,0.806671142578125,-0.392547607421875,1,1
2020-05-16 11:57:28.616 -0400,8857.065200375,-0.0155181884765625,0.61651611328125,-0.3862152099609375,1,1
2020-05-16 11:57:28.686 -0400,8857.135039375,0.3144073486328125,0.5365142822265625,-0.4738616943359375,1,1
2020-05-16 11:57:28.756 -0400,8857.204877375001,0.58343505859375,0.4432373046875,-0.5034637451171875,1,1
2020-05-16 11:57:28.826 -0400,8857.274716375001,0.539794921875,0.7074432373046875,-0.6837921142578125,1,1
2020-05-16 11:57:28.895 -0400,8857.344554375,0.6286163330078125,0.419891357421875,-0.4085845947265625,1,1
2020-05-16 11:57:28.965 -0400,8857.414393375,0.6763153076171875,0.643096923828125,-0.3728790283203125,1,1
2020-05-16 11:57:29.035 -0400,8857.484233375,0.5173492431640625,1.006057739257812,-0.328033447265625,1,1
2020-05-16 11:57:29.105 -0400,8857.554075375001,0.565643310546875,0.42083740234375,-0.4395904541015625,1,1
2020-05-16 11:57:29.175 -0400,8857.623916375,0.337066650390625,0.7268218994140625,-0.71575927734375,1,1
2020-05-16 11:57:29.245 -0400,8857.693755375001,0.27178955078125,0.721588134765625,-0.6004486083984375,1,1
2020-05-16 11:57:29.315 -0400,8857.763596375,0.59283447265625,0.7646636962890625,-0.600677490234375,1,1
2020-05-16 11:57:29.385 -0400,8857.833440375001,0.0004730224609375,0.84869384765625,-0.9497528076171875,1,1
2020-05-16 11:57:29.454 -0400,8857.903281375,0.0763092041015625,1.276824951171875,-1.106491088867188,1,1
2020-05-16 11:57:29.524 -0400,8857.973123375001,0.3379364013671875,1.122848510742188,-1.051376342773438,1,1
2020-05-16 11:57:29.594 -0400,8858.042967375,0.51239013671875,0.5163421630859375,-0.1370697021484375,1,1
2020-05-16 11:57:29.664 -0400,8858.112810500001,1.554794311523438,0.1486968994140625,0.0255279541015625,1,1
2020-05-16 11:57:29.733 -0400,8858.1826535,1.10345458984375,-0.0113525390625,-0.0782928466796875,1,1
2020-05-16 11:57:29.803 -0400,8858.252501500001,0.863037109375,0.226470947265625,-0.205535888671875,1,1
2020-05-16 11:57:29.873 -0400,8858.322347500001,0.8497772216796875,0.204925537109375,-0.2235565185546875,1,1
2020-05-16 11:57:29.943 -0400,8858.3921895,0.8605194091796875,0.2093963623046875,-0.30535888671875,1,1
2020-05-16 11:57:30.013 -0400,8858.4620295,0.750701904296875,0.1927032470703125,-0.3048553466796875,1,1
2020-05-16 11:57:30.083 -0400,8858.531866500001,0.4236297607421875,0.339935302734375,-0.3377685546875,1,1
2020-05-16 11:57:30.152 -0400,8858.601704500001,0.2823028564453125,0.301483154296875,-0.273162841796875,1,1
2020-05-16 11:57:30.222 -0400,8858.671544500001,0.2221832275390625,0.3242034912109375,-0.10760498046875,1,1
2020-05-16 11:57:30.292 -0400,8858.7413825,0.724700927734375,0.4930419921875,-0.132965087890625,1,1
2020-05-16 11:57:30.362 -0400,8858.811219500001,0.891326904296875,0.9318695068359375,-0.39520263671875,1,1
2020-05-16 11:57:30.432 -0400,8858.881062500001,1.907379150390625,2.239501953125,-0.559478759765625,1,1
2020-05-16 11:57:30.502 -0400,8858.9509055,1.714309692382812,-0.1471405029296875,-0.10699462890625,1,1
2020-05-16 11:57:30.571 -0400,8859.0207445,1.568084716796875,0.305023193359375,-0.2271881103515625,1,1
2020-05-16 11:57:30.641 -0400,8859.090582750001,1.421432495117188,0.53839111328125,-0.2864990234375,1,1
2020-05-16 11:57:30.711 -0400,8859.16041875,1.093536376953125,0.4562835693359375,-0.1242218017578125,1,1
2020-05-16 11:57:30.781 -0400,8859.23025875,0.87164306640625,0.13385009765625,0.0030059814453125,1,1
2020-05-16 11:57:30.851 -0400,8859.300096750001,0.273956298828125,-0.3363800048828125,-0.0086822509765625,1,1
2020-05-16 11:57:30.921 -0400,8859.369935750001,0.5253448486328125,0.1843719482421875,-0.186126708984375,1,1
2020-05-16 11:57:30.991 -0400,8859.43977375,0.7609710693359375,0.197662353515625,0.0364837646484375,1,1
2020-05-16 11:57:31.060 -0400,8859.509610750001,2.392364501953125,0.7858123779296875,-0.2419281005859375,1,1
2020-05-16 11:57:31.130 -0400,8859.579449750001,0.72442626953125,1.239822387695312,-0.1967620849609375,1,1
2020-05-16 11:57:31.200 -0400,8859.649293750001,1.107955932617188,0.0239715576171875,-0.0933380126953125,1,1
2020-05-16 11:57:31.270 -0400,8859.719135750001,1.149383544921875,0.8621978759765625,-0.5428619384765625,1,1
2020-05-16 11:57:31.340 -0400,8859.78897575,0.7232818603515625,0.813812255859375,-0.4784698486328125,1,1
2020-05-16 11:57:31.410 -0400,8859.858817750001,0.988189697265625,1.095840454101562,-0.8292388916015625,1,1
2020-05-16 11:57:31.480 -0400,8859.928654750001,1.466567993164062,0.6763458251953125,-0.674224853515625,1,1
2020-05-16 11:57:31.549 -0400,8859.99849475,1.656448364257812,0.23565673828125,-0.2782135009765625,1,1
2020-05-16 11:57:31.619 -0400,8860.068335791668,2.003173828125,0.259002685546875,-0.2528533935546875,1,1
2020-05-16 11:57:31.689 -0400,8860.138178791667,1.440597534179688,0.41473388671875,-0.0590362548828125,1,1
2020-05-16 11:57:31.759 -0400,8860.208019791668,0.9947662353515625,0.4427490234375,0.099395751953125,1,1
2020-05-16 11:57:31.829 -0400,8860.277859791668,0.9556121826171875,0.432647705078125,0.17034912109375,1,1
2020-05-16 11:57:31.898 -0400,8860.347694791668,0.87030029296875,0.15997314453125,0.2200469970703125,1,1
2020-05-16 11:57:31.968 -0400,8860.417533791668,0.6271514892578125,0.20745849609375,0.129608154296875,1,1
2020-05-16 11:57:32.038 -0400,8860.487372791667,0.769378662109375,0.3387603759765625,-0.298004150390625,1,1
2020-05-16 11:57:32.108 -0400,8860.557212791668,0.8076934814453125,0.3091888427734375,-0.6343841552734375,1,1
2020-05-16 11:57:32.178 -0400,8860.627053791668,1.622268676757812,-0.2251129150390625,-0.363067626953125,1,1
2020-05-16 11:57:32.248 -0400,8860.696894791667,1.830459594726562,0.6451873779296875,-0.498687744140625,1,1
2020-05-16 11:57:32.318 -0400,8860.766732791668,0.911529541015625,0.5257415771484375,-0.5442352294921875,1,1
2020-05-16 11:57:32.387 -0400,8860.836569791667,0.7189178466796875,0.37921142578125,-0.314910888671875,1,1
2020-05-16 11:57:32.457 -0400,8860.906410791667,0.7430877685546875,0.4791412353515625,-0.29156494140625,1,1
2020-05-16 11:57:32.527 -0400,8860.976254791667,0.90283203125,0.5900421142578125,-0.368988037109375,1,1
2020-05-16 11:57:32.597 -0400,8861.046093791667,1.457290649414062,0.6099395751953125,-0.465545654296875,1,1
2020-05-16 11:57:32.667 -0400,8861.115933791667,1.533889770507812,0.427978515625,-0.3256683349609375,1,1
2020-05-16 11:57:32.737 -0400,8861.185771791666,1.120956420898438,0.337005615234375,0.0725250244140625,1,1
2020-05-16 11:57:32.806 -0400,8861.255611791667,1.008865356445312,0.437286376953125,0.14105224609375,1,1
2020-05-16 11:57:32.876 -0400,8861.325451791667,0.7359466552734375,0.3177032470703125,0.2880096435546875,1,1
2020-05-16 11:57:32.946 -0400,8861.395290791666,0.4361419677734375,0.4095916748046875,0.13128662109375,1,1
2020-05-16 11:57:33.016 -0400,8861.465128791668,0.4851531982421875,0.55084228515625,0.013763427734375,1,1
2020-05-16 11:57:33.086 -0400,8861.534962791668,1.00152587890625,0.4970550537109375,-0.1897735595703125,1,1
2020-05-16 11:57:33.156 -0400,8861.604795791667,1.254776000976562,0.5185089111328125,0.2124481201171875,1,1
2020-05-16 11:57:33.225 -0400,8861.674631791668,1.103790283203125,0.391845703125,-0.09735107421875,1,1
2020-05-16 11:57:33.298 -0400,8861.744466791668,1.411956787109375,0.7919769287109375,-0.637542724609375,1,1
2020-05-16 11:57:33.365 -0400,8861.814305791668,0.717193603515625,0.0261383056640625,-0.1951446533203125,1,1
2020-05-16 11:57:33.435 -0400,8861.884143791667,0.8978271484375,0.23809814453125,-0.1817626953125,1,1
2020-05-16 11:57:33.505 -0400,8861.953984791668,0.61810302734375,0.4151763916015625,-0.2670135498046875,1,1
2020-05-16 11:57:33.575 -0400,8862.023827791667,0.5088348388671875,0.1646881103515625,-0.1173095703125,1,1
2020-05-16 11:57:33.644 -0400,8862.093666750001,0.5730133056640625,0.23748779296875,0.0638580322265625,1,1
2020-05-16 11:57:33.714 -0400,8862.163506750001,0.8138580322265625,0.2063140869140625,-0.014923095703125,1,1
2020-05-16 11:57:33.784 -0400,8862.23334975,0.5425262451171875,0.3445892333984375,-0.217193603515625,1,1
2020-05-16 11:57:33.854 -0400,8862.303185750001,1.591766357421875,3.506118774414062,-0.7870025634765625,1,1
2020-05-16 11:57:33.924 -0400,8862.37301775,1.021560668945312,0.5859375,-0.545196533203125,1,1
2020-05-16 11:57:33.994 -0400,8862.44285275,0.8961639404296875,0.5703125,-0.074676513671875,1,1
2020-05-16 11:57:34.063 -0400,8862.512688750001,1.067733764648438,0.4351959228515625,-0.060577392578125,1,1
2020-05-16 11:57:34.133 -0400,8862.582522750001,0.7927703857421875,0.189361572265625,-0.10906982421875,1,1
2020-05-16 11:57:34.203 -0400,8862.652357750001,0.6090850830078125,0.2970123291015625,-0.120208740234375,1,1
2020-05-16 11:57:34.273 -0400,8862.722190750001,0.5692901611328125,0.39398193359375,-0.003326416015625,1,1
2020-05-16 11:57:34.343 -0400,8862.79202875,0.6011199951171875,0.3183135986328125,0.0257720947265625,1,1
2020-05-16 11:57:34.412 -0400,8862.861864750001,1.06207275390625,0.3667144775390625,-0.01397705078125,1,1
2020-05-16 11:57:34.482 -0400,8862.93170275,1.668212890625,0.56591796875,-0.1176910400390625,1,1
2020-05-16 11:57:34.552 -0400,8863.001539750001,1.710525512695312,0.795135498046875,-0.5673675537109375,1,1
2020-05-16 11:57:34.622 -0400,8863.071379750001,0.824554443359375,0.3867340087890625,-0.299224853515625,1,1
2020-05-16 11:57:34.692 -0400,8863.14122175,0.8678741455078125,0.0020751953125,-0.19146728515625,1,1
2020-05-16 11:57:34.762 -0400,8863.211063750001,0.5009002685546875,0.2806243896484375,-0.301666259765625,1,1
2020-05-16 11:57:34.832 -0400,8863.280904750001,0.394012451171875,0.2968902587890625,-0.3782501220703125,1,1
2020-05-16 11:57:34.901 -0400,8863.35074675,0.4696807861328125,0.0368194580078125,-0.261810302734375,1,1
2020-05-16 11:57:34.972 -0400,8863.420588750001,1.081588745117188,0.145050048828125,-0.2140960693359375,1,1
2020-05-16 11:57:35.041 -0400,8863.49043075,1.333297729492188,0.435028076171875,-0.2255401611328125,1,1
2020-05-16 11:57:35.111 -0400,8863.560277750001,1.273300170898438,0.325103759765625,-0.1107940673828125,1,1
2020-05-16 11:57:35.181 -0400,8863.63012075,1.52734375,0.482330322265625,-0.212005615234375,1,1
2020-05-16 11:57:35.251 -0400,8863.699962750001,0.8146209716796875,0.4373321533203125,-0.1524810791015625,1,1
2020-05-16 11:57:35.321 -0400,8863.769807750001,0.733612060546875,0.4344940185546875,-0.160369873046875,1,1
2020-05-16 11:57:35.390 -0400,8863.839648750001,0.6237335205078125,0.3332977294921875,-0.098876953125,1,1
2020-05-16 11:57:35.460 -0400,8863.90948975,0.5343017578125,0.352569580078125,-0.126495361328125,1,1
2020-05-16 11:57:35.530 -0400,8863.97933475,0.59173583984375,0.375640869140625,-0.1378936767578125,1,1
2020-05-16 11:57:35.600 -0400,8864.049177750001,0.759246826171875,0.393890380859375,-0.1494293212890625,1,1
2020-05-16 11:57:35.670 -0400,8864.119018625001,0.98980712890625,0.3708343505859375,-0.159698486328125,1,1
2020-05-16 11:57:35.740 -0400,8864.188863625001,1.367355346679688,0.32635498046875,-0.2391204833984375,1,1
2020-05-16 11:57:35.809 -0400,8864.258706625,1.597503662109375,0.45538330078125,-0.2761077880859375,1,1
2020-05-16 11:57:35.879 -0400,8864.328546625,1.112289428710938,0.5264739990234375,-0.5124664306640625,1,1
2020-05-16 11:57:35.949 -0400,8864.398386625,0.74615478515625,0.176849365234375,-0.1840362548828125,1,1
2020-05-16 11:57:36.019 -0400,8864.468227625001,0.6570587158203125,0.1930999755859375,-0.090423583984375,1,1
2020-05-16 11:57:36.089 -0400,8864.538068625001,0.4852294921875,0.3824920654296875,-0.1728057861328125,1,1
2020-05-16 11:57:36.159 -0400,8864.607909625001,0.506561279296875,0.3515167236328125,-0.1092071533203125,1,1
2020-05-16 11:57:36.239 -0400,8864.677748625001,0.7493743896484375,0.32342529296875,-0.101654052734375,1,1
2020-05-16 11:57:36.298 -0400,8864.747587625001,0.85272216796875,0.388214111328125,-0.1965484619140625,1,1
2020-05-16 11:57:36.368 -0400,8864.817428625001,1.012252807617188,0.397003173828125,-0.3235626220703125,1,1
2020-05-16 11:57:36.438 -0400,8864.887268625,1.454666137695312,0.43255615234375,-0.2763214111328125,1,1
2020-05-16 11:57:36.508 -0400,8864.957109625,1.539443969726562,0.4845428466796875,-0.42071533203125,1,1
2020-05-16 11:57:36.578 -0400,8865.026953625,0.9920196533203125,0.539306640625,-0.3917083740234375,1,1
2020-05-16 11:57:36.648 -0400,8865.096794000001,0.96759033203125,0.4026641845703125,-0.19287109375,1,1
2020-05-16 11:57:36.717 -0400,8865.166637,0.8403472900390625,0.2859039306640625,-0.1324310302734375,1,1
2020-05-16 11:57:36.787 -0400,8865.236480000001,0.4547882080078125,0.4669647216796875,-0.1697845458984375,1,1
2020-05-16 11:57:36.857 -0400,8865.306317,0.5586090087890625,0.5404510498046875,-0.0521087646484375,1,1
2020-05-16 11:57:36.927 -0400,8865.376158000001,1.213134765625,0.42578125,-0.042999267578125,1,1
2020-05-16 11:57:36.997 -0400,8865.446003000001,1.37939453125,0.289703369140625,-0.1468505859375,1,1
2020-05-16 11:57:37.067 -0400,8865.515847000001,1.332962036132812,0.2582550048828125,-0.040252685546875,1,1
2020-05-16 11:57:37.136 -0400,8865.585681,0.8572235107421875,0.2436676025390625,-0.2417449951171875,1,1
2020-05-16 11:57:37.206 -0400,8865.655521000001,1.177627563476562,0.1163177490234375,-0.114501953125,1,1
2020-05-16 11:57:37.276 -0400,8865.725361000001,0.9579620361328125,0.1753997802734375,-0.149688720703125,1,1
2020-05-16 11:57:37.346 -0400,8865.795206000001,0.678466796875,0.327789306640625,-0.122772216796875,1,1
2020-05-16 11:57:37.416 -0400,8865.865048,0.4076690673828125,0.4693756103515625,-0.118804931640625,1,1
2020-05-16 11:57:37.486 -0400,8865.934893,0.5854949951171875,0.587982177734375,-0.1723175048828125,1,1
2020-05-16 11:57:37.555 -0400,8866.004737000001,1.016952514648438,0.595611572265625,-0.330078125,1,1
2020-05-16 11:57:37.625 -0400,8866.0745785,1.573196411132812,0.3773345947265625,-0.31488037109375,1,1
2020-05-16 11:57:37.695 -0400,8866.1444175,1.553787231445312,0.5283355712890625,-0.3972930908203125,1,1
2020-05-16 11:57:37.765 -0400,8866.2142585,0.98797607421875,0.6154937744140625,-0.363800048828125,1,1
2020-05-16 11:57:37.835 -0400,8866.284099500001,1.23211669921875,0.385772705078125,-0.184967041015625,1,1
2020-05-16 11:57:37.905 -0400,8866.353941500001,0.886016845703125,0.2361297607421875,-0.096160888671875,1,1
2020-05-16 11:57:37.975 -0400,8866.4237825,0.592376708984375,0.2935943603515625,-0.0550689697265625,1,1
2020-05-16 11:57:38.044 -0400,8866.4936215,0.8123016357421875,0.437530517578125,-0.084014892578125,1,1
2020-05-16 11:57:38.114 -0400,8866.563460500001,1.26568603515625,0.2904815673828125,-0.0070953369140625,1,1
2020-05-16 11:57:38.184 -0400,8866.6333005,1.271240234375,0.2468414306640625,-0.0830230712890625,1,1
2020-05-16 11:57:38.257 -0400,8866.7031415,1.132003784179688,0.4559478759765625,-0.2286224365234375,1,1
2020-05-16 11:57:38.324 -0400,8866.772982500001,0.9777984619140625,0.5256500244140625,-0.537109375,1,1
2020-05-16 11:57:38.394 -0400,8866.842822500001,0.8395538330078125,0.0740509033203125,-0.227081298828125,1,1
2020-05-16 11:57:38.463 -0400,8866.9126615,0.6568450927734375,0.0355377197265625,-0.214202880859375,1,1
2020-05-16 11:57:38.533 -0400,8866.982501500001,0.4239501953125,0.3189544677734375,-0.1934051513671875,1,1
