loggingTime(txt),accelerometerTimestamp_sinceReboot(s),accelerometerAccelerationX(G),accelerometerAccelerationY(G),accelerometerAccelerationZ(G),batteryState,batteryLevel
2020-05-16 12:52:32.063 -0400,11661.14383879167,0.0625762939453125,-0.0650177001953125,-0.6960296630859375,1,0.95
2020-05-16 12:52:32.183 -0400,11661.26357979167,0.0819244384765625,-0.09600830078125,-0.567352294921875,1,0.95
2020-05-16 12:52:32.302 -0400,11661.38332079167,0.3556976318359375,0.052642822265625,-0.83624267578125,1,0.95
2020-05-16 12:52:32.422 -0400,11661.50306579167,0.8411865234375,0.4786834716796875,-0.9209747314453125,1,0.95
2020-05-16 12:52:32.542 -0400,11661.62281179167,1.239913940429688,0.6800537109375,-0.6747589111328125,1,0.95
2020-05-16 12:52:32.662 -0400,11661.74255279167,0.7930755615234375,0.6116790771484375,-0.181549072265625,1,0.95
2020-05-16 12:52:32.785 -0400,11661.86229579167,0.73907470703125,0.35540771484375,-0.20928955078125,1,0.95
2020-05-16 12:52:32.901 -0400,11661.98203879167,1.021743774414062,0.359832763671875,-0.0843963623046875,1,0.95
2020-05-16 12:52:33.021 -0400,11662.101775375,1.232803344726562,0.6683349609375,-0.1671142578125,1,0.95
2020-05-16 12:52:33.140 -0400,11662.221519375,1.064910888671875,0.4293365478515625,-0.2966766357421875,1,0.95
2020-05-16 12:52:33.260 -0400,11662.341266375,0.6572265625,0.373992919921875,-0.1806793212890625,1,0.95
2020-05-16 12:52:33.380 -0400,11662.461015375,0.614013671875,0.54559326171875,-0.1547088623046875,1,0.95
2020-05-16 12:52:33.500 -0400,11662.580762375,0.885986328125,0.359222412109375,-0.14776611328125,1,0.95
2020-05-16 12:52:33.620 -0400,11662.700512375,1.192031860351562,0.33148193359375,-0.0722198486328125,1,0.95
2020-05-16 12:52:33.740 -0400,11662.820260375,0.95098876953125,0.568603515625,-0.1453094482421875,1,0.95
2020-05-16 12:52:33.859 -0400,11662.940009375,1.329452514648438,0.533843994140625,-0.0748443603515625,1,0.95
2020-05-16 12:52:33.979 -0400,11663.05975654167,1.063461303710938,0.309600830078125,-0.204559326171875,1,0.95
2020-05-16 12:52:34.099 -0400,11663.17949854167,0.72064208984375,0.4157867431640625,-0.0674591064453125,1,0.95
2020-05-16 12:52:34.218 -0400,11663.29925154167,0.7482147216796875,0.2807769775390625,0.0282135009765625,1,0.95
2020-05-16 12:52:34.338 -0400,11663.41900254167,0.804168701171875,0.262725830078125,-0.039306640625,1,0.95
2020-05-16 12:52:34.458 -0400,11663.53874754167,1.291046142578125,0.3175201416015625,-0.1989898681640625,1,0.95
2020-05-16 12:52:34.578 -0400,11663.65849954167,1.205093383789062,0.2171783447265625,-0.5228729248046875,1,0.95
2020-05-16 12:52:34.697 -0400,11663.77825154167,0.5203094482421875,0.312347412109375,-0.3972015380859375,1,0.95
2020-05-16 12:52:34.818 -0400,11663.89800654167,0.6756744384765625,0.5171661376953125,-0.3854522705078125,1,0.95
2020-05-16 12:52:34.937 -0400,11664.01776354167,1.191421508789062,0.33135986328125,-0.3002471923828125,1,0.95
2020-05-16 12:52:35.057 -0400,11664.137514875,0.9798431396484375,0.4526519775390625,-0.373443603515625,1,0.95
2020-05-16 12:52:35.176 -0400,11664.257269875,0.8411407470703125,0.3002166748046875,-0.22076416015625,1,0.95
2020-05-16 12:52:35.296 -0400,11664.377028875,0.5128631591796875,0.3349761962890625,-0.1426239013671875,1,0.95
2020-05-16 12:52:35.416 -0400,11664.496787875,0.940643310546875,0.34002685546875,-0.0830535888671875,1,0.95
2020-05-16 12:52:35.536 -0400,11664.616546875,1.3223876953125,0.4017791748046875,-0.1451873779296875,1,0.95
2020-05-16 12:52:35.655 -0400,11664.736294875,1.076644897460938,0.4891815185546875,-0.353851318359375,1,0.95
2020-05-16 12:52:35.775 -0400,11664.856041875,0.6348724365234375,-0.169891357421875,-0.2574005126953125,1,0.95
2020-05-16 12:52:35.895 -0400,11664.975788875,0.457275390625,0.33282470703125,-0.408233642578125,1,0.95
2020-05-16 12:52:36.015 -0400,11665.095541375,0.9668731689453125,0.36328125,-0.2559051513671875,1,0.95
2020-05-16 12:52:36.134 -0400,11665.215288375,1.498382568359375,0.414276123046875,-0.215087890625,1,0.95
2020-05-16 12:52:36.255 -0400,11665.335039375,1.064620971679688,0.4244537353515625,-0.19915771484375,1,0.95
2020-05-16 12:52:36.377 -0400,11665.454787375,0.794036865234375,0.276885986328125,-0.1002655029296875,1,0.95
2020-05-16 12:52:36.494 -0400,11665.574528375,0.541473388671875,0.3376007080078125,-0.0539398193359375,1,0.95
2020-05-16 12:52:36.614 -0400,11665.694263375,0.860321044921875,0.2349090576171875,-0.037994384765625,1,0.95
2020-05-16 12:52:36.733 -0400,11665.814007375,1.393722534179688,0.484100341796875,-0.2578582763671875,1,0.95
2020-05-16 12:52:36.853 -0400,11665.933758375,0.9288330078125,0.38299560546875,-0.4200286865234375,1,0.95
2020-05-16 12:52:36.973 -0400,11666.053508375,0.6930999755859375,0.2475433349609375,-0.2636871337890625,1,0.95
2020-05-16 12:52:37.092 -0400,11666.17324879167,0.5056915283203125,0.444183349609375,-0.252349853515625,1,0.95
2020-05-16 12:52:37.212 -0400,11666.29298379167,0.9860687255859375,0.2553558349609375,-0.2441253662109375,1,0.95
2020-05-16 12:52:37.332 -0400,11666.41272079167,1.300628662109375,0.4849853515625,-0.2873687744140625,1,0.95
2020-05-16 12:52:37.452 -0400,11666.53245979167,1.140594482421875,0.517578125,-0.2403564453125,1,0.95
2020-05-16 12:52:37.572 -0400,11666.65219679167,0.8510894775390625,0.2284088134765625,-0.1404266357421875,1,0.95
2020-05-16 12:52:37.691 -0400,11666.77193379167,0.5662994384765625,0.3949127197265625,-0.115234375,1,0.95
2020-05-16 12:52:37.811 -0400,11666.89166679167,0.811431884765625,0.299560546875,-0.0800323486328125,1,0.95
2020-05-16 12:52:37.931 -0400,11667.01139879167,1.235000610351562,0.436676025390625,-0.2575225830078125,1,0.95
2020-05-16 12:52:38.050 -0400,11667.13113875,1.005538940429688,0.25653076171875,-0.361328125,1,0.95
2020-05-16 12:52:38.170 -0400,11667.25087575,0.59259033203125,0.2835693359375,-0.278961181640625,1,0.95
2020-05-16 12:52:38.290 -0400,11667.37061375,0.6325531005859375,0.46282958984375,-0.2776336669921875,1,0.95
2020-05-16 12:52:38.412 -0400,11667.49034675,0.9569854736328125,0.4652099609375,-0.396759033203125,1,0.95
2020-05-16 12:52:38.529 -0400,11667.61008075,1.180465698242188,0.5016326904296875,-0.467742919921875,1,0.95
2020-05-16 12:52:38.649 -0400,11667.72982275,1.191421508789062,0.308929443359375,-0.2274017333984375,1,0.95
2020-05-16 12:52:38.769 -0400,11667.84956475,0.631256103515625,0.3608856201171875,-0.1328125,1,0.95
2020-05-16 12:52:38.888 -0400,11667.96930175,0.83355712890625,0.251556396484375,-0.065216064453125,1,0.95
2020-05-16 12:52:39.008 -0400,11668.089037375,1.018157958984375,0.3108062744140625,-0.097808837890625,1,0.95
2020-05-16 12:52:39.128 -0400,11668.208779375,1.2391357421875,0.568756103515625,-0.5283203125,1,0.95
2020-05-16 12:52:39.248 -0400,11668.328520375,0.601043701171875,0.118743896484375,-0.2797088623046875,1,0.95
2020-05-16 12:52:39.368 -0400,11668.448249375,0.8079681396484375,0.5922088623046875,-0.367462158203125,1,0.95
2020-05-16 12:52:39.487 -0400,11668.567977375,0.9843902587890625,0.47711181640625,-0.50299072265625,1,0.95
2020-05-16 12:52:39.607 -0400,11668.687709375,1.183197021484375,0.4749603271484375,-0.426483154296875,1,0.95
2020-05-16 12:52:39.727 -0400,11668.807440375,0.9928131103515625,0.3501434326171875,-0.217529296875,1,0.95
2020-05-16 12:52:39.846 -0400,11668.927175375,0.60577392578125,0.3721771240234375,-0.127105712890625,1,0.95
2020-05-16 12:52:39.966 -0400,11669.046919375,1.03875732421875,0.14111328125,-0.052215576171875,1,0.95
2020-05-16 12:52:40.086 -0400,11669.1666575,1.226486206054688,0.48406982421875,-0.1994171142578125,1,0.95
2020-05-16 12:52:40.206 -0400,11669.2863975,1.309402465820312,0.3944244384765625,-0.4020538330078125,1,0.95
2020-05-16 12:52:40.325 -0400,11669.4061385,0.505706787109375,0.199127197265625,-0.224578857421875,1,0.95
2020-05-16 12:52:40.445 -0400,11669.5258835,0.8961029052734375,0.5741424560546875,-0.3782501220703125,1,0.95
2020-05-16 12:52:40.565 -0400,11669.6456205,1.236602783203125,0.6219940185546875,-0.4150238037109375,1,0.95
2020-05-16 12:52:40.685 -0400,11669.7653515,1.474349975585938,0.575469970703125,-0.3487701416015625,1,0.95
2020-05-16 12:52:40.804 -0400,11669.8850825,0.8369903564453125,0.1541290283203125,-0.1849365234375,1,0.95
2020-05-16 12:52:40.924 -0400,11670.0048185,0.813385009765625,0.4309234619140625,-0.0618743896484375,1,0.95
2020-05-16 12:52:41.044 -0400,11670.12455325,1.007369995117188,0.1695556640625,0.0964202880859375,1,0.95
2020-05-16 12:52:41.163 -0400,11670.24428625,0.85479736328125,0.577606201171875,-0.317962646484375,1,0.95
2020-05-16 12:52:41.283 -0400,11670.36402025,0.812042236328125,0.2190093994140625,-0.24896240234375,1,0.95
2020-05-16 12:52:41.403 -0400,11670.48374925,0.7553253173828125,0.5704345703125,-0.51983642578125,1,0.95
2020-05-16 12:52:41.523 -0400,11670.60349125,0.989715576171875,0.309783935546875,-0.53790283203125,1,0.95
2020-05-16 12:52:41.643 -0400,11670.72323325,1.232131958007812,0.56732177734375,-0.3876800537109375,1,0.95
2020-05-16 12:52:41.762 -0400,11670.84297525,1.3421630859375,0.4921722412109375,-0.2287139892578125,1,0.95
2020-05-16 12:52:41.882 -0400,11670.96271325,0.57965087890625,0.315673828125,-0.287872314453125,1,0.95
2020-05-16 12:52:42.002 -0400,11671.08245366667,0.8175506591796875,0.2621917724609375,-0.0820770263671875,1,0.95
2020-05-16 12:52:42.121 -0400,11671.20219166667,0.8409576416015625,0.3237457275390625,-0.0079498291015625,1,0.95
2020-05-16 12:52:42.241 -0400,11671.32192866667,1.307861328125,0.7191162109375,-0.4316864013671875,1,0.95
2020-05-16 12:52:42.361 -0400,11671.44166766667,0.5508575439453125,0.29852294921875,-0.2498931884765625,1,0.95
2020-05-16 12:52:42.481 -0400,11671.56140866667,0.7841644287109375,0.9765167236328125,-1.101181030273438,1,0.95
2020-05-16 12:52:42.600 -0400,11671.68114366667,1.145187377929688,0.6328277587890625,-0.1875,1,0.95
2020-05-16 12:52:42.720 -0400,11671.80087766667,0.7723846435546875,1.077484130859375,0.2943267822265625,1,0.95
2020-05-16 12:52:42.840 -0400,11671.92060966667,0.8952789306640625,-0.02484130859375,0.2712554931640625,1,0.95
2020-05-16 12:52:42.960 -0400,11672.04034366667,0.9319305419921875,0.2891082763671875,-0.2575531005859375,1,0.95
2020-05-16 12:52:43.079 -0400,11672.1600805,0.831329345703125,0.8382568359375,0.4091644287109375,1,0.95
2020-05-16 12:52:43.199 -0400,11672.2798135,1.006179809570312,0.2627410888671875,0.089385986328125,1,0.95
2020-05-16 12:52:43.319 -0400,11672.3995505,1.339859008789062,0.36444091796875,-0.026031494140625,1,0.95
2020-05-16 12:52:43.439 -0400,11672.5192885,0.5330810546875,0.2169952392578125,-0.04742431640625,1,0.95
2020-05-16 12:52:43.558 -0400,11672.6390285,0.968017578125,-0.187286376953125,0.0662078857421875,1,0.95
2020-05-16 12:52:43.678 -0400,11672.7587625,1.25482177734375,1.647781372070312,0.221710205078125,1,0.95
2020-05-16 12:52:43.798 -0400,11672.8784975,1.484664916992188,-0.13336181640625,-0.3209991455078125,1,0.95
2020-05-16 12:52:43.917 -0400,11672.9982375,0.25347900390625,1.409912109375,0.5624237060546875,1,0.95
2020-05-16 12:52:44.037 -0400,11673.11796991667,0.20904541015625,0.404327392578125,0.1376495361328125,1,0.95
2020-05-16 12:52:44.157 -0400,11673.23770291667,1.029190063476562,0.0055084228515625,0.19122314453125,1,0.95
2020-05-16 12:52:44.277 -0400,11673.35744091667,1.646377563476562,0.665924072265625,-0.4285430908203125,1,0.95
2020-05-16 12:52:44.396 -0400,11673.47717991667,0.9733123779296875,0.4108734130859375,-0.1630859375,1,0.95
2020-05-16 12:52:44.516 -0400,11673.59691591667,0.4168701171875,0.4123687744140625,-0.22509765625,1,0.95
2020-05-16 12:52:44.636 -0400,11673.71664991667,0.8282928466796875,0.65216064453125,-0.2981109619140625,1,0.95
2020-05-16 12:52:44.755 -0400,11673.83638491667,1.285736083984375,0.495574951171875,-0.3764190673828125,1,0.95
2020-05-16 12:52:44.875 -0400,11673.95612091667,1.690322875976562,0.43408203125,-0.2908172607421875,1,0.95
2020-05-16 12:52:44.995 -0400,11674.07586279167,0.6578521728515625,0.273895263671875,-0.20123291015625,1,0.95
2020-05-16 12:52:45.115 -0400,11674.19559879167,0.5238494873046875,0.240325927734375,-0.016937255859375,1,0.95
2020-05-16 12:52:45.235 -0400,11674.31533779167,0.6054840087890625,0.229705810546875,0.0575408935546875,1,0.95
2020-05-16 12:52:45.354 -0400,11674.43507579167,1.50567626953125,0.5936126708984375,-0.173187255859375,1,0.95
2020-05-16 12:52:45.474 -0400,11674.55481279167,1.086959838867188,0.613189697265625,-0.521636962890625,1,0.95
2020-05-16 12:52:45.594 -0400,11674.67455379167,0.486358642578125,0.385833740234375,-0.3541717529296875,1,0.95
2020-05-16 12:52:45.713 -0400,11674.79428879167,0.876251220703125,0.721435546875,-0.4008026123046875,1,0.95
2020-05-16 12:52:45.833 -0400,11674.91402579167,1.46649169921875,0.5368194580078125,-0.4083404541015625,1,0.95
2020-05-16 12:52:45.953 -0400,11675.03376179167,1.47247314453125,0.478424072265625,-0.247039794921875,1,0.95
2020-05-16 12:52:46.073 -0400,11675.15349025,0.6989898681640625,0.239654541015625,-0.1029510498046875,1,0.95
2020-05-16 12:52:46.192 -0400,11675.27321925,0.363067626953125,0.205963134765625,-0.012939453125,1,0.95
2020-05-16 12:52:46.312 -0400,11675.39295725,0.8245697021484375,0.5342559814453125,-0.093994140625,1,0.95
2020-05-16 12:52:46.432 -0400,11675.51269525,1.691619873046875,0.677490234375,-0.44122314453125,1,0.95
2020-05-16 12:52:46.552 -0400,11675.63242925,0.536163330078125,0.3801116943359375,-0.361602783203125,1,0.95
2020-05-16 12:52:46.672 -0400,11675.75216625,0.5314788818359375,0.486297607421875,-0.2334136962890625,1,0.95
2020-05-16 12:52:46.791 -0400,11675.87190125,1.091842651367188,0.6746368408203125,-0.2744903564453125,1,0.95
2020-05-16 12:52:46.911 -0400,11675.99163525,1.435821533203125,0.539520263671875,-0.272857666015625,1,0.95
2020-05-16 12:52:47.031 -0400,11676.111372875,0.8193359375,0.32666015625,-0.2149200439453125,1,0.95
2020-05-16 12:52:47.150 -0400,11676.231111875,0.6016387939453125,0.2804107666015625,-0.08544921875,1,0.95
2020-05-16 12:52:47.270 -0400,11676.350851875,0.6649017333984375,0.2417449951171875,0.0276947021484375,1,0.95
2020-05-16 12:52:47.390 -0400,11676.470594875,1.361007690429688,0.5738067626953125,-0.1833038330078125,1,0.95
2020-05-16 12:52:47.509 -0400,11676.590330875,1.186630249023438,0.503326416015625,-0.4919891357421875,1,0.95
2020-05-16 12:52:47.629 -0400,11676.710068875,0.552764892578125,0.413665771484375,-0.34893798828125,1,0.95
2020-05-16 12:52:47.749 -0400,11676.829808875,0.623565673828125,0.5589752197265625,-0.3599853515625,1,0.95
2020-05-16 12:52:47.869 -0400,11676.949546875,1.353652954101562,0.6851959228515625,-0.3282928466796875,1,0.95
2020-05-16 12:52:47.988 -0400,11677.069288625,1.332443237304688,0.33038330078125,-0.3238372802734375,1,0.95
2020-05-16 12:52:48.108 -0400,11677.189025625,0.81622314453125,0.263916015625,-0.1870880126953125,1,0.95
2020-05-16 12:52:48.228 -0400,11677.308765625,0.3456878662109375,0.235260009765625,-0.1159820556640625,1,0.95
2020-05-16 12:52:48.348 -0400,11677.428498625,0.3597564697265625,0.234588623046875,-0.0028839111328125,1,0.95
2020-05-16 12:52:48.467 -0400,11677.548231625,0.390655517578125,0.3169097900390625,-0.0060272216796875,1,0.95
2020-05-16 12:52:48.587 -0400,11677.667965625,3.388946533203125,1.084747314453125,-0.125946044921875,1,0.95
2020-05-16 12:52:48.707 -0400,11677.787706625,0.9727020263671875,0.7533111572265625,-0.4242095947265625,1,0.95
2020-05-16 12:52:48.827 -0400,11677.907445625,0.2676849365234375,0.4729766845703125,-0.3877410888671875,1,0.95
2020-05-16 12:52:48.946 -0400,11678.027187625,0.8961944580078125,0.7636260986328125,-0.3978424072265625,1,0.95
2020-05-16 12:52:49.066 -0400,11678.14692825,1.59356689453125,0.536712646484375,-0.1630096435546875,1,0.95
2020-05-16 12:52:49.186 -0400,11678.26665925,1.043365478515625,0.6610260009765625,-0.1393585205078125,1,0.95
2020-05-16 12:52:49.306 -0400,11678.38639725,0.56640625,0.2946929931640625,0.004058837890625,1,0.95
2020-05-16 12:52:49.425 -0400,11678.50613125,1.019317626953125,0.2373809814453125,0.0318603515625,1,0.95
2020-05-16 12:52:49.545 -0400,11678.62585825,1.034286499023438,0.455535888671875,-0.2879638671875,1,0.95
2020-05-16 12:52:49.665 -0400,11678.74559325,1.217453002929688,0.4776458740234375,-0.517120361328125,1,0.95
2020-05-16 12:52:49.784 -0400,11678.86532225,0.5920562744140625,0.4406585693359375,-0.3767852783203125,1,0.95
2020-05-16 12:52:49.904 -0400,11678.98505125,0.9059906005859375,0.542388916015625,-0.414215087890625,1,0.95
2020-05-16 12:52:50.024 -0400,11679.10478175,1.41632080078125,0.7187347412109375,-0.556243896484375,1,0.95
2020-05-16 12:52:50.144 -0400,11679.22451675,1.516464233398438,0.284912109375,-0.2011566162109375,1,0.95
2020-05-16 12:52:50.263 -0400,11679.34424775,0.5820159912109375,0.3182373046875,-0.1831512451171875,1,0.95
2020-05-16 12:52:50.383 -0400,11679.46398575,0.4639434814453125,0.18109130859375,-0.0307464599609375,1,0.95
2020-05-16 12:52:50.503 -0400,11679.58372475,0.980072021484375,0.3824615478515625,-0.1092071533203125,1,0.95
2020-05-16 12:52:50.625 -0400,11679.70346375,1.1129150390625,0.6346893310546875,-0.571441650390625,1,0.95
2020-05-16 12:52:50.742 -0400,11679.82320375,0.8323822021484375,0.2011260986328125,-0.390777587890625,1,0.95
2020-05-16 12:52:50.862 -0400,11679.94293875,0.5212249755859375,0.5726470947265625,-0.159332275390625,1,0.95
2020-05-16 12:52:50.982 -0400,11680.06267575,0.7821197509765625,0.6394195556640625,-0.3603363037109375,1,0.95
2020-05-16 12:52:51.102 -0400,11680.18240975,1.43939208984375,0.6109619140625,-0.339385986328125,1,0.95
2020-05-16 12:52:51.222 -0400,11680.30214275,1.593154907226562,0.514678955078125,-0.29693603515625,1,0.95
2020-05-16 12:52:51.341 -0400,11680.42188375,0.663665771484375,0.300201416015625,-0.2131805419921875,1,0.95
2020-05-16 12:52:51.461 -0400,11680.54162475,0.581512451171875,0.1881256103515625,-0.0437469482421875,1,0.95
2020-05-16 12:52:51.581 -0400,11680.66136475,0.6839141845703125,0.2645263671875,-0.028411865234375,1,0.95
2020-05-16 12:52:51.700 -0400,11680.78110475,1.489547729492188,0.6988067626953125,-0.550201416015625,1,0.95
2020-05-16 12:52:51.820 -0400,11680.90084175,0.69061279296875,0.2238311767578125,-0.4475250244140625,1,0.95
2020-05-16 12:52:51.940 -0400,11681.02058275,0.5099945068359375,0.5386810302734375,-0.2891082763671875,1,0.95
2020-05-16 12:52:52.060 -0400,11681.140325875,1.11370849609375,0.7789154052734375,-0.436431884765625,1,0.95
2020-05-16 12:52:52.179 -0400,11681.260066875,1.319366455078125,0.541229248046875,-0.383270263671875,1,0.95
2020-05-16 12:52:52.299 -0400,11681.379807875,1.3778076171875,0.4161376953125,-0.2540740966796875,1,0.95
2020-05-16 12:52:52.419 -0400,11681.499544875,0.6694793701171875,0.279449462890625,-0.0897369384765625,1,0.95
2020-05-16 12:52:52.538 -0400,11681.619287875,0.6641998291015625,0.170806884765625,0.004913330078125,1,0.95
2020-05-16 12:52:52.658 -0400,11681.739030875,0.804901123046875,0.6034088134765625,-0.116119384765625,1,0.95
2020-05-16 12:52:52.778 -0400,11681.858770875,1.4403076171875,0.6315765380859375,-0.5525970458984375,1,0.95
2020-05-16 12:52:52.898 -0400,11681.978509875,0.5053253173828125,0.343292236328125,-0.3896484375,1,0.95
2020-05-16 12:52:53.017 -0400,11682.09824875,0.6418609619140625,0.582855224609375,-0.3386993408203125,1,0.95
2020-05-16 12:52:53.137 -0400,11682.21798975,1.234527587890625,0.659942626953125,-0.4444122314453125,1,0.95
2020-05-16 12:52:53.257 -0400,11682.33772875,1.214996337890625,0.484405517578125,-0.2715911865234375,1,0.95
2020-05-16 12:52:53.377 -0400,11682.45746975,0.9281463623046875,0.372100830078125,-0.2809295654296875,1,0.95
2020-05-16 12:52:53.496 -0400,11682.57720775,0.545013427734375,0.230438232421875,-0.0808868408203125,1,0.95
2020-05-16 12:52:53.616 -0400,11682.69693975,0.6983795166015625,0.2565765380859375,-0.0558624267578125,1,0.95
2020-05-16 12:52:53.736 -0400,11682.81666675,1.291473388671875,0.43109130859375,-0.1360015869140625,1,0.95
2020-05-16 12:52:53.855 -0400,11682.93639875,1.53765869140625,0.4877471923828125,-0.362213134765625,1,0.95
2020-05-16 12:52:53.975 -0400,11683.05612775,0.526092529296875,0.35369873046875,-0.2318267822265625,1,0.95
2020-05-16 12:52:54.095 -0400,11683.175863125,0.846923828125,0.6442413330078125,-0.4279632568359375,1,0.95
2020-05-16 12:52:54.215 -0400,11683.295604125,1.37957763671875,0.4198760986328125,-0.3644256591796875,1,0.95
2020-05-16 12:52:54.335 -0400,11683.415345125,1.168975830078125,0.4859771728515625,-0.3244781494140625,1,0.95
2020-05-16 12:52:54.454 -0400,11683.535082125,0.8691253662109375,0.2648773193359375,-0.1686859130859375,1,0.95
2020-05-16 12:52:54.574 -0400,11683.654825125,0.503173828125,0.260406494140625,-0.052154541015625,1,0.95
2020-05-16 12:52:54.694 -0400,11683.774569125,0.818267822265625,0.3039093017578125,-0.011505126953125,1,0.95
2020-05-16 12:52:54.814 -0400,11683.894313125,1.46697998046875,0.4950103759765625,-0.2115325927734375,1,0.95
2020-05-16 12:52:54.933 -0400,11684.014055125,1.388580322265625,0.3415069580078125,-0.317901611328125,1,0.95
2020-05-16 12:52:55.053 -0400,11684.133792125,0.606903076171875,1.255355834960938,-0.43603515625,1,0.95
2020-05-16 12:52:55.173 -0400,11684.253533125,0.0010833740234375,1.082412719726562,-0.3567962646484375,1,0.95
2020-05-16 12:52:55.292 -0400,11684.373274125,0.040985107421875,1.459991455078125,0.0543212890625,1,0.95
2020-05-16 12:52:55.412 -0400,11684.493014125,-0.2877044677734375,1.262222290039062,0.346160888671875,1,0.95
2020-05-16 12:52:55.532 -0400,11684.612756125,-0.129180908203125,0.5536651611328125,-0.0576629638671875,1,0.95
2020-05-16 12:52:55.652 -0400,11684.732495125,-0.5506134033203125,0.4274139404296875,-0.156005859375,1,0.95
2020-05-16 12:52:55.771 -0400,11684.852229125,-1.047958374023438,0.6575927734375,-0.046661376953125,1,0.95
2020-05-16 12:52:55.891 -0400,11684.971970125,-1.149429321289062,0.9157562255859375,0.0473785400390625,1,0.95
2020-05-16 12:52:56.011 -0400,11685.09170775,-0.7410430908203125,0.810302734375,-0.200775146484375,1,0.95
2020-05-16 12:52:56.131 -0400,11685.21144575,-0.3925018310546875,0.0895538330078125,-0.089813232421875,1,0.95
2020-05-16 12:52:56.250 -0400,11685.33118475,-0.6110687255859375,0.2491912841796875,-0.3624267578125,1,0.95
2020-05-16 12:52:56.370 -0400,11685.45092775,-0.9145660400390625,0.173675537109375,-0.685455322265625,1,0.95
2020-05-16 12:52:56.490 -0400,11685.57066775,-1.4530029296875,0.056304931640625,-0.0005340576171875,1,0.95
2020-05-16 12:52:56.609 -0400,11685.69040475,-0.6031341552734375,-0.02471923828125,-0.4984893798828125,1,0.95
2020-05-16 12:52:56.729 -0400,11685.81014775,-0.292083740234375,-0.033233642578125,-0.3579254150390625,1,0.95
2020-05-16 12:52:56.849 -0400,11685.92989475,-0.8021240234375,-0.316009521484375,-0.679779052734375,1,0.95
2020-05-16 12:52:56.969 -0400,11686.04963775,-1.121383666992188,-0.19097900390625,-0.6440582275390625,1,0.95
2020-05-16 12:52:57.089 -0400,11686.169388,-1.37530517578125,-0.315582275390625,-0.331451416015625,1,0.95
2020-05-16 12:52:57.208 -0400,11686.28914,-0.7569732666015625,0.159271240234375,-0.278961181640625,1,0.95
2020-05-16 12:52:57.333 -0400,11686.408882,-0.6295318603515625,0.20416259765625,-0.366485595703125,1,0.95
2020-05-16 12:52:57.448 -0400,11686.52863,-0.9820098876953125,-0.099609375,-0.81304931640625,1,0.95
2020-05-16 12:52:57.568 -0400,11686.648375,-1.284347534179688,0.0019073486328125,-0.2803955078125,1,0.95
2020-05-16 12:52:57.687 -0400,11686.768124,-0.9730072021484375,0.3070831298828125,-0.068695068359375,1,0.95
2020-05-16 12:52:57.807 -0400,11686.887863,-0.54510498046875,0.47406005859375,-0.2428131103515625,1,0.95
2020-05-16 12:52:57.927 -0400,11687.007607,-0.3795928955078125,-0.1224822998046875,-0.32415771484375,1,0.95
2020-05-16 12:52:58.047 -0400,11687.12735025,-1.052444458007812,-0.150115966796875,-0.48370361328125,1,0.95
2020-05-16 12:52:58.166 -0400,11687.24709325,-0.5417327880859375,-0.304901123046875,0.09637451171875,1,0.95
2020-05-16 12:52:58.286 -0400,11687.36682625,-0.118194580078125,0.636016845703125,0.077850341796875,1,0.95
2020-05-16 12:52:58.406 -0400,11687.48657325,-1.420089721679688,1.5316162109375,-0.376922607421875,1,0.95
2020-05-16 12:52:58.526 -0400,11687.60632325,-0.305572509765625,1.993011474609375,-0.7354736328125,1,0.95
2020-05-16 12:52:58.645 -0400,11687.72606325,-0.0072479248046875,0.8936614990234375,-0.058258056640625,1,0.95
2020-05-16 12:52:58.765 -0400,11687.84579225,-0.6252899169921875,0.6674957275390625,0.2907562255859375,1,0.95
2020-05-16 12:52:58.885 -0400,11687.96552625,-0.4419097900390625,0.671844482421875,-0.2480621337890625,1,0.95
2020-05-16 12:52:59.005 -0400,11688.085263375,-0.1425018310546875,0.6939239501953125,-0.2867279052734375,1,0.95
2020-05-16 12:52:59.124 -0400,11688.205001375,-0.5974884033203125,0.97357177734375,0.2267913818359375,1,0.95
2020-05-16 12:52:59.244 -0400,11688.324737375,-0.3816986083984375,0.9823150634765625,0.6301727294921875,1,0.95
2020-05-16 12:52:59.364 -0400,11688.444476375,-0.152923583984375,0.75128173828125,0.5140838623046875,1,0.95
2020-05-16 12:52:59.483 -0400,11688.564214375,-0.3202362060546875,0.6970977783203125,0.3848724365234375,1,0.95
2020-05-16 12:52:59.603 -0400,11688.683950375,-0.37371826171875,0.9380645751953125,0.0971832275390625,1,0.95
2020-05-16 12:52:59.723 -0400,11688.803685375,-0.63525390625,1.280303955078125,-0.465087890625,1,0.95
2020-05-16 12:52:59.842 -0400,11688.923419375,-0.432830810546875,0.49609375,-0.638275146484375,1,0.95
2020-05-16 12:52:59.962 -0400,11689.043156375,-0.2880401611328125,0.30926513671875,-0.89166259765625,1,0.95
2020-05-16 12:53:00.082 -0400,11689.16289275,-0.327789306640625,0.764739990234375,-0.6719818115234375,1,0.95
2020-05-16 12:53:00.202 -0400,11689.28262575,-0.5689849853515625,0.455474853515625,0.0157623291015625,1,0.95
2020-05-16 12:53:00.322 -0400,11689.40236175,-0.8021392822265625,0.4716033935546875,-0.2501983642578125,1,0.95
2020-05-16 12:53:00.441 -0400,11689.52209975,-1.107254028320312,0.7335052490234375,-0.2720947265625,1,0.95
2020-05-16 12:53:00.563 -0400,11689.64183875,-0.7245941162109375,0.1111907958984375,-0.1732635498046875,1,0.95
2020-05-16 12:53:00.681 -0400,11689.76157775,-0.9278564453125,0.248321533203125,-0.2380218505859375,1,0.95
2020-05-16 12:53:00.800 -0400,11689.88131575,-1.30767822265625,0.4397735595703125,-0.2077789306640625,1,0.95
2020-05-16 12:53:00.920 -0400,11690.00104375,-1.18994140625,0.3695220947265625,0.2506561279296875,1,0.95
2020-05-16 12:53:01.040 -0400,11690.120776875,-0.6703948974609375,0.214202880859375,-0.231414794921875,1,0.95
2020-05-16 12:53:01.160 -0400,11690.240508875,-0.3441619873046875,-0.16461181640625,-0.151702880859375,1,0.95
2020-05-16 12:53:01.309 -0400,11690.390172875,-0.7717742919921875,-0.3115386962890625,-0.7046661376953125,1,0.95
2020-05-16 12:53:01.380 -0400,11690.460017875,-0.9179840087890625,-0.274627685546875,-0.7944488525390625,1,0.95
2020-05-16 12:53:01.449 -0400,11690.529861875,-0.8614501953125,-0.37078857421875,-0.8055877685546875,1,0.95
2020-05-16 12:53:01.519 -0400,11690.599705875,-0.389434814453125,-0.614654541015625,-0.47259521484375,1,0.95
2020-05-16 12:53:01.590 -0400,11690.669544875,-0.2236785888671875,-0.351287841796875,-0.361236572265625,1,0.95
2020-05-16 12:53:01.659 -0400,11690.739387875,-0.17083740234375,-0.4400634765625,0.0459747314453125,1,0.95
2020-05-16 12:53:01.728 -0400,11690.809229875,-0.357208251953125,-0.2216644287109375,0.11505126953125,1,0.95
2020-05-16 12:53:01.798 -0400,11690.879071875,-0.70794677734375,0.049041748046875,0.074859619140625,1,0.95
2020-05-16 12:53:01.868 -0400,11690.948913875,-0.7704315185546875,0.9893035888671875,-0.4442291259765625,1,0.95
2020-05-16 12:53:01.938 -0400,11691.018759875,-0.6761322021484375,1.888580322265625,-1.551559448242188,1,0.95
2020-05-16 12:53:02.008 -0400,11691.088605875,-0.1581573486328125,0.0101470947265625,-1.80926513671875,1,0.95
2020-05-16 12:53:02.078 -0400,11691.158453875,-0.2502593994140625,-0.019622802734375,-2.254959106445312,1,0.95
2020-05-16 12:53:02.147 -0400,11691.228302875,-0.1138153076171875,0.844268798828125,-0.643890380859375,1,0.95
2020-05-16 12:53:02.217 -0400,11691.298150875,-0.0579071044921875,-0.0283050537109375,-0.4876708984375,1,0.95
2020-05-16 12:53:02.287 -0400,11691.368000875,-0.0480194091796875,-0.0556640625,-0.4990386962890625,1,0.95
2020-05-16 12:53:02.357 -0400,11691.437845875,0.2154388427734375,0.2667236328125,-0.439056396484375,1,0.95
2020-05-16 12:53:02.427 -0400,11691.507688875,0.76507568359375,0.459991455078125,-0.583984375,1,0.95
2020-05-16 12:53:02.497 -0400,11691.577532875,1.309661865234375,0.2644805908203125,-0.420623779296875,1,0.95
2020-05-16 12:53:02.566 -0400,11691.647367875,1.725601196289062,0.8629913330078125,-0.509918212890625,1,0.95
2020-05-16 12:53:02.636 -0400,11691.717206875,1.568511962890625,0.7342071533203125,-0.2929840087890625,1,0.95
2020-05-16 12:53:02.706 -0400,11691.787046875,0.8620452880859375,0.699493408203125,-0.223297119140625,1,0.95
2020-05-16 12:53:02.776 -0400,11691.856888875,0.5855865478515625,0.574066162109375,-0.0391845703125,1,0.95
2020-05-16 12:53:02.846 -0400,11691.926727875,0.6901092529296875,0.7875823974609375,0.0707244873046875,1,0.95
2020-05-16 12:53:02.916 -0400,11691.996568875,0.7454833984375,1.124618530273438,0.1498565673828125,1,0.95
2020-05-16 12:53:02.985 -0400,11692.066409875,0.7849884033203125,1.073959350585938,0.0927276611328125,1,0.95
2020-05-16 12:53:03.056 -0400,11692.13624991667,1.000732421875,1.05340576171875,-0.18634033203125,1,0.95
2020-05-16 12:53:03.125 -0400,11692.20609091667,1.200149536132812,0.8704833984375,-0.24462890625,1,0.95
2020-05-16 12:53:03.195 -0400,11692.27593191667,1.438186645507812,0.6536407470703125,-0.281646728515625,1,0.95
2020-05-16 12:53:03.265 -0400,11692.34577591667,1.002227783203125,0.3457489013671875,-0.2650146484375,1,0.95
2020-05-16 12:53:03.335 -0400,11692.41561791667,0.8341827392578125,0.26593017578125,-0.2632598876953125,1,0.95
2020-05-16 12:53:03.405 -0400,11692.48545491667,0.8769073486328125,0.265380859375,-0.24786376953125,1,0.95
2020-05-16 12:53:03.475 -0400,11692.55529291667,0.9153594970703125,0.1207427978515625,-0.1985626220703125,1,0.95
2020-05-16 12:53:03.544 -0400,11692.62512891667,0.653472900390625,0.189483642578125,-0.429046630859375,1,0.95
2020-05-16 12:53:03.614 -0400,11692.69496791667,0.7915496826171875,0.22119140625,-0.4809417724609375,1,0.95
2020-05-16 12:53:03.684 -0400,11692.76480791667,0.97833251953125,0.407562255859375,-0.524749755859375,1,0.95
2020-05-16 12:53:03.754 -0400,11692.83464991667,0.9056854248046875,0.6026458740234375,-0.4016876220703125,1,0.95
2020-05-16 12:53:03.824 -0400,11692.90448991667,0.703369140625,0.587188720703125,-0.2362823486328125,1,0.95
2020-05-16 12:53:03.894 -0400,11692.97432891667,0.789825439453125,0.75860595703125,-0.141204833984375,1,0.95
2020-05-16 12:53:03.963 -0400,11693.04417191667,0.917572021484375,0.8595428466796875,-0.17510986328125,1,0.95
2020-05-16 12:53:04.033 -0400,11693.11401904167,1.26336669921875,0.9513092041015625,-0.29241943359375,1,0.95
2020-05-16 12:53:04.103 -0400,11693.18386104167,1.333236694335938,0.8301849365234375,-0.381317138671875,1,0.95
2020-05-16 12:53:04.173 -0400,11693.25370404167,1.107177734375,0.320953369140625,-0.3645477294921875,1,0.95
2020-05-16 12:53:04.243 -0400,11693.32354204167,1.145645141601562,0.335296630859375,-0.3206634521484375,1,0.95
2020-05-16 12:53:04.313 -0400,11693.39338004167,0.781005859375,0.274505615234375,-0.32867431640625,1,0.95
2020-05-16 12:53:04.383 -0400,11693.46322004167,0.61126708984375,0.1834564208984375,-0.2401123046875,1,0.95
2020-05-16 12:53:04.452 -0400,11693.53305804167,0.7683868408203125,0.20208740234375,-0.193359375,1,0.95
2020-05-16 12:53:04.522 -0400,11693.60289604167,0.943511962890625,0.27508544921875,-0.19061279296875,1,0.95
2020-05-16 12:53:04.592 -0400,11693.67273704167,1.079788208007812,0.30029296875,-0.161865234375,1,0.95
2020-05-16 12:53:04.662 -0400,11693.74258004167,0.8192901611328125,0.391510009765625,-0.4402313232421875,1,0.95
2020-05-16 12:53:04.731 -0400,11693.81242304167,1.07196044921875,0.3287200927734375,-0.5693817138671875,1,0.95
2020-05-16 12:53:04.801 -0400,11693.88226704167,0.867034912109375,0.1832427978515625,-0.305206298828125,1,0.95
2020-05-16 12:53:04.871 -0400,11693.95210904167,0.55889892578125,0.310333251953125,-0.352203369140625,1,0.95
2020-05-16 12:53:04.941 -0400,11694.02195304167,0.667266845703125,0.4509429931640625,-0.385162353515625,1,0.95
2020-05-16 12:53:05.011 -0400,11694.091795125,1.055267333984375,0.52984619140625,-0.5561676025390625,1,0.95
2020-05-16 12:53:05.081 -0400,11694.161637125,1.116439819335938,0.5201568603515625,-0.6269989013671875,1,0.95
2020-05-16 12:53:05.151 -0400,11694.231479125,1.46685791015625,0.5372161865234375,-0.5762481689453125,1,0.95
2020-05-16 12:53:05.221 -0400,11694.301321125,1.133041381835938,0.4365692138671875,-0.4302520751953125,1,0.95
2020-05-16 12:53:05.290 -0400,11694.371164125,1.273529052734375,0.377410888671875,-0.2730255126953125,1,0.95
2020-05-16 12:53:05.360 -0400,11694.441007125,0.87603759765625,0.2698211669921875,-0.1826934814453125,1,0.95
2020-05-16 12:53:05.430 -0400,11694.510848125,0.5947418212890625,0.2694244384765625,-0.1656646728515625,1,0.95
2020-05-16 12:53:05.500 -0400,11694.580688125,0.68792724609375,0.275299072265625,-0.084014892578125,1,0.95
2020-05-16 12:53:05.570 -0400,11694.650525125,0.9752197265625,0.26776123046875,-0.1357421875,1,0.95
2020-05-16 12:53:05.640 -0400,11694.720363125,0.9355926513671875,0.22357177734375,-0.2806396484375,1,0.95
2020-05-16 12:53:05.709 -0400,11694.790204125,0.9924163818359375,0.114410400390625,-0.580963134765625,1,0.95
2020-05-16 12:53:05.779 -0400,11694.860045125,0.958465576171875,0.1953887939453125,-0.635986328125,1,0.95
2020-05-16 12:53:05.849 -0400,11694.929889125,1.05523681640625,0.1934051513671875,-0.57952880859375,1,0.95
2020-05-16 12:53:05.919 -0400,11694.999732125,0.6101226806640625,0.3118743896484375,-0.34210205078125,1,0.95
2020-05-16 12:53:05.989 -0400,11695.069576125,0.53497314453125,0.2915496826171875,-0.2554779052734375,1,0.95
2020-05-16 12:53:06.059 -0400,11695.139422375,0.823028564453125,0.410308837890625,-0.52496337890625,1,0.95
2020-05-16 12:53:06.128 -0400,11695.209267375,1.0565185546875,0.63055419921875,-0.607879638671875,1,0.95
2020-05-16 12:53:06.198 -0400,11695.279112375,1.454437255859375,0.6618499755859375,-0.6161041259765625,1,0.95
2020-05-16 12:53:06.268 -0400,11695.348955375,1.095367431640625,0.38922119140625,-0.579559326171875,1,0.95
2020-05-16 12:53:06.338 -0400,11695.418800375,1.190841674804688,0.352874755859375,-0.467926025390625,1,0.95
2020-05-16 12:53:06.408 -0400,11695.488640375,1.03863525390625,0.280975341796875,-0.3187255859375,1,0.95
2020-05-16 12:53:06.478 -0400,11695.558484375,0.695709228515625,0.259429931640625,-0.29144287109375,1,0.95
2020-05-16 12:53:06.547 -0400,11695.628327375,0.6898040771484375,0.2068023681640625,-0.24176025390625,1,0.95
2020-05-16 12:53:06.617 -0400,11695.698170375,0.913055419921875,0.2413482666015625,-0.2653350830078125,1,0.95
2020-05-16 12:53:06.687 -0400,11695.768015375,0.9636077880859375,0.1512298583984375,-0.2038421630859375,1,0.95
2020-05-16 12:53:06.757 -0400,11695.837866375,1.030227661132812,0.1457672119140625,-0.4316253662109375,1,0.95
2020-05-16 12:53:06.827 -0400,11695.907712375,0.8765106201171875,0.200653076171875,-0.5352325439453125,1,0.95
2020-05-16 12:53:06.897 -0400,11695.977560375,1.127456665039062,0.19232177734375,-0.50677490234375,1,0.95
2020-05-16 12:53:06.967 -0400,11696.047409375,0.81781005859375,0.3079986572265625,-0.2563018798828125,1,0.95
2020-05-16 12:53:07.036 -0400,11696.1172555,0.648193359375,0.35760498046875,-0.26666259765625,1,0.95
2020-05-16 12:53:07.106 -0400,11696.1870965,0.9336700439453125,0.206085205078125,-0.3630523681640625,1,0.95
2020-05-16 12:53:07.176 -0400,11696.2569365,1.022369384765625,0.5953369140625,-0.400177001953125,1,0.95
2020-05-16 12:53:07.246 -0400,11696.3267775,1.178207397460938,0.51953125,-0.4316253662109375,1,0.95
2020-05-16 12:53:07.316 -0400,11696.3966195,1.116470336914062,0.6646728515625,-0.4802398681640625,1,0.95
2020-05-16 12:53:07.386 -0400,11696.4664615,1.300750732421875,0.503143310546875,-0.461669921875,1,0.95
2020-05-16 12:53:07.456 -0400,11696.5363095,1.120361328125,0.20703125,-0.39642333984375,1,0.95
2020-05-16 12:53:07.525 -0400,11696.6061555,0.7099456787109375,0.22442626953125,-0.298736572265625,1,0.95
2020-05-16 12:53:07.595 -0400,11696.6760025,0.5785675048828125,0.2241058349609375,-0.1847686767578125,1,0.95
2020-05-16 12:53:07.665 -0400,11696.7458485,0.8262176513671875,0.26165771484375,-0.2104339599609375,1,0.95
2020-05-16 12:53:07.735 -0400,11696.8156965,1.0233154296875,0.2512054443359375,-0.2594451904296875,1,0.95
2020-05-16 12:53:07.805 -0400,11696.8855405,0.996795654296875,0.2821197509765625,-0.4395904541015625,1,0.95
2020-05-16 12:53:07.874 -0400,11696.9553915,0.9002685546875,0.2038421630859375,-0.4088897705078125,1,0.95
2020-05-16 12:53:07.944 -0400,11697.0252385,1.176376342773438,0.137481689453125,-0.3707733154296875,1,0.95
2020-05-16 12:53:08.014 -0400,11697.09508625,0.667724609375,0.129364013671875,-0.31591796875,1,0.95
2020-05-16 12:53:08.084 -0400,11697.16493625,0.3589324951171875,0.2502288818359375,-0.32061767578125,1,0.95
2020-05-16 12:53:08.154 -0400,11697.23478825,0.5748443603515625,0.313323974609375,-0.3527984619140625,1,0.95
2020-05-16 12:53:08.224 -0400,11697.30463625,1.090286254882812,0.360595703125,-0.5689697265625,1,0.95
2020-05-16 12:53:08.294 -0400,11697.37448325,1.328506469726562,0.3386077880859375,-0.60992431640625,1,0.95
2020-05-16 12:53:08.363 -0400,11697.44433025,1.195693969726562,0.4305572509765625,-0.5997772216796875,1,0.95
2020-05-16 12:53:08.433 -0400,11697.51417325,1.4337158203125,0.4459991455078125,-0.4049072265625,1,0.95
2020-05-16 12:53:08.503 -0400,11697.58401825,1.092727661132812,0.2458648681640625,-0.2489013671875,1,0.95
2020-05-16 12:53:08.573 -0400,11697.65386325,0.5659332275390625,0.254119873046875,-0.3361663818359375,1,0.95
2020-05-16 12:53:08.643 -0400,11697.72370625,0.539642333984375,0.1629180908203125,-0.1873779296875,1,0.95
2020-05-16 12:53:08.713 -0400,11697.79354825,0.733795166015625,0.2169647216796875,-0.179473876953125,1,0.95
2020-05-16 12:53:08.783 -0400,11697.86339625,1.218276977539062,0.2143096923828125,-0.27471923828125,1,0.95
2020-05-16 12:53:08.852 -0400,11697.93324325,1.089813232421875,0.245513916015625,-0.444122314453125,1,0.95
2020-05-16 12:53:08.922 -0400,11698.00308625,0.8441314697265625,0.20513916015625,-0.490020751953125,1,0.95
2020-05-16 12:53:08.992 -0400,11698.07292925,0.9399871826171875,0.1721038818359375,-0.3517608642578125,1,0.95
2020-05-16 12:53:09.062 -0400,11698.14277554167,0.7678375244140625,0.1804656982421875,-0.2545013427734375,1,0.95
2020-05-16 12:53:09.132 -0400,11698.21261854167,0.573699951171875,0.291351318359375,-0.2945556640625,1,0.95
2020-05-16 12:53:09.202 -0400,11698.28246554167,0.871307373046875,0.17169189453125,-0.2838134765625,1,0.95
2020-05-16 12:53:09.272 -0400,11698.35230454167,1.056915283203125,0.2138671875,-0.649078369140625,1,0.95
2020-05-16 12:53:09.341 -0400,11698.42214554167,1.160675048828125,0.435821533203125,-0.601226806640625,1,0.95
2020-05-16 12:53:09.411 -0400,11698.49198654167,1.12860107421875,0.4674224853515625,-0.6350250244140625,1,0.95
2020-05-16 12:53:09.481 -0400,11698.56182154167,1.476715087890625,0.4272918701171875,-0.4443206787109375,1,0.95
2020-05-16 12:53:09.551 -0400,11698.63165654167,1.281387329101562,0.2201080322265625,-0.288330078125,1,0.95
2020-05-16 12:53:09.621 -0400,11698.70149554167,0.8379058837890625,0.2324371337890625,-0.25,1,0.95
2020-05-16 12:53:09.690 -0400,11698.77133754167,0.7693328857421875,0.256195068359375,-0.2191314697265625,1,0.95
2020-05-16 12:53:09.760 -0400,11698.84117754167,0.8079071044921875,0.123626708984375,-0.054046630859375,1,0.95
2020-05-16 12:53:09.830 -0400,11698.91101554167,0.9650115966796875,0.093292236328125,-0.196014404296875,1,0.95
2020-05-16 12:53:09.900 -0400,11698.98085454167,1.012344360351562,0.223663330078125,-0.3122406005859375,1,0.95
2020-05-16 12:53:09.970 -0400,11699.05068954167,0.7819366455078125,0.2402801513671875,-0.43682861328125,1,0.95
2020-05-16 12:53:10.040 -0400,11699.12052375,1.156646728515625,-0.06304931640625,-0.4757080078125,1,0.95
2020-05-16 12:53:10.109 -0400,11699.19036175,0.9751434326171875,0.2067413330078125,-0.3618011474609375,1,0.95
2020-05-16 12:53:10.180 -0400,11699.26019875,0.6448822021484375,0.3333282470703125,-0.4290771484375,1,0.95
2020-05-16 12:53:10.249 -0400,11699.33003275,0.768798828125,0.3346710205078125,-0.445892333984375,1,0.95
2020-05-16 12:53:10.319 -0400,11699.39986975,1.087783813476562,0.27105712890625,-0.6107025146484375,1,0.95
2020-05-16 12:53:10.389 -0400,11699.46970775,1.252700805664062,0.4598541259765625,-0.602935791015625,1,0.95
2020-05-16 12:53:10.458 -0400,11699.53954475,1.195510864257812,0.51123046875,-0.6730499267578125,1,0.95
2020-05-16 12:53:10.528 -0400,11699.60938075,1.440338134765625,0.277923583984375,-0.4736175537109375,1,0.95
2020-05-16 12:53:10.598 -0400,11699.67921475,1.256698608398438,0.0931396484375,-0.319488525390625,1,0.95
2020-05-16 12:53:10.668 -0400,11699.74904875,0.6714019775390625,0.1527252197265625,-0.2851104736328125,1,0.95
2020-05-16 12:53:10.738 -0400,11699.81888275,0.5243682861328125,0.1023406982421875,-0.1670684814453125,1,0.95
2020-05-16 12:53:10.808 -0400,11699.88871875,0.6685333251953125,0.1992645263671875,-0.1404571533203125,1,0.95
2020-05-16 12:53:10.878 -0400,11699.95855575,1.030502319335938,0.1698150634765625,-0.25299072265625,1,0.95
2020-05-16 12:53:10.947 -0400,11700.02839475,1.074066162109375,0.0308074951171875,-0.3696136474609375,1,0.95
2020-05-16 12:53:11.017 -0400,11700.098232125,0.8438262939453125,0.292266845703125,-0.39300537109375,1,0.95
2020-05-16 12:53:11.087 -0400,11700.168072125,1.112106323242188,0.2485809326171875,-0.3982086181640625,1,0.95
2020-05-16 12:53:11.157 -0400,11700.237910125,0.6810150146484375,0.2208251953125,-0.3777313232421875,1,0.95
2020-05-16 12:53:11.227 -0400,11700.307746125,0.4754486083984375,0.2928924560546875,-0.234527587890625,1,0.95
2020-05-16 12:53:11.297 -0400,11700.377585125,0.689178466796875,0.3157958984375,-0.3119964599609375,1,0.95
2020-05-16 12:53:11.367 -0400,11700.447422125,1.26507568359375,0.6815338134765625,-0.5135345458984375,1,0.95
2020-05-16 12:53:11.436 -0400,11700.517256125,1.231704711914062,0.58624267578125,-0.602264404296875,1,0.95
2020-05-16 12:53:11.506 -0400,11700.587095125,1.293411254882812,0.4338531494140625,-0.64202880859375,1,0.95
2020-05-16 12:53:11.576 -0400,11700.656938125,1.37396240234375,0.251220703125,-0.6360931396484375,1,0.95
2020-05-16 12:53:11.646 -0400,11700.726780125,1.304168701171875,0.0023193359375,-0.4081878662109375,1,0.95
2020-05-16 12:53:11.716 -0400,11700.796623125,0.7036590576171875,0.10888671875,-0.283935546875,1,0.95
2020-05-16 12:53:11.786 -0400,11700.866464125,0.58770751953125,0.2592010498046875,-0.199432373046875,1,0.95
2020-05-16 12:53:11.855 -0400,11700.936305125,0.5395660400390625,0.2546234130859375,-0.0943756103515625,1,0.95
2020-05-16 12:53:11.925 -0400,11701.006147125,0.891510009765625,0.3087158203125,-0.0177154541015625,1,0.95
2020-05-16 12:53:11.995 -0400,11701.075988125,0.8589324951171875,0.428009033203125,-0.2012786865234375,1,0.95
2020-05-16 12:53:12.065 -0400,11701.14582925,1.000747680664062,0.3028106689453125,-0.3609771728515625,1,0.95
2020-05-16 12:53:12.135 -0400,11701.21567125,1.06158447265625,0.2755279541015625,-0.43328857421875,1,0.95
2020-05-16 12:53:12.204 -0400,11701.28551125,0.8222503662109375,0.2322998046875,-0.418701171875,1,0.95
2020-05-16 12:53:12.274 -0400,11701.35535325,0.51116943359375,0.129150390625,-0.402252197265625,1,0.95
2020-05-16 12:53:12.344 -0400,11701.42519825,0.930633544921875,0.3913726806640625,-0.4156646728515625,1,0.95
2020-05-16 12:53:12.414 -0400,11701.49504025,1.06024169921875,0.45428466796875,-0.7187652587890625,1,0.95
2020-05-16 12:53:12.484 -0400,11701.56488525,1.499954223632812,0.4466552734375,-0.54498291015625,1,0.95
2020-05-16 12:53:12.554 -0400,11701.63472825,1.275863647460938,0.3805999755859375,-0.4747161865234375,1,0.95
2020-05-16 12:53:12.624 -0400,11701.70457025,1.546127319335938,0.076324462890625,-0.3062286376953125,1,0.95
2020-05-16 12:53:12.693 -0400,11701.77441325,1.051925659179688,-0.00726318359375,-0.1784515380859375,1,0.95
2020-05-16 12:53:12.763 -0400,11701.84425825,0.5601959228515625,0.0347442626953125,-0.151763916015625,1,0.95
2020-05-16 12:53:12.833 -0400,11701.91410525,0.4537353515625,0.213287353515625,-0.0789947509765625,1,0.95
2020-05-16 12:53:12.903 -0400,11701.98395125,0.729217529296875,0.2977752685546875,-0.00225830078125,1,0.95
2020-05-16 12:53:12.973 -0400,11702.05379525,1.045730590820312,0.4188385009765625,0.154144287109375,1,0.95
2020-05-16 12:53:13.043 -0400,11702.1236395,1.234512329101562,0.9339141845703125,0.22918701171875,1,0.95
2020-05-16 12:53:13.113 -0400,11702.1934865,0.884674072265625,1.022003173828125,-0.0067138671875,1,0.95
2020-05-16 12:53:13.183 -0400,11702.2633335,0.964080810546875,0.70660400390625,-0.0451812744140625,1,0.95
2020-05-16 12:53:13.252 -0400,11702.3331795,0.4835662841796875,0.558837890625,-0.3006744384765625,1,0.95
2020-05-16 12:53:13.322 -0400,11702.4030235,0.26031494140625,0.991302490234375,-0.47491455078125,1,0.95
2020-05-16 12:53:13.392 -0400,11702.4728655,0.1945343017578125,0.5304412841796875,-0.2930450439453125,1,0.95
2020-05-16 12:53:13.462 -0400,11702.5427075,0.7596435546875,1.38555908203125,-0.2637176513671875,1,0.95
2020-05-16 12:53:13.532 -0400,11702.6125465,0.6697998046875,1.17340087890625,-0.3350067138671875,1,0.95
2020-05-16 12:53:13.602 -0400,11702.6823875,0.748687744140625,1.539840698242188,-0.5653839111328125,1,0.95
2020-05-16 12:53:13.672 -0400,11702.7522235,0.63824462890625,0.7464141845703125,-0.49859619140625,1,0.95
2020-05-16 12:53:13.741 -0400,11702.8220645,0.3830413818359375,0.2410430908203125,-0.3302459716796875,1,0.95
2020-05-16 12:53:13.811 -0400,11702.8919055,0.132965087890625,0.2619171142578125,-0.265655517578125,1,0.95
2020-05-16 12:53:13.881 -0400,11702.9617475,0.2045135498046875,0.7443389892578125,-0.509521484375,1,0.95
2020-05-16 12:53:13.951 -0400,11703.0315885,0.3334503173828125,0.8356170654296875,-0.8189849853515625,1,0.95
2020-05-16 12:53:14.021 -0400,11703.101434625,0.544158935546875,0.6833038330078125,-0.994171142578125,1,0.95
2020-05-16 12:53:14.090 -0400,11703.171279625,0.51519775390625,0.2917327880859375,-1.241729736328125,1,0.95
2020-05-16 12:53:14.160 -0400,11703.241125625,0.343719482421875,0.2991943359375,-0.9944610595703125,1,0.95
2020-05-16 12:53:14.230 -0400,11703.310968625,0.343292236328125,-0.2912445068359375,-1.005783081054688,1,0.95
2020-05-16 12:53:14.300 -0400,11703.380812625,-0.092864990234375,0.1317291259765625,0.031463623046875,1,0.95
2020-05-16 12:53:14.370 -0400,11703.450653625,-0.1400299072265625,0.5892486572265625,-0.1256256103515625,1,0.95
2020-05-16 12:53:14.440 -0400,11703.520500625,-0.227691650390625,0.5143890380859375,-0.269287109375,1,0.95
2020-05-16 12:53:14.509 -0400,11703.590346625,-0.043182373046875,1.52667236328125,0.235137939453125,1,0.95
2020-05-16 12:53:14.579 -0400,11703.660191625,0.298797607421875,1.355850219726562,0.0878143310546875,1,0.95
2020-05-16 12:53:14.649 -0400,11703.730031625,0.6277618408203125,1.350784301757812,0.163665771484375,1,0.95
2020-05-16 12:53:14.719 -0400,11703.799872625,0.3760833740234375,0.8749542236328125,0.3843994140625,1,0.95
2020-05-16 12:53:14.789 -0400,11703.869712625,0.0708465576171875,0.7442779541015625,0.17901611328125,1,0.95
2020-05-16 12:53:14.859 -0400,11703.939553625,0.3225860595703125,0.6107940673828125,0.2009124755859375,1,0.95
2020-05-16 12:53:14.928 -0400,11704.009394625,0.488494873046875,0.237884521484375,-0.10015869140625,1,0.95
2020-05-16 12:53:14.998 -0400,11704.079233625,0.52996826171875,1.317642211914062,-0.0192108154296875,1,0.95
2020-05-16 12:53:15.068 -0400,11704.149075125,0.950531005859375,1.389083862304688,0.1554107666015625,1,0.95
2020-05-16 12:53:15.138 -0400,11704.218918125,0.5592803955078125,1.0120849609375,0.222625732421875,1,0.95
2020-05-16 12:53:15.208 -0400,11704.288762125,1.033828735351562,0.669281005859375,0.15728759765625,1,0.95
2020-05-16 12:53:15.278 -0400,11704.358612125,0.529052734375,0.71856689453125,0.124908447265625,1,0.95
2020-05-16 12:53:15.348 -0400,11704.428461125,0.2208099365234375,0.4986419677734375,-0.0341339111328125,1,0.95
2020-05-16 12:53:15.417 -0400,11704.498308125,-0.0357513427734375,0.3025970458984375,0.079559326171875,1,0.95
2020-05-16 12:53:15.487 -0400,11704.568154125,0.18499755859375,1.0855712890625,0.222320556640625,1,0.95
2020-05-16 12:53:15.557 -0400,11704.638004125,0.5615692138671875,1.268585205078125,-0.2660980224609375,1,0.95
2020-05-16 12:53:15.627 -0400,11704.707847125,0.4802703857421875,1.813934326171875,-0.0469512939453125,1,0.95
2020-05-16 12:53:15.697 -0400,11704.777687125,0.9102630615234375,1.368927001953125,-0.1732635498046875,1,0.95
2020-05-16 12:53:15.767 -0400,11704.847530125,0.59454345703125,0.352935791015625,-0.1976470947265625,1,0.95
2020-05-16 12:53:15.837 -0400,11704.917373125,0.067413330078125,0.1827239990234375,-0.1771087646484375,1,0.95
2020-05-16 12:53:15.906 -0400,11704.987217125,0.1171417236328125,0.7564849853515625,0.0411224365234375,1,0.95
2020-05-16 12:53:15.976 -0400,11705.057061125,0.3078460693359375,1.213851928710938,0.431488037109375,1,0.95
2020-05-16 12:53:16.046 -0400,11705.12690429167,0.414886474609375,1.219619750976562,0.358123779296875,1,0.95
2020-05-16 12:53:16.116 -0400,11705.19674529167,0.575469970703125,0.86456298828125,0.49188232421875,1,0.95
2020-05-16 12:53:16.186 -0400,11705.26659229167,0.78753662109375,1.282730102539062,-0.3008880615234375,1,0.95
2020-05-16 12:53:16.263 -0400,11705.33643629167,0.54681396484375,0.92364501953125,-0.2212371826171875,1,0.95
2020-05-16 12:53:16.325 -0400,11705.40628029167,0.2126312255859375,0.6222686767578125,0.159942626953125,1,0.95
2020-05-16 12:53:16.395 -0400,11705.47612229167,0.00177001953125,0.5986175537109375,0.1572265625,1,0.95
2020-05-16 12:53:16.465 -0400,11705.54596329167,0.03448486328125,0.7320556640625,0.483856201171875,1,0.95
2020-05-16 12:53:16.535 -0400,11705.61580729167,0.1898956298828125,1.026748657226562,0.1803131103515625,1,0.95
2020-05-16 12:53:16.605 -0400,11705.68565129167,0.2590179443359375,1.197189331054688,0.018096923828125,1,0.95
2020-05-16 12:53:16.675 -0400,11705.75549829167,0.4492340087890625,1.481124877929688,3.0517578125e-05,1,0.95
2020-05-16 12:53:16.744 -0400,11705.82534429167,0.7703094482421875,1.414901733398438,0.7335662841796875,1,0.95
2020-05-16 12:53:16.814 -0400,11705.89519029167,0.35552978515625,0.8835906982421875,0.3486785888671875,1,0.95
2020-05-16 12:53:16.884 -0400,11705.96503329167,0.0381011962890625,0.188751220703125,-0.3749847412109375,1,0.95
2020-05-16 12:53:16.954 -0400,11706.03488029167,0.093048095703125,0.3541412353515625,0.21209716796875,1,0.95
2020-05-16 12:53:17.024 -0400,11706.1047235,0.6066131591796875,0.960174560546875,0.488616943359375,1,0.95
2020-05-16 12:53:17.094 -0400,11706.1745665,0.9545745849609375,1.414535522460938,0.1531524658203125,1,0.95
2020-05-16 12:53:17.164 -0400,11706.2444085,0.5357818603515625,1.393478393554688,-0.026824951171875,1,0.95
2020-05-16 12:53:17.233 -0400,11706.3142505,0.7014312744140625,1.193817138671875,0.08062744140625,1,0.95
2020-05-16 12:53:17.303 -0400,11706.3840925,0.3774871826171875,0.728179931640625,-0.048004150390625,1,0.95
2020-05-16 12:53:17.373 -0400,11706.4539355,0.0752105712890625,0.428985595703125,-0.1903076171875,1,0.95
2020-05-16 12:53:17.443 -0400,11706.5237745,0.061309814453125,0.469879150390625,-0.159637451171875,1,0.95
2020-05-16 12:53:17.513 -0400,11706.5936145,0.0962066650390625,0.8063507080078125,-0.031707763671875,1,0.95
2020-05-16 12:53:17.582 -0400,11706.6634575,0.1396026611328125,1.3642578125,0.5195159912109375,1,0.95
2020-05-16 12:53:17.652 -0400,11706.7332975,0.2362823486328125,1.261032104492188,-0.188568115234375,1,0.95
2020-05-16 12:53:17.722 -0400,11706.8031395,0.845062255859375,2.0721435546875,-0.2544403076171875,1,0.95
2020-05-16 12:53:17.792 -0400,11706.8729845,0.746612548828125,1.550949096679688,-0.018402099609375,1,0.95
2020-05-16 12:53:17.862 -0400,11706.9428305,0.201873779296875,0.4407196044921875,-0.251190185546875,1,0.95
2020-05-16 12:53:17.932 -0400,11707.0126735,0.112396240234375,0.425201416015625,-0.127471923828125,1,0.95
2020-05-16 12:53:18.002 -0400,11707.0825145,-0.0090484619140625,-0.072235107421875,-0.203277587890625,1,0.95
2020-05-16 12:53:18.072 -0400,11707.15235754167,0.0970916748046875,0.833526611328125,1.051834106445312,1,0.95
2020-05-16 12:53:18.141 -0400,11707.22220354167,0.0930938720703125,0.970733642578125,-0.4333038330078125,1,0.95
2020-05-16 12:53:18.211 -0400,11707.29204954167,0.6261749267578125,1.14093017578125,0.4439544677734375,1,0.95
2020-05-16 12:53:18.281 -0400,11707.36189354167,1.068374633789062,0.8966064453125,0.0346527099609375,1,0.95
2020-05-16 12:53:18.351 -0400,11707.43173754167,0.4747161865234375,1.914306640625,0.484283447265625,1,0.95
2020-05-16 12:53:18.421 -0400,11707.50157954167,-0.130615234375,1.226791381835938,0.561798095703125,1,0.95
2020-05-16 12:53:18.490 -0400,11707.57142154167,-0.3460845947265625,0.632904052734375,0.4278106689453125,1,0.95
2020-05-16 12:53:18.560 -0400,11707.64126254167,-0.19525146484375,0.58160400390625,0.0714874267578125,1,0.95
2020-05-16 12:53:18.630 -0400,11707.71110454167,0.644317626953125,1.925323486328125,-0.1229095458984375,1,0.95
2020-05-16 12:53:18.700 -0400,11707.78094554167,1.57379150390625,0.668670654296875,-0.7083282470703125,1,0.95
2020-05-16 12:53:18.770 -0400,11707.85078654167,0.8145294189453125,0.512786865234375,-0.7777252197265625,1,0.95
2020-05-16 12:53:18.840 -0400,11707.92062554167,0.14910888671875,-0.0724029541015625,-0.1948089599609375,1,0.95
2020-05-16 12:53:18.910 -0400,11707.99046354167,0.11907958984375,-1.804306030273438,-0.4341278076171875,1,0.95
2020-05-16 12:53:18.979 -0400,11708.06030154167,0.72564697265625,0.3792877197265625,-0.659515380859375,1,0.95
2020-05-16 12:53:19.049 -0400,11708.1301365,0.8894195556640625,0.588775634765625,-0.7242889404296875,1,0.95
2020-05-16 12:53:19.119 -0400,11708.1999735,0.7595062255859375,0.5682373046875,-0.704864501953125,1,0.95
2020-05-16 12:53:19.189 -0400,11708.2698105,0.4223175048828125,1.4586181640625,-0.4700927734375,1,0.95
2020-05-16 12:53:19.262 -0400,11708.3396505,0.3921051025390625,1.101211547851562,-0.1591033935546875,1,0.95
2020-05-16 12:53:19.329 -0400,11708.4094885,-0.56298828125,0.6297149658203125,-0.1402435302734375,1,0.95
2020-05-16 12:53:19.398 -0400,11708.4793255,-0.3848724365234375,0.5960540771484375,-0.136474609375,1,0.95
2020-05-16 12:53:19.469 -0400,11708.5491675,0.03656005859375,0.2541656494140625,-0.642120361328125,1,0.95
2020-05-16 12:53:19.538 -0400,11708.6190125,0.2777252197265625,0.9871673583984375,-0.2219696044921875,1,0.95
2020-05-16 12:53:19.608 -0400,11708.6888575,0.690338134765625,1.463790893554688,-0.7576751708984375,1,0.95
2020-05-16 12:53:19.678 -0400,11708.7587015,0.60369873046875,1.040252685546875,-0.7510986328125,1,0.95
2020-05-16 12:53:19.748 -0400,11708.8285455,0.68743896484375,1.340164184570312,0.274627685546875,1,0.95
2020-05-16 12:53:19.817 -0400,11708.8983915,0.1951446533203125,1.0208740234375,0.1815185546875,1,0.95
2020-05-16 12:53:19.888 -0400,11708.9682335,0.1219635009765625,0.06903076171875,-0.00750732421875,1,0.95
2020-05-16 12:53:19.957 -0400,11709.0380725,0.2390289306640625,-0.0236053466796875,-0.3638916015625,1,0.95
2020-05-16 12:53:20.027 -0400,11709.10790891667,0.78826904296875,-0.3692474365234375,-0.8457183837890625,1,0.95
2020-05-16 12:53:20.097 -0400,11709.17774591667,1.2742919921875,0.416015625,-1.223678588867188,1,0.95
2020-05-16 12:53:20.167 -0400,11709.24757791667,1.058731079101562,0.575286865234375,-1.03887939453125,1,0.95
2020-05-16 12:53:20.237 -0400,11709.31741591667,1.290985107421875,0.7866973876953125,-0.9871978759765625,1,0.95
2020-05-16 12:53:20.306 -0400,11709.38725991667,0.302154541015625,0.2297515869140625,-0.600677490234375,1,0.95
2020-05-16 12:53:20.376 -0400,11709.45710291667,-0.1339263916015625,0.316497802734375,-0.26226806640625,1,0.95
2020-05-16 12:53:20.446 -0400,11709.52695091667,0.0758819580078125,-0.013763427734375,-0.3506011962890625,1,0.95
2020-05-16 12:53:20.516 -0400,11709.59679691667,0.3306121826171875,0.407745361328125,-1.264190673828125,1,0.95
2020-05-16 12:53:20.586 -0400,11709.66664491667,0.4134979248046875,0.4876708984375,-1.3167724609375,1,0.95
2020-05-16 12:53:20.655 -0400,11709.73648991667,0.366851806640625,0.920501708984375,-1.442047119140625,1,0.95
2020-05-16 12:53:20.725 -0400,11709.80633491667,0.5611572265625,0.653533935546875,-0.943603515625,1,0.95
2020-05-16 12:53:20.795 -0400,11709.87618391667,0.4346466064453125,0.1807098388671875,-0.747100830078125,1,0.95
2020-05-16 12:53:20.865 -0400,11709.94603591667,0.316070556640625,-0.2513275146484375,-0.3518524169921875,1,0.95
2020-05-16 12:53:20.935 -0400,11710.01588491667,0.36090087890625,0.119354248046875,-0.490203857421875,1,0.95
2020-05-16 12:53:21.005 -0400,11710.08573191667,0.363311767578125,0.2779693603515625,-0.19354248046875,1,0.95
2020-05-16 12:53:21.075 -0400,11710.155574125,0.19329833984375,2.513275146484375,0.11199951171875,1,0.95
2020-05-16 12:53:21.144 -0400,11710.225420125,0.046234130859375,1.458709716796875,0.23553466796875,1,0.95
2020-05-16 12:53:21.214 -0400,11710.295266125,0.6790313720703125,0.960601806640625,-0.394744873046875,1,0.95
2020-05-16 12:53:21.284 -0400,11710.365114125,0.7048492431640625,1.092041015625,-0.6639862060546875,1,0.95
2020-05-16 12:53:21.354 -0400,11710.434965125,-0.125335693359375,0.41558837890625,-0.198974609375,1,0.95
2020-05-16 12:53:21.424 -0400,11710.504816125,-0.2877197265625,0.0968017578125,-0.08758544921875,1,0.95
2020-05-16 12:53:21.494 -0400,11710.574667125,0.0712738037109375,0.290008544921875,-0.288543701171875,1,0.95
2020-05-16 12:53:21.564 -0400,11710.644516125,0.5751190185546875,1.35870361328125,-0.7908172607421875,1,0.95
2020-05-16 12:53:21.633 -0400,11710.714366125,0.513702392578125,0.9517822265625,-1.52362060546875,1,0.95
2020-05-16 12:53:21.703 -0400,11710.784218125,0.4297637939453125,1.476760864257812,-0.807464599609375,1,0.95
2020-05-16 12:53:21.773 -0400,11710.854071125,0.616790771484375,0.6880645751953125,-0.98382568359375,1,0.95
2020-05-16 12:53:21.843 -0400,11710.923921125,0.6512451171875,0.105133056640625,-0.6236724853515625,1,0.95
2020-05-16 12:53:21.913 -0400,11710.993770125,0.0713958740234375,0.016571044921875,-0.598419189453125,1,0.95
2020-05-16 12:53:21.983 -0400,11711.063620125,0.0430755615234375,-0.1329193115234375,-0.2888336181640625,1,0.95
2020-05-16 12:53:22.053 -0400,11711.133475625,0.115692138671875,0.300384521484375,-0.684906005859375,1,0.95
2020-05-16 12:53:22.123 -0400,11711.203329625,0.67486572265625,0.428558349609375,-1.062713623046875,1,0.95
2020-05-16 12:53:22.192 -0400,11711.273184625,0.803497314453125,0.4246978759765625,-1.457962036132812,1,0.95
2020-05-16 12:53:22.262 -0400,11711.343033625,0.648651123046875,0.63421630859375,-1.554061889648438,1,0.95
2020-05-16 12:53:22.332 -0400,11711.412882625,0.4267730712890625,0.294219970703125,-0.979583740234375,1,0.95
2020-05-16 12:53:22.402 -0400,11711.482733625,-0.0845794677734375,-0.009033203125,-0.381683349609375,1,0.95
2020-05-16 12:53:22.472 -0400,11711.552584625,-0.252899169921875,-0.0815277099609375,-0.46136474609375,1,0.95
2020-05-16 12:53:22.542 -0400,11711.622441625,-0.2065582275390625,0.0279693603515625,-0.5167236328125,1,0.95
2020-05-16 12:53:22.611 -0400,11711.692293625,0.2254638671875,0.038970947265625,-0.821380615234375,1,0.95
2020-05-16 12:53:22.681 -0400,11711.762145625,0.5024871826171875,1.306442260742188,-0.647308349609375,1,0.95
2020-05-16 12:53:22.751 -0400,11711.831994625,0.68487548828125,1.843231201171875,-0.73760986328125,1,0.95
2020-05-16 12:53:22.821 -0400,11711.901849625,0.54486083984375,1.316192626953125,-0.5383148193359375,1,0.95
2020-05-16 12:53:22.891 -0400,11711.971699625,0.13787841796875,0.4692535400390625,-0.4767608642578125,1,0.95
2020-05-16 12:53:22.961 -0400,11712.041546625,-0.086578369140625,0.1950836181640625,-0.481903076171875,1,0.95
2020-05-16 12:53:23.030 -0400,11712.11139675,-0.0678558349609375,0.197906494140625,-0.3866119384765625,1,0.95
2020-05-16 12:53:23.100 -0400,11712.18124575,0.036712646484375,0.7633514404296875,-0.272552490234375,1,0.95
2020-05-16 12:53:23.170 -0400,11712.25108875,0.247039794921875,1.458297729492188,-0.101715087890625,1,0.95
2020-05-16 12:53:23.240 -0400,11712.32093975,0.352783203125,1.303695678710938,-0.146759033203125,1,0.95
2020-05-16 12:53:23.310 -0400,11712.39078675,0.520111083984375,1.567092895507812,0.0621795654296875,1,0.95
2020-05-16 12:53:23.380 -0400,11712.46062975,0.1158599853515625,0.6990814208984375,0.155548095703125,1,0.95
2020-05-16 12:53:23.450 -0400,11712.53047475,-0.1802520751953125,0.1595001220703125,-0.040924072265625,1,0.95
2020-05-16 12:53:23.519 -0400,11712.60031675,-0.0897064208984375,0.679840087890625,-0.37237548828125,1,0.95
2020-05-16 12:53:23.589 -0400,11712.67016675,-0.047515869140625,1.00909423828125,-0.144683837890625,1,0.95
2020-05-16 12:53:23.659 -0400,11712.74001675,0.027557373046875,1.2330322265625,0.111083984375,1,0.95
2020-05-16 12:53:23.729 -0400,11712.80986575,-0.0061798095703125,1.240310668945312,0.1987762451171875,1,0.95
2020-05-16 12:53:23.799 -0400,11712.87971175,0.10943603515625,1.468612670898438,0.2445068359375,1,0.95
2020-05-16 12:53:23.869 -0400,11712.94956275,0.091888427734375,1.23150634765625,0.6443634033203125,1,0.95
2020-05-16 12:53:23.938 -0400,11713.01941075,0.147247314453125,0.4401092529296875,-0.0918731689453125,1,0.95
2020-05-16 12:53:24.008 -0400,11713.08926075,0.0029296875,0.49041748046875,-0.626678466796875,1,0.95
2020-05-16 12:53:24.078 -0400,11713.15911366667,0.0546875,0.774078369140625,-0.2613372802734375,1,0.95
2020-05-16 12:53:24.148 -0400,11713.22896466667,0.4728851318359375,1.149200439453125,0.34283447265625,1,0.95
2020-05-16 12:53:24.218 -0400,11713.29881466667,0.5540924072265625,1.0689697265625,-0.0171356201171875,1,0.95
2020-05-16 12:53:24.288 -0400,11713.36866466667,0.559783935546875,0.75506591796875,-0.045440673828125,1,0.95
2020-05-16 12:53:24.358 -0400,11713.43851366667,1.211578369140625,0.9279937744140625,-0.174774169921875,1,0.95
2020-05-16 12:53:24.427 -0400,11713.50836466667,0.633514404296875,0.7248382568359375,-0.3237457275390625,1,0.95
2020-05-16 12:53:24.497 -0400,11713.57821566667,0.336944580078125,0.7400360107421875,-0.3667144775390625,1,0.95
2020-05-16 12:53:24.575 -0400,11713.64313066667,0.152130126953125,1.111968994140625,-0.025543212890625,1,0.95
2020-05-16 12:53:24.627 -0400,11713.70810566667,-0.2337493896484375,1.435211181640625,-0.089080810546875,1,0.95
2020-05-16 12:53:24.693 -0400,11713.77308066667,-0.2215118408203125,1.08001708984375,-0.52008056640625,1,0.95
2020-05-16 12:53:24.759 -0400,11713.83805666667,0.6618194580078125,1.144927978515625,0.2332305908203125,1,0.95
2020-05-16 12:53:24.843 -0400,11713.90303166667,1.281082153320312,1.220367431640625,-0.5554351806640625,1,0.95
2020-05-16 12:53:24.888 -0400,11713.96800666667,0.4768218994140625,0.8750762939453125,-0.2182769775390625,1,0.95
2020-05-16 12:53:24.953 -0400,11714.03298266667,0.0393218994140625,0.522705078125,0.05291748046875,1,0.95
2020-05-16 12:53:25.017 -0400,11714.09795766667,0.03338623046875,0.2552032470703125,0.054473876953125,1,0.95
2020-05-16 12:53:25.082 -0400,11714.16293204167,0.2192535400390625,0.3004608154296875,-0.3099517822265625,1,0.95
2020-05-16 12:53:25.147 -0400,11714.22790804167,0.6973114013671875,1.3643798828125,-0.081451416015625,1,0.95
2020-05-16 12:53:25.212 -0400,11714.29288304167,0.9608612060546875,1.266876220703125,-0.3574676513671875,1,0.95
2020-05-16 12:53:25.277 -0400,11714.35785904167,1.00384521484375,1.211959838867188,-0.2030792236328125,1,0.95
2020-05-16 12:53:25.351 -0400,11714.42283404167,0.921600341796875,0.635406494140625,-0.2244873046875,1,0.95
2020-05-16 12:53:25.407 -0400,11714.48780904167,0.3383331298828125,0.289581298828125,-0.1027374267578125,1,0.95
2020-05-16 12:53:25.472 -0400,11714.55278504167,0.0206146240234375,0.36773681640625,-0.1043853759765625,1,0.95
2020-05-16 12:53:25.537 -0400,11714.61776004167,-0.002899169921875,0.4660797119140625,-0.2520904541015625,1,0.95
2020-05-16 12:53:25.602 -0400,11714.68273604167,0.1752166748046875,0.942291259765625,-0.1306610107421875,1,0.95
2020-05-16 12:53:25.667 -0400,11714.74771104167,0.571807861328125,1.536087036132812,0.0422515869140625,1,0.95
2020-05-16 12:53:25.732 -0400,11714.81268704167,0.530242919921875,1.546737670898438,-0.072021484375,1,0.95
2020-05-16 12:53:25.797 -0400,11714.87766204167,0.9560546875,1.216888427734375,-0.0423736572265625,1,0.95
2020-05-16 12:53:25.862 -0400,11714.94263704167,0.8778533935546875,1.019882202148438,-0.0380706787109375,1,0.95
2020-05-16 12:53:25.927 -0400,11715.00761304167,0.3769989013671875,0.619171142578125,-0.200286865234375,1,0.95
2020-05-16 12:53:25.992 -0400,11715.07258804167,0.25640869140625,0.1683502197265625,-0.3253173828125,1,0.95
2020-05-16 12:53:26.057 -0400,11715.13756425,0.29888916015625,0.16217041015625,-0.255126953125,1,0.95
2020-05-16 12:53:26.122 -0400,11715.20253925,0.8413543701171875,0.38427734375,-0.173797607421875,1,0.95
2020-05-16 12:53:26.187 -0400,11715.26751425,0.958038330078125,0.27166748046875,-0.1010589599609375,1,0.95
2020-05-16 12:53:26.252 -0400,11715.33249025,1.386123657226562,0.591705322265625,-0.0906219482421875,1,0.95
2020-05-16 12:53:26.317 -0400,11715.39746525,1.582687377929688,0.8204803466796875,-0.4590606689453125,1,0.95
2020-05-16 12:53:26.382 -0400,11715.46244125,1.173187255859375,0.3534698486328125,-0.4099884033203125,1,0.95
2020-05-16 12:53:26.447 -0400,11715.52741625,0.5465087890625,0.27227783203125,-0.4858856201171875,1,0.95
2020-05-16 12:53:26.512 -0400,11715.59239225,0.2242889404296875,0.48760986328125,-0.339080810546875,1,0.95
2020-05-16 12:53:26.576 -0400,11715.65736725,0.2892303466796875,0.589813232421875,-0.27020263671875,1,0.95
2020-05-16 12:53:26.642 -0400,11715.72234325,0.9472198486328125,0.8065032958984375,-0.3033447265625,1,0.95
2020-05-16 12:53:26.706 -0400,11715.78731825,1.211959838867188,0.7133026123046875,-0.308319091796875,1,0.95
2020-05-16 12:53:26.772 -0400,11715.85229325,1.57421875,0.8462371826171875,-0.3772430419921875,1,0.95
2020-05-16 12:53:26.836 -0400,11715.91726925,1.7801513671875,0.59490966796875,-0.2174530029296875,1,0.95
2020-05-16 12:53:26.902 -0400,11715.98224425,0.9833221435546875,0.4565582275390625,-0.33172607421875,1,0.95
2020-05-16 12:53:26.966 -0400,11716.04722025,0.5234832763671875,0.264190673828125,-0.4208221435546875,1,0.95
2020-05-16 12:53:27.031 -0400,11716.1121955,0.7046966552734375,0.1970977783203125,-0.2974395751953125,1,0.95
2020-05-16 12:53:27.096 -0400,11716.1771715,0.81072998046875,0.32080078125,-0.1447906494140625,1,0.95
2020-05-16 12:53:27.161 -0400,11716.2421465,0.7910614013671875,0.35723876953125,-0.0237274169921875,1,0.95
2020-05-16 12:53:27.226 -0400,11716.3071225,0.7801513671875,0.372589111328125,-0.04119873046875,1,0.95
2020-05-16 12:53:27.291 -0400,11716.3720975,0.939239501953125,0.5414581298828125,-0.3007354736328125,1,0.95
2020-05-16 12:53:27.356 -0400,11716.4370735,1.460647583007812,0.493682861328125,-0.4352264404296875,1,0.95
2020-05-16 12:53:27.421 -0400,11716.5020485,0.8738555908203125,0.4218902587890625,-0.383880615234375,1,0.95
2020-05-16 12:53:27.486 -0400,11716.5670235,0.5753021240234375,0.461181640625,-0.3491668701171875,1,0.95
2020-05-16 12:53:27.551 -0400,11716.6319995,0.8257598876953125,0.67681884765625,-0.3183746337890625,1,0.95
2020-05-16 12:53:27.616 -0400,11716.6969745,1.179611206054688,0.7046356201171875,-0.530364990234375,1,0.95
2020-05-16 12:53:27.681 -0400,11716.7619505,1.219711303710938,0.703033447265625,-0.5053253173828125,1,0.95
2020-05-16 12:53:27.746 -0400,11716.8269255,1.133407592773438,0.778594970703125,-0.492645263671875,1,0.95
2020-05-16 12:53:27.811 -0400,11716.8919015,1.428436279296875,0.6978302001953125,-0.3888397216796875,1,0.95
2020-05-16 12:53:27.876 -0400,11716.9568765,1.322525024414062,0.3607025146484375,-0.2900238037109375,1,0.95
2020-05-16 12:53:27.941 -0400,11717.0218525,0.6566314697265625,0.244903564453125,-0.2864837646484375,1,0.95
2020-05-16 12:53:28.006 -0400,11717.0868275,0.641632080078125,0.3399658203125,-0.2009429931640625,1,0.95
2020-05-16 12:53:28.071 -0400,11717.15180266667,0.8226165771484375,0.375640869140625,-0.0593719482421875,1,0.95
2020-05-16 12:53:28.136 -0400,11717.21677866667,1.052276611328125,0.3128662109375,-0.0173492431640625,1,0.95
2020-05-16 12:53:28.201 -0400,11717.28175366667,0.7267913818359375,0.3070526123046875,-0.076202392578125,1,0.95
2020-05-16 12:53:28.266 -0400,11717.34672966667,0.8807373046875,0.3568878173828125,-0.053802490234375,1,0.95
2020-05-16 12:53:28.331 -0400,11717.41170466667,1.083953857421875,0.4105682373046875,-0.251220703125,1,0.95
2020-05-16 12:53:28.396 -0400,11717.47668066667,1.152984619140625,0.5331573486328125,-0.3505859375,1,0.95
2020-05-16 12:53:28.461 -0400,11717.54165566667,0.6150970458984375,0.3743896484375,-0.2758636474609375,1,0.95
2020-05-16 12:53:28.526 -0400,11717.60663166667,0.69439697265625,0.534912109375,-0.3615264892578125,1,0.95
2020-05-16 12:53:28.591 -0400,11717.67160666667,1.121124267578125,0.7353057861328125,-0.504364013671875,1,0.95
2020-05-16 12:53:28.656 -0400,11717.73658266667,1.135894775390625,0.5970306396484375,-0.5888671875,1,0.95
2020-05-16 12:53:28.721 -0400,11717.80155766667,1.317291259765625,0.6181793212890625,-0.624237060546875,1,0.95
2020-05-16 12:53:28.786 -0400,11717.86653266667,1.6575927734375,0.8727569580078125,-0.6195220947265625,1,0.95
2020-05-16 12:53:28.851 -0400,11717.93150866667,1.685592651367188,0.2817230224609375,-0.2684478759765625,1,0.95
2020-05-16 12:53:28.916 -0400,11717.99648366667,0.85577392578125,0.3073883056640625,-0.271331787109375,1,0.95
2020-05-16 12:53:28.981 -0400,11718.06145966667,0.66680908203125,0.3857879638671875,-0.2027587890625,1,0.95
2020-05-16 12:53:29.046 -0400,11718.12643441667,0.924407958984375,0.2943267822265625,-0.083831787109375,1,0.95
2020-05-16 12:53:29.111 -0400,11718.19141041667,1.041656494140625,0.279754638671875,0.01934814453125,1,0.95
2020-05-16 12:53:29.176 -0400,11718.25638541667,0.70977783203125,0.3302459716796875,0.0128173828125,1,0.95
2020-05-16 12:53:29.241 -0400,11718.32136141667,0.7193145751953125,0.3612213134765625,0.0420074462890625,1,0.95
2020-05-16 12:53:29.306 -0400,11718.38633641667,1.064407348632812,0.463714599609375,-0.2181549072265625,1,0.95
2020-05-16 12:53:29.371 -0400,11718.45131141667,1.38751220703125,0.406585693359375,-0.5103912353515625,1,0.95
2020-05-16 12:53:29.435 -0400,11718.51628741667,0.845245361328125,0.2323150634765625,-0.307586669921875,1,0.95
2020-05-16 12:53:29.501 -0400,11718.58126241667,0.7685394287109375,0.6115570068359375,-0.36309814453125,1,0.95
2020-05-16 12:53:29.565 -0400,11718.64623841667,1.00433349609375,0.672821044921875,-0.451873779296875,1,0.95
2020-05-16 12:53:29.630 -0400,11718.71121341667,1.15350341796875,0.6743011474609375,-0.5361785888671875,1,0.95
2020-05-16 12:53:29.695 -0400,11718.77618941667,1.561965942382812,0.8141632080078125,-0.533111572265625,1,0.95
2020-05-16 12:53:29.761 -0400,11718.84116441667,1.36798095703125,0.7058258056640625,-0.5290069580078125,1,0.95
2020-05-16 12:53:29.825 -0400,11718.90614041667,1.5382080078125,0.519256591796875,-0.36090087890625,1,0.95
2020-05-16 12:53:29.890 -0400,11718.97111541667,1.110122680664062,0.280426025390625,-0.23590087890625,1,0.95
2020-05-16 12:53:29.955 -0400,11719.03609141667,0.737884521484375,0.3261871337890625,-0.1774139404296875,1,0.95
2020-05-16 12:53:30.021 -0400,11719.10106641667,0.8249664306640625,0.306304931640625,-0.0804443359375,1,0.95
2020-05-16 12:53:30.085 -0400,11719.16604175,1.176101684570312,0.30206298828125,-0.0356292724609375,1,0.95
2020-05-16 12:53:30.150 -0400,11719.23101775,1.0316162109375,0.2243804931640625,0.0398712158203125,1,0.95
2020-05-16 12:53:30.215 -0400,11719.29599275,0.776153564453125,0.3326568603515625,0.01361083984375,1,0.95
2020-05-16 12:53:30.280 -0400,11719.36096875,0.755462646484375,0.362640380859375,-0.1003875732421875,1,0.95
2020-05-16 12:53:30.345 -0400,11719.42594375,1.280029296875,0.4740753173828125,-0.341522216796875,1,0.95
2020-05-16 12:53:30.410 -0400,11719.49091975,0.9053192138671875,0.263916015625,-0.325592041015625,1,0.95
2020-05-16 12:53:30.475 -0400,11719.55589475,0.650238037109375,0.4740753173828125,-0.2881622314453125,1,0.95
2020-05-16 12:53:30.540 -0400,11719.62087075,0.980377197265625,0.67340087890625,-0.32379150390625,1,0.95
2020-05-16 12:53:30.605 -0400,11719.68584575,1.342514038085938,0.6566162109375,-0.53643798828125,1,0.95
2020-05-16 12:53:30.670 -0400,11719.75082075,1.176101684570312,0.501129150390625,-0.6988372802734375,1,0.95
2020-05-16 12:53:30.735 -0400,11719.81579675,1.124053955078125,0.5268096923828125,-0.80242919921875,1,0.95
2020-05-16 12:53:30.800 -0400,11719.88077175,1.673751831054688,0.7521209716796875,-0.6566009521484375,1,0.95
2020-05-16 12:53:30.865 -0400,11719.94574775,1.790740966796875,0.3432159423828125,-0.341094970703125,1,0.95
2020-05-16 12:53:30.930 -0400,11720.01072275,1.012405395507812,0.3688201904296875,-0.1663055419921875,1,0.95
2020-05-16 12:53:30.995 -0400,11720.07569875,0.7989654541015625,0.4052276611328125,-0.1687469482421875,1,0.95
2020-05-16 12:53:31.060 -0400,11720.1406735,1.1026611328125,0.2532196044921875,-0.0600433349609375,1,0.95
2020-05-16 12:53:31.125 -0400,11720.2056495,1.028961181640625,0.2205047607421875,0.013153076171875,1,0.95
2020-05-16 12:53:31.193 -0400,11720.2706245,0.5654449462890625,0.2511444091796875,-0.011962890625,1,0.95
2020-05-16 12:53:31.255 -0400,11720.3356005,0.4858551025390625,0.2091827392578125,0.0461883544921875,1,0.95
2020-05-16 12:53:31.320 -0400,11720.4005755,0.96429443359375,0.5345611572265625,-0.25689697265625,1,0.95
2020-05-16 12:53:31.385 -0400,11720.4655505,1.354339599609375,0.298736572265625,-0.61004638671875,1,0.95
2020-05-16 12:53:31.450 -0400,11720.5305265,0.8278350830078125,0.344940185546875,-0.4712371826171875,1,0.95
2020-05-16 12:53:31.515 -0400,11720.5955015,0.744415283203125,0.6307525634765625,-0.3641357421875,1,0.95
2020-05-16 12:53:31.580 -0400,11720.6604775,1.043792724609375,0.752960205078125,-0.4548187255859375,1,0.95
2020-05-16 12:53:31.645 -0400,11720.7254525,1.107070922851562,0.734100341796875,-0.5023345947265625,1,0.95
2020-05-16 12:53:31.710 -0400,11720.7904285,1.317642211914062,0.8468170166015625,-0.423309326171875,1,0.95
2020-05-16 12:53:31.775 -0400,11720.8554035,1.35980224609375,0.7518463134765625,-0.4040679931640625,1,0.95
2020-05-16 12:53:31.840 -0400,11720.9203795,1.555419921875,0.5120849609375,-0.3521728515625,1,0.95
2020-05-16 12:53:31.905 -0400,11720.9853545,1.016265869140625,0.340057373046875,-0.4421844482421875,1,0.95
2020-05-16 12:53:31.970 -0400,11721.0503305,0.58087158203125,0.15618896484375,-0.5738067626953125,1,0.95
2020-05-16 12:53:32.034 -0400,11721.115305625,0.6492462158203125,0.220550537109375,-0.361907958984375,1,0.95
2020-05-16 12:53:32.100 -0400,11721.180280625,1.029220581054688,0.4609527587890625,-0.118072509765625,1,0.95
2020-05-16 12:53:32.164 -0400,11721.245256625,1.15155029296875,0.4243316650390625,0.0192108154296875,1,0.95
2020-05-16 12:53:32.230 -0400,11721.310231625,1.131591796875,0.345306396484375,-0.143524169921875,1,0.95
2020-05-16 12:53:32.294 -0400,11721.375207625,0.744873046875,0.1688995361328125,-0.1458892822265625,1,0.95
2020-05-16 12:53:32.360 -0400,11721.440182625,0.998931884765625,0.376678466796875,-0.2443389892578125,1,0.95
2020-05-16 12:53:32.424 -0400,11721.505158625,0.798065185546875,0.367340087890625,-0.275482177734375,1,0.95
2020-05-16 12:53:32.489 -0400,11721.570133625,0.5911712646484375,0.43841552734375,-0.281585693359375,1,0.95
2020-05-16 12:53:32.554 -0400,11721.635109625,0.8326416015625,0.6967620849609375,-0.2915802001953125,1,0.95
2020-05-16 12:53:32.619 -0400,11721.700084625,1.364578247070312,0.7807159423828125,-0.5427093505859375,1,0.95
2020-05-16 12:53:32.684 -0400,11721.765059625,1.087493896484375,0.645111083984375,-0.739532470703125,1,0.95
2020-05-16 12:53:32.750 -0400,11721.830035625,1.57623291015625,0.95916748046875,-0.6818389892578125,1,0.95
2020-05-16 12:53:32.814 -0400,11721.895010625,1.342636108398438,0.7620086669921875,-0.4969940185546875,1,0.95
2020-05-16 12:53:32.879 -0400,11721.959986625,1.479736328125,0.5188751220703125,-0.29522705078125,1,0.95
2020-05-16 12:53:32.944 -0400,11722.024961625,1.018508911132812,0.2430267333984375,-0.2731475830078125,1,0.95
2020-05-16 12:53:33.009 -0400,11722.089937625,0.7294158935546875,0.2269744873046875,-0.293060302734375,1,0.95
2020-05-16 12:53:33.074 -0400,11722.154912375,0.7012786865234375,0.271148681640625,-0.1377716064453125,1,0.95
2020-05-16 12:53:33.139 -0400,11722.219888375,1.071807861328125,0.454833984375,-0.0977935791015625,1,0.95
2020-05-16 12:53:33.204 -0400,11722.284863375,0.95086669921875,0.332305908203125,0.0409393310546875,1,0.95
2020-05-16 12:53:33.269 -0400,11722.349838375,0.85986328125,0.321624755859375,-0.11090087890625,1,0.95
2020-05-16 12:53:33.334 -0400,11722.414814375,0.7462310791015625,0.2062835693359375,-0.3222198486328125,1,0.95
2020-05-16 12:53:33.399 -0400,11722.479789375,1.259567260742188,0.316253662109375,-0.3609619140625,1,0.95
2020-05-16 12:53:33.464 -0400,11722.544765375,0.936553955078125,0.3145904541015625,-0.27886962890625,1,0.95
2020-05-16 12:53:33.529 -0400,11722.609740375,0.760406494140625,0.6572418212890625,-0.3476409912109375,1,0.95
2020-05-16 12:53:33.594 -0400,11722.674716375,1.046340942382812,0.7871856689453125,-0.34405517578125,1,0.95
2020-05-16 12:53:33.659 -0400,11722.739691375,1.2459716796875,0.5132598876953125,-0.543792724609375,1,0.95
2020-05-16 12:53:33.724 -0400,11722.804667375,1.150588989257812,0.6014556884765625,-0.577056884765625,1,0.95
2020-05-16 12:53:33.789 -0400,11722.869642375,1.054656982421875,0.7931060791015625,-0.7000732421875,1,0.95
2020-05-16 12:53:33.854 -0400,11722.934618375,1.488525390625,0.6627960205078125,-0.526336669921875,1,0.95
2020-05-16 12:53:33.919 -0400,11722.999593375,1.352218627929688,0.2311248779296875,-0.3751220703125,1,0.95
2020-05-16 12:53:33.984 -0400,11723.064569375,0.7973175048828125,0.29876708984375,-0.2999725341796875,1,0.95
2020-05-16 12:53:34.049 -0400,11723.129543125,0.758941650390625,0.3620758056640625,-0.2018890380859375,1,0.95
2020-05-16 12:53:34.114 -0400,11723.194518125,0.9602508544921875,0.3222503662109375,-0.08392333984375,1,0.95
2020-05-16 12:53:34.179 -0400,11723.259494125,1.254425048828125,0.1787872314453125,0.0629730224609375,1,0.95
2020-05-16 12:53:34.244 -0400,11723.324469125,0.933685302734375,0.23394775390625,0.0059051513671875,1,0.95
2020-05-16 12:53:34.309 -0400,11723.389445125,0.617034912109375,0.3302001953125,-0.0503387451171875,1,0.95
2020-05-16 12:53:34.374 -0400,11723.454420125,1.019424438476562,0.5319671630859375,-0.3037872314453125,1,0.95
2020-05-16 12:53:34.439 -0400,11723.519396125,1.040573120117188,0.2933807373046875,-0.4273223876953125,1,0.95
2020-05-16 12:53:34.503 -0400,11723.584371125,0.7608642578125,0.2212066650390625,-0.3252105712890625,1,0.95
2020-05-16 12:53:34.569 -0400,11723.649347125,0.8736419677734375,0.6038818359375,-0.3883514404296875,1,0.95
2020-05-16 12:53:34.633 -0400,11723.714322125,1.240386962890625,0.739532470703125,-0.5925445556640625,1,0.95
2020-05-16 12:53:34.699 -0400,11723.779297125,1.114288330078125,0.38916015625,-0.6222991943359375,1,0.95
2020-05-16 12:53:34.763 -0400,11723.844273125,1.477813720703125,0.6513214111328125,-0.673614501953125,1,0.95
2020-05-16 12:53:34.829 -0400,11723.909248125,1.18072509765625,0.514862060546875,-0.5447235107421875,1,0.95
2020-05-16 12:53:34.893 -0400,11723.974224125,1.481658935546875,0.41094970703125,-0.38531494140625,1,0.95
2020-05-16 12:53:34.959 -0400,11724.039199125,1.088088989257812,0.3346710205078125,-0.2989044189453125,1,0.95
2020-05-16 12:53:35.023 -0400,11724.104175125,0.762359619140625,0.3565673828125,-0.204345703125,1,0.95
2020-05-16 12:53:35.088 -0400,11724.169151375,0.8433837890625,0.3069000244140625,-0.1150054931640625,1,0.95
2020-05-16 12:53:35.153 -0400,11724.234127375,1.008285522460938,0.287109375,-0.0229644775390625,1,0.95
2020-05-16 12:53:35.218 -0400,11724.299102375,0.89093017578125,0.2339324951171875,0.0018310546875,1,0.95
2020-05-16 12:53:35.283 -0400,11724.364077375,0.9745330810546875,0.348419189453125,0.01531982421875,1,0.95
2020-05-16 12:53:35.348 -0400,11724.429053375,0.9945526123046875,0.399017333984375,-0.13226318359375,1,0.95
2020-05-16 12:53:35.413 -0400,11724.494028375,1.307037353515625,0.46307373046875,-0.3308868408203125,1,0.95
2020-05-16 12:53:35.478 -0400,11724.559004375,0.8484954833984375,0.300201416015625,-0.2941436767578125,1,0.95
2020-05-16 12:53:35.543 -0400,11724.623979375,0.7052154541015625,0.4958038330078125,-0.2458038330078125,1,0.95
2020-05-16 12:53:35.608 -0400,11724.688955375,0.99395751953125,0.6195068359375,-0.25946044921875,1,0.95
2020-05-16 12:53:35.673 -0400,11724.753930375,1.264572143554688,0.6291046142578125,-0.47137451171875,1,0.95
2020-05-16 12:53:35.738 -0400,11724.818906375,1.369613647460938,0.6244659423828125,-0.5698089599609375,1,0.95
2020-05-16 12:53:35.803 -0400,11724.883881375,1.119232177734375,0.538970947265625,-0.5652618408203125,1,0.95
2020-05-16 12:53:35.868 -0400,11724.948856375,1.351730346679688,0.5355072021484375,-0.508056640625,1,0.95
2020-05-16 12:53:35.933 -0400,11725.013832375,1.332183837890625,0.3006134033203125,-0.38226318359375,1,0.95
2020-05-16 12:53:35.998 -0400,11725.078807375,0.8293609619140625,0.2944793701171875,-0.2729949951171875,1,0.95
2020-05-16 12:53:36.063 -0400,11725.14378341667,0.757354736328125,0.31231689453125,-0.1598663330078125,1,0.95
2020-05-16 12:53:36.128 -0400,11725.20875841667,0.875274658203125,0.2953948974609375,-0.0589447021484375,1,0.95
2020-05-16 12:53:36.193 -0400,11725.27373441667,1.013824462890625,0.283477783203125,0.0075225830078125,1,0.95
2020-05-16 12:53:36.258 -0400,11725.33870941667,1.17620849609375,0.3318634033203125,0.052093505859375,1,0.95
2020-05-16 12:53:36.323 -0400,11725.40368541667,0.7236785888671875,0.33251953125,-0.1182098388671875,1,0.95
2020-05-16 12:53:36.388 -0400,11725.46866041667,1.388259887695312,0.275634765625,-0.345184326171875,1,0.95
2020-05-16 12:53:36.453 -0400,11725.53363541667,0.960845947265625,0.112579345703125,-0.3429107666015625,1,0.95
2020-05-16 12:53:36.518 -0400,11725.59861141667,0.48602294921875,0.6200408935546875,-0.348297119140625,1,0.95
2020-05-16 12:53:36.583 -0400,11725.66358641667,0.5827789306640625,0.1675262451171875,-0.52447509765625,1,0.95
2020-05-16 12:53:36.648 -0400,11725.72856241667,0.9833526611328125,0.7201690673828125,-0.3185577392578125,1,0.95
2020-05-16 12:53:36.713 -0400,11725.79353741667,1.276535034179688,0.65594482421875,-0.4084320068359375,1,0.95
2020-05-16 12:53:36.778 -0400,11725.85851341667,1.761672973632812,0.937347412109375,-0.504730224609375,1,0.95
2020-05-16 12:53:36.843 -0400,11725.92348841667,1.176727294921875,0.6107177734375,-0.3112945556640625,1,0.95
2020-05-16 12:53:36.908 -0400,11725.98846441667,1.251174926757812,0.507415771484375,-0.30255126953125,1,0.95
2020-05-16 12:53:36.973 -0400,11726.05343941667,1.02001953125,0.34454345703125,-0.2270965576171875,1,0.95
2020-05-16 12:53:37.038 -0400,11726.11841441667,0.7719268798828125,0.3365020751953125,-0.1416778564453125,1,0.95
2020-05-16 12:53:37.102 -0400,11726.18339025,0.796966552734375,0.3076019287109375,-0.1046295166015625,1,0.95
2020-05-16 12:53:37.168 -0400,11726.24836525,0.843231201171875,0.284576416015625,-0.109039306640625,1,0.95
2020-05-16 12:53:37.232 -0400,11726.31334125,0.90802001953125,0.2763824462890625,-0.1150970458984375,1,0.95
2020-05-16 12:53:37.297 -0400,11726.37831625,0.9732208251953125,0.2875213623046875,-0.103118896484375,1,0.95
2020-05-16 12:53:37.363 -0400,11726.44329225,0.870269775390625,0.3650970458984375,-0.131134033203125,1,0.95
2020-05-16 12:53:37.428 -0400,11726.50826725,0.7396392822265625,0.4146270751953125,-0.319000244140625,1,0.95
2020-05-16 12:53:37.493 -0400,11726.57324325,1.1435546875,0.4137115478515625,-0.4836273193359375,1,0.95
2020-05-16 12:53:37.558 -0400,11726.63821825,0.7951202392578125,0.2551727294921875,-0.4222869873046875,1,0.95
2020-05-16 12:53:37.622 -0400,11726.70319425,0.695587158203125,0.46917724609375,-0.3954010009765625,1,0.95
2020-05-16 12:53:37.687 -0400,11726.76816925,0.93939208984375,0.58099365234375,-0.4748077392578125,1,0.95
2020-05-16 12:53:37.752 -0400,11726.83314425,0.8654632568359375,0.4971923828125,-0.54864501953125,1,0.95
2020-05-16 12:53:37.820 -0400,11726.89812025,0.92828369140625,0.54083251953125,-0.5837554931640625,1,0.95
2020-05-16 12:53:37.882 -0400,11726.96309525,1.335708618164062,0.48248291015625,-0.4555816650390625,1,0.95
2020-05-16 12:53:37.947 -0400,11727.02807125,1.24005126953125,0.4585113525390625,-0.44122314453125,1,0.95
2020-05-16 12:53:38.012 -0400,11727.09304625,1.379135131835938,0.42413330078125,-0.310821533203125,1,0.95
2020-05-16 12:53:38.077 -0400,11727.158021875,1.3548583984375,0.32501220703125,-0.193511962890625,1,0.95
2020-05-16 12:53:38.142 -0400,11727.222996875,0.867645263671875,0.265594482421875,-0.1622772216796875,1,0.95
2020-05-16 12:53:38.207 -0400,11727.287971875,0.62005615234375,0.238800048828125,-0.11669921875,1,0.95
2020-05-16 12:53:38.272 -0400,11727.352947875,0.56097412109375,0.2391357421875,-0.0865936279296875,1,0.95
2020-05-16 12:53:38.337 -0400,11727.417922875,0.5756072998046875,0.2283935546875,-0.069061279296875,1,0.95
2020-05-16 12:53:38.403 -0400,11727.482898875,0.704345703125,0.2699127197265625,-0.1367645263671875,1,0.95
2020-05-16 12:53:38.467 -0400,11727.547873875,0.8289337158203125,0.3470611572265625,-0.222320556640625,1,0.95
2020-05-16 12:53:38.532 -0400,11727.612849875,1.142333984375,0.46075439453125,-0.44708251953125,1,0.95
2020-05-16 12:53:38.597 -0400,11727.677824875,1.798049926757812,0.534820556640625,-0.766845703125,1,0.95
2020-05-16 12:53:38.662 -0400,11727.742800875,0.9740447998046875,0.0086822509765625,-0.569305419921875,1,0.95
2020-05-16 12:53:38.727 -0400,11727.807775875,0.4832916259765625,0.533599853515625,-0.406005859375,1,0.95
2020-05-16 12:53:38.792 -0400,11727.872750875,0.335968017578125,0.522705078125,-0.304656982421875,1,0.95
2020-05-16 12:53:38.857 -0400,11727.937726875,0.6952056884765625,0.5437164306640625,-0.3249053955078125,1,0.95
2020-05-16 12:53:38.922 -0400,11728.002701875,0.99432373046875,0.4893646240234375,-0.4044036865234375,1,0.95
2020-05-16 12:53:38.987 -0400,11728.067677875,1.159622192382812,0.4398193359375,-0.4242706298828125,1,0.95
2020-05-16 12:53:39.052 -0400,11728.132653,1.454559326171875,0.4608306884765625,-0.3905487060546875,1,0.95
2020-05-16 12:53:39.117 -0400,11728.197629,1.212310791015625,0.397186279296875,-0.2878570556640625,1,0.95
2020-05-16 12:53:39.182 -0400,11728.262604,1.355621337890625,0.443603515625,-0.331634521484375,1,0.95
2020-05-16 12:53:39.247 -0400,11728.327579,0.995086669921875,0.2276763916015625,-0.2728729248046875,1,0.95
2020-05-16 12:53:39.312 -0400,11728.392555,0.6261444091796875,0.214935302734375,-0.269195556640625,1,0.95
2020-05-16 12:53:39.377 -0400,11728.45753,0.55126953125,0.2499237060546875,-0.2312164306640625,1,0.95
2020-05-16 12:53:39.442 -0400,11728.522506,0.5156402587890625,0.2127227783203125,-0.1862945556640625,1,0.95
2020-05-16 12:53:39.507 -0400,11728.587481,0.7058868408203125,0.284820556640625,-0.1909027099609375,1,0.95
2020-05-16 12:53:39.572 -0400,11728.652457,0.92633056640625,0.3427276611328125,-0.2099456787109375,1,0.95
2020-05-16 12:53:39.637 -0400,11728.717432,1.4603271484375,0.4811553955078125,-0.2320556640625,1,0.95
2020-05-16 12:53:39.702 -0400,11728.782408,1.340545654296875,0.431671142578125,-0.3426666259765625,1,0.95
2020-05-16 12:53:39.767 -0400,11728.847383,1.261627197265625,0.3990631103515625,-0.2595367431640625,1,0.95
2020-05-16 12:53:39.832 -0400,11728.912358,0.8296051025390625,0.4581756591796875,-0.21478271484375,1,0.95
2020-05-16 12:53:39.897 -0400,11728.977334,0.66412353515625,0.56976318359375,-0.15313720703125,1,0.95
2020-05-16 12:53:39.961 -0400,11729.042309,0.6684722900390625,0.522674560546875,-0.2157440185546875,1,0.95
2020-05-16 12:53:40.027 -0400,11729.107285,0.68511962890625,0.5308837890625,-0.304718017578125,1,0.95
2020-05-16 12:53:40.091 -0400,11729.172260125,1.062149047851562,0.6550140380859375,-0.3805389404296875,1,0.95
2020-05-16 12:53:40.157 -0400,11729.237236125,1.477691650390625,0.652984619140625,-0.4896087646484375,1,0.95
2020-05-16 12:53:40.221 -0400,11729.302211125,1.065567016601562,0.4151153564453125,-0.4663238525390625,1,0.95
2020-05-16 12:53:40.287 -0400,11729.367186125,1.369140625,0.35699462890625,-0.4246673583984375,1,0.95
2020-05-16 12:53:40.351 -0400,11729.432162125,1.176406860351562,0.2378997802734375,-0.26214599609375,1,0.95
2020-05-16 12:53:40.416 -0400,11729.497137125,0.7974395751953125,0.2927093505859375,-0.1712799072265625,1,0.95
2020-05-16 12:53:40.481 -0400,11729.562113125,0.6352081298828125,0.314453125,-0.1020050048828125,1,0.95
2020-05-16 12:53:40.546 -0400,11729.627088125,0.6310577392578125,0.2734222412109375,-0.0783538818359375,1,0.95
2020-05-16 12:53:40.611 -0400,11729.692064125,0.67291259765625,0.2913055419921875,-0.0896759033203125,1,0.95
2020-05-16 12:53:40.676 -0400,11729.757039125,0.797027587890625,0.35223388671875,-0.16339111328125,1,0.95
2020-05-16 12:53:40.741 -0400,11729.822014125,1.109832763671875,0.38287353515625,-0.2963409423828125,1,0.95
2020-05-16 12:53:40.806 -0400,11729.886990125,1.308746337890625,0.3611602783203125,-0.427398681640625,1,0.95
2020-05-16 12:53:40.871 -0400,11729.951965125,0.805267333984375,0.364013671875,-0.5117950439453125,1,0.95
2020-05-16 12:53:40.936 -0400,11730.016941125,0.99462890625,0.4303131103515625,-0.40692138671875,1,0.95
2020-05-16 12:53:41.001 -0400,11730.081916125,0.8951568603515625,0.4077301025390625,-0.359344482421875,1,0.95
2020-05-16 12:53:41.066 -0400,11730.14689254167,0.71295166015625,0.5263671875,-0.30255126953125,1,0.95
2020-05-16 12:53:41.131 -0400,11730.21186754167,0.7318572998046875,0.4340362548828125,-0.3034210205078125,1,0.95
2020-05-16 12:53:41.196 -0400,11730.27684354167,0.841552734375,0.3951568603515625,-0.3137969970703125,1,0.95
2020-05-16 12:53:41.261 -0400,11730.34181854167,0.9814605712890625,0.50213623046875,-0.31585693359375,1,0.95
2020-05-16 12:53:41.326 -0400,11730.40679454167,1.512619018554688,0.5760345458984375,-0.3684234619140625,1,0.95
2020-05-16 12:53:41.391 -0400,11730.47176954167,1.068756103515625,0.3733367919921875,-0.285064697265625,1,0.95
2020-05-16 12:53:41.456 -0400,11730.53674454167,1.041046142578125,0.4257659912109375,-0.2828369140625,1,0.95
2020-05-16 12:53:41.521 -0400,11730.60172054167,0.9812469482421875,0.305938720703125,-0.1624603271484375,1,0.95
2020-05-16 12:53:41.586 -0400,11730.66669554167,0.790313720703125,0.3008575439453125,-0.1009979248046875,1,0.95
2020-05-16 12:53:41.651 -0400,11730.73167154167,0.66278076171875,0.323089599609375,-0.0784149169921875,1,0.95
2020-05-16 12:53:41.716 -0400,11730.79664654167,0.7323150634765625,0.322113037109375,-0.0530853271484375,1,0.95
2020-05-16 12:53:41.781 -0400,11730.86162254167,0.9344024658203125,0.293426513671875,-0.093353271484375,1,0.95
2020-05-16 12:53:41.846 -0400,11730.92659754167,1.085525512695312,0.264923095703125,-0.1452789306640625,1,0.95
2020-05-16 12:53:41.911 -0400,11730.99157354167,1.219833374023438,0.3736572265625,-0.271240234375,1,0.95
2020-05-16 12:53:41.976 -0400,11731.05654854167,0.851165771484375,0.28204345703125,-0.34967041015625,1,0.95
2020-05-16 12:53:42.041 -0400,11731.12152454167,1.115325927734375,0.3820343017578125,-0.539337158203125,1,0.95
2020-05-16 12:53:42.106 -0400,11731.1864995,0.8854827880859375,0.230010986328125,-0.4860687255859375,1,0.95
2020-05-16 12:53:42.170 -0400,11731.2514755,0.560546875,0.33001708984375,-0.3938751220703125,1,0.95
2020-05-16 12:53:42.243 -0400,11731.3164505,0.6009979248046875,0.5336151123046875,-0.3337554931640625,1,0.95
2020-05-16 12:53:42.301 -0400,11731.3814265,0.82244873046875,0.499359130859375,-0.3586273193359375,1,0.95
2020-05-16 12:53:42.366 -0400,11731.4464015,0.9264373779296875,0.4716949462890625,-0.38409423828125,1,0.95
2020-05-16 12:53:42.430 -0400,11731.5113775,1.50360107421875,0.632904052734375,-0.3796539306640625,1,0.95
2020-05-16 12:53:42.496 -0400,11731.5763525,1.202911376953125,0.4860382080078125,-0.4278106689453125,1,0.95
2020-05-16 12:53:42.561 -0400,11731.6413285,1.386245727539062,0.4507293701171875,-0.38934326171875,1,0.95
2020-05-16 12:53:42.625 -0400,11731.7063035,1.180023193359375,0.2307586669921875,-0.2660675048828125,1,0.95
2020-05-16 12:53:42.690 -0400,11731.7712795,0.7005767822265625,0.2760772705078125,-0.1957550048828125,1,0.95
2020-05-16 12:53:42.756 -0400,11731.8362545,0.5720672607421875,0.2593841552734375,-0.1234893798828125,1,0.95
2020-05-16 12:53:42.820 -0400,11731.9012305,0.5288238525390625,0.1933746337890625,-0.11474609375,1,0.95
2020-05-16 12:53:42.885 -0400,11731.9662055,0.733551025390625,0.24774169921875,-0.1480865478515625,1,0.95
2020-05-16 12:53:42.950 -0400,11732.0311815,0.836090087890625,0.2476348876953125,-0.142059326171875,1,0.95
2020-05-16 12:53:43.015 -0400,11732.0961565,1.223388671875,0.4204864501953125,-0.2763671875,1,0.95
2020-05-16 12:53:43.080 -0400,11732.16113179167,1.273834228515625,0.3956146240234375,-0.4800262451171875,1,0.95
2020-05-16 12:53:43.145 -0400,11732.22610679167,1.29632568359375,0.2276153564453125,-0.3782958984375,1,0.95
2020-05-16 12:53:43.210 -0400,11732.29108279167,0.6815338134765625,0.2556304931640625,-0.3106231689453125,1,0.95
2020-05-16 12:53:43.276 -0400,11732.35605779167,0.5224456787109375,0.5621337890625,-0.22955322265625,1,0.95
2020-05-16 12:53:43.340 -0400,11732.42103379167,0.7093963623046875,0.5172882080078125,-0.261749267578125,1,0.95
2020-05-16 12:53:43.405 -0400,11732.48600879167,0.9614410400390625,0.5052337646484375,-0.3325042724609375,1,0.95
2020-05-16 12:53:43.470 -0400,11732.55098479167,1.229690551757812,0.668701171875,-0.4426727294921875,1,0.95
2020-05-16 12:53:43.535 -0400,11732.61595979167,1.424041748046875,0.596649169921875,-0.54083251953125,1,0.95
2020-05-16 12:53:43.600 -0400,11732.68093579167,1.335891723632812,0.4663543701171875,-0.5468597412109375,1,0.95
2020-05-16 12:53:43.665 -0400,11732.74591179167,1.278701782226562,0.250732421875,-0.3769989013671875,1,0.95
2020-05-16 12:53:43.730 -0400,11732.81088679167,0.807708740234375,0.2369232177734375,-0.259857177734375,1,0.95
2020-05-16 12:53:43.795 -0400,11732.87586279167,0.6459197998046875,0.3202362060546875,-0.181243896484375,1,0.95
2020-05-16 12:53:43.860 -0400,11732.94083779167,0.63653564453125,0.208251953125,-0.09344482421875,1,0.95
2020-05-16 12:53:43.925 -0400,11733.00581379167,0.8051300048828125,0.2236175537109375,-0.0896759033203125,1,0.95
2020-05-16 12:53:43.990 -0400,11733.07078879167,0.8625640869140625,0.2425079345703125,-0.08770751953125,1,0.95
2020-05-16 12:53:44.055 -0400,11733.1357655,1.235015869140625,0.3477783203125,-0.142578125,1,0.95
2020-05-16 12:53:44.120 -0400,11733.2007405,1.285064697265625,0.3797454833984375,-0.3844757080078125,1,0.95
2020-05-16 12:53:44.185 -0400,11733.2657165,1.220901489257812,0.2396392822265625,-0.3212127685546875,1,0.95
2020-05-16 12:53:44.250 -0400,11733.3306925,0.7164306640625,0.2818756103515625,-0.3303680419921875,1,0.95
2020-05-16 12:53:44.315 -0400,11733.3956675,0.5824737548828125,0.55279541015625,-0.280975341796875,1,0.95
2020-05-16 12:53:44.380 -0400,11733.4606435,0.795501708984375,0.5404510498046875,-0.3370819091796875,1,0.95
2020-05-16 12:53:44.445 -0400,11733.5256185,1.0391845703125,0.564910888671875,-0.465087890625,1,0.95
2020-05-16 12:53:44.510 -0400,11733.5905945,1.571945190429688,0.783538818359375,-0.542266845703125,1,0.95
2020-05-16 12:53:44.575 -0400,11733.6555705,1.20745849609375,0.5167388916015625,-0.5278472900390625,1,0.95
2020-05-16 12:53:44.640 -0400,11733.7205455,1.416229248046875,0.4830474853515625,-0.4597320556640625,1,0.95
2020-05-16 12:53:44.705 -0400,11733.7855215,1.26116943359375,0.2782440185546875,-0.2795562744140625,1,0.95
2020-05-16 12:53:44.770 -0400,11733.8504965,0.7886962890625,0.28521728515625,-0.1383056640625,1,0.95
2020-05-16 12:53:44.835 -0400,11733.9154725,0.679901123046875,0.3086700439453125,-0.08038330078125,1,0.95
2020-05-16 12:53:44.900 -0400,11733.9804485,0.7174224853515625,0.225830078125,-0.0324554443359375,1,0.95
2020-05-16 12:53:44.965 -0400,11734.0454235,0.953857421875,0.226806640625,-0.04571533203125,1,0.95
2020-05-16 12:53:45.030 -0400,11734.1103995,0.8578643798828125,0.2340240478515625,-0.0632171630859375,1,0.95
2020-05-16 12:53:45.095 -0400,11734.1753745,1.047134399414062,0.3703460693359375,-0.1416778564453125,1,0.95
2020-05-16 12:53:45.159 -0400,11734.2403505,0.9777069091796875,0.386016845703125,-0.364227294921875,1,0.95
2020-05-16 12:53:45.225 -0400,11734.3053265,1.40472412109375,0.422210693359375,-0.472137451171875,1,0.95
2020-05-16 12:53:45.290 -0400,11734.3703015,0.8592376708984375,0.174041748046875,-0.3903961181640625,1,0.95
2020-05-16 12:53:45.355 -0400,11734.4352775,0.7062835693359375,0.517059326171875,-0.3639068603515625,1,0.95
2020-05-16 12:53:45.419 -0400,11734.5002525,0.854034423828125,0.6958465576171875,-0.413818359375,1,0.95
2020-05-16 12:53:45.485 -0400,11734.5652285,1.001251220703125,0.6350555419921875,-0.534271240234375,1,0.95
2020-05-16 12:53:45.549 -0400,11734.6302045,1.136810302734375,0.59307861328125,-0.5078125,1,0.95
2020-05-16 12:53:45.614 -0400,11734.6951795,1.301666259765625,0.5434722900390625,-0.4293212890625,1,0.95
2020-05-16 12:53:45.679 -0400,11734.7601555,1.615081787109375,0.4650115966796875,-0.3536834716796875,1,0.95
2020-05-16 12:53:45.744 -0400,11734.8251315,1.274139404296875,0.3242950439453125,-0.203887939453125,1,0.95
2020-05-16 12:53:45.809 -0400,11734.8901065,0.7342376708984375,0.3043975830078125,-0.1023712158203125,1,0.95
2020-05-16 12:53:45.874 -0400,11734.9550825,0.6472625732421875,0.3197021484375,-0.046051025390625,1,0.95
2020-05-16 12:53:45.939 -0400,11735.0200575,0.8868560791015625,0.25726318359375,-0.0431060791015625,1,0.95
2020-05-16 12:53:46.004 -0400,11735.0850335,1.200347900390625,0.1641082763671875,0.0145111083984375,1,0.95
2020-05-16 12:53:46.069 -0400,11735.150009,0.9143829345703125,0.2550201416015625,-0.1322021484375,1,0.95
2020-05-16 12:53:46.134 -0400,11735.214984,0.8727264404296875,0.4130096435546875,-0.25994873046875,1,0.95
2020-05-16 12:53:46.199 -0400,11735.27996,1.062789916992188,0.323516845703125,-0.4139556884765625,1,0.95
2020-05-16 12:53:46.264 -0400,11735.344936,1.174911499023438,0.1944580078125,-0.4398651123046875,1,0.95
2020-05-16 12:53:46.329 -0400,11735.409911,0.706024169921875,0.2669525146484375,-0.304168701171875,1,0.95
2020-05-16 12:53:46.394 -0400,11735.474887,0.6237030029296875,0.585357666015625,-0.2937469482421875,1,0.95
2020-05-16 12:53:46.459 -0400,11735.539863,0.9733428955078125,0.6802825927734375,-0.332122802734375,1,0.95
2020-05-16 12:53:46.524 -0400,11735.604838,1.202972412109375,0.8451995849609375,-0.4742279052734375,1,0.95
2020-05-16 12:53:46.589 -0400,11735.669814,1.209854125976562,0.65081787109375,-0.5116424560546875,1,0.95
2020-05-16 12:53:46.654 -0400,11735.73479,1.124832153320312,1.056106567382812,-0.479949951171875,1,0.95
2020-05-16 12:53:46.719 -0400,11735.799765,1.759857177734375,0.6211700439453125,-0.253570556640625,1,0.95
2020-05-16 12:53:46.784 -0400,11735.864741,1.423248291015625,0.1986083984375,-0.2222747802734375,1,0.95
2020-05-16 12:53:46.849 -0400,11735.929717,1.024261474609375,0.4277496337890625,-0.1717071533203125,1,0.95
2020-05-16 12:53:46.914 -0400,11735.994692,0.8882598876953125,0.2257843017578125,-0.1233673095703125,1,0.95
2020-05-16 12:53:46.979 -0400,11736.059668,1.014251708984375,0.497528076171875,-0.145477294921875,1,0.95
2020-05-16 12:53:47.044 -0400,11736.124644,0.856475830078125,0.5136871337890625,-0.4243316650390625,1,0.95
2020-05-16 12:53:47.109 -0400,11736.18961966667,0.5096893310546875,0.095855712890625,-0.783233642578125,1,0.95
2020-05-16 12:53:47.174 -0400,11736.25459566667,0.1881561279296875,0.0216064453125,-0.9911956787109375,1,0.95
2020-05-16 12:53:47.239 -0400,11736.31957166667,0.367095947265625,-0.034332275390625,-1.098556518554688,1,0.95
2020-05-16 12:53:47.304 -0400,11736.38454666667,0.20928955078125,-0.1345977783203125,-0.8163299560546875,1,0.95
2020-05-16 12:53:47.370 -0400,11736.44952266667,-0.1119537353515625,-0.2162933349609375,-0.634918212890625,1,0.95
2020-05-16 12:53:47.448 -0400,11736.52949266667,-0.1432952880859375,-0.2829437255859375,-0.567596435546875,1,0.95
2020-05-16 12:53:47.518 -0400,11736.59946666667,-0.1370391845703125,-0.3948211669921875,-0.7581024169921875,1,0.95
2020-05-16 12:53:47.588 -0400,11736.66944066667,-0.1147613525390625,-0.3337554931640625,-1.118865966796875,1,0.95
2020-05-16 12:53:47.659 -0400,11736.73941466667,-0.144439697265625,-0.2038726806640625,-1.401687622070312,1,0.95
2020-05-16 12:53:47.729 -0400,11736.80938866667,0.0016021728515625,-0.1370697021484375,-1.301666259765625,1,0.95
2020-05-16 12:53:47.799 -0400,11736.87936166667,0.03955078125,-0.091888427734375,-1.046722412109375,1,0.95
2020-05-16 12:53:47.882 -0400,11736.94933566667,0.083221435546875,-0.1855621337890625,-0.8163299560546875,1,0.95
2020-05-16 12:53:47.939 -0400,11737.01930966667,0.11370849609375,-0.47589111328125,-0.537628173828125,1,0.95
2020-05-16 12:53:48.009 -0400,11737.08928366667,-0.0484466552734375,-0.2173004150390625,-0.66632080078125,1,0.95
2020-05-16 12:53:48.079 -0400,11737.15925729167,0.01434326171875,-0.15289306640625,-1.015548706054688,1,0.95
2020-05-16 12:53:48.148 -0400,11737.22923129167,0.0446929931640625,-0.3314056396484375,-1.307769775390625,1,0.95
2020-05-16 12:53:48.218 -0400,11737.29920529167,0.082611083984375,-0.1417694091796875,-1.350143432617188,1,0.95
2020-05-16 12:53:48.288 -0400,11737.36917829167,0.1008148193359375,-0.1647491455078125,-1.16778564453125,1,0.95
2020-05-16 12:53:48.358 -0400,11737.43915229167,0.0170745849609375,-0.20562744140625,-0.8241119384765625,1,0.95
2020-05-16 12:53:48.429 -0400,11737.50912629167,-0.168060302734375,-0.135498046875,-0.57452392578125,1,0.95
2020-05-16 12:53:48.498 -0400,11737.57910029167,-0.1430511474609375,-0.17315673828125,-0.677520751953125,1,0.95
2020-05-16 12:53:48.568 -0400,11737.64907429167,-0.1107177734375,-0.169342041015625,-0.9052886962890625,1,0.95
