loggingTime(txt),accelerometerTimestamp_sinceReboot(s),accelerometerAccelerationX(G),accelerometerAccelerationY(G),accelerometerAccelerationZ(G),batteryState,batteryLevel
2020-05-16 12:00:25.094 -0400,8966.656192750001,-0.1197967529296875,-0.0428924560546875,-0.99847412109375,1,1
2020-05-16 12:00:25.219 -0400,8966.77592475,0.0726318359375,0.06939697265625,-1.122467041015625,1,1
2020-05-16 12:00:25.333 -0400,8966.89565975,-0.1515960693359375,0.1264495849609375,-0.5772857666015625,1,1
2020-05-16 12:00:25.453 -0400,8967.015392750001,0.10919189453125,0.046051025390625,-0.535369873046875,1,1
2020-05-16 12:00:25.573 -0400,8967.13512775,0.2618255615234375,0.7015228271484375,-0.745758056640625,1,1
2020-05-16 12:00:25.693 -0400,8967.254860041667,0.701934814453125,1.36993408203125,-0.792388916015625,1,1
2020-05-16 12:00:25.812 -0400,8967.374596041667,0.9057769775390625,1.046173095703125,-0.57000732421875,1,1
2020-05-16 12:00:25.932 -0400,8967.494333041666,0.34271240234375,0.4423980712890625,-0.3831939697265625,1,1
2020-05-16 12:00:26.052 -0400,8967.614072041668,0.25006103515625,0.2671051025390625,-0.064361572265625,1,1
2020-05-16 12:00:26.171 -0400,8967.733809041667,1.11566162109375,1.036880493164062,0.107391357421875,1,1
2020-05-16 12:00:26.291 -0400,8967.853550041667,1.019027709960938,1.003631591796875,-0.144012451171875,1,1
2020-05-16 12:00:26.411 -0400,8967.973288041667,0.477935791015625,0.3735198974609375,-0.17022705078125,1,1
2020-05-16 12:00:26.531 -0400,8968.093023041667,0.2071533203125,0.5877227783203125,-0.0298309326171875,1,1
2020-05-16 12:00:26.650 -0400,8968.212763916667,1.169769287109375,1.169281005859375,-0.0231170654296875,1,1
2020-05-16 12:00:26.770 -0400,8968.332501916668,1.432464599609375,0.9252166748046875,-0.3730316162109375,1,1
2020-05-16 12:00:26.890 -0400,8968.452238916667,1.5037841796875,0.41510009765625,-0.1699981689453125,1,1
2020-05-16 12:00:27.010 -0400,8968.571973916667,0.96868896484375,0.3810577392578125,-0.1463165283203125,1,1
2020-05-16 12:00:27.129 -0400,8968.691710916668,0.61102294921875,0.2057952880859375,-0.0109710693359375,1,1
2020-05-16 12:00:27.249 -0400,8968.811450916668,0.685577392578125,0.238037109375,-0.00762939453125,1,1
2020-05-16 12:00:27.369 -0400,8968.931184916668,1.13934326171875,0.6486053466796875,-0.5750579833984375,1,1
2020-05-16 12:00:27.489 -0400,8969.050925916667,1.22882080078125,0.3056488037109375,-0.6108245849609375,1,1
2020-05-16 12:00:27.608 -0400,8969.170667875,0.74383544921875,0.59234619140625,-0.217254638671875,1,1
2020-05-16 12:00:27.728 -0400,8969.290401875001,0.717315673828125,0.937103271484375,-0.2636566162109375,1,1
2020-05-16 12:00:27.848 -0400,8969.410137875,0.62677001953125,0.712646484375,-0.38128662109375,1,1
2020-05-16 12:00:27.967 -0400,8969.529865875,2.264373779296875,0.4244232177734375,-0.201171875,1,1
2020-05-16 12:00:28.087 -0400,8969.649599875,1.102767944335938,0.5047760009765625,-0.2074432373046875,1,1
2020-05-16 12:00:28.207 -0400,8969.769322875001,0.69097900390625,0.277801513671875,0.1252899169921875,1,1
2020-05-16 12:00:28.327 -0400,8969.889055875001,0.7881317138671875,0.1632537841796875,0.0960235595703125,1,1
2020-05-16 12:00:28.446 -0400,8970.008785875001,0.833709716796875,0.27154541015625,-0.0547637939453125,1,1
2020-05-16 12:00:28.566 -0400,8970.128516875,1.312698364257812,0.867706298828125,-0.611968994140625,1,1
2020-05-16 12:00:28.686 -0400,8970.248246125,1.000930786132812,0.64508056640625,-0.5756378173828125,1,1
2020-05-16 12:00:28.806 -0400,8970.367979125,0.6102752685546875,0.588287353515625,-0.411895751953125,1,1
2020-05-16 12:00:28.925 -0400,8970.487713125001,0.6537628173828125,0.6122894287109375,-0.542572021484375,1,1
2020-05-16 12:00:29.045 -0400,8970.607445125001,1.160354614257812,0.453155517578125,-0.378662109375,1,1
2020-05-16 12:00:29.165 -0400,8970.727180125001,1.598785400390625,0.286712646484375,-0.322235107421875,1,1
2020-05-16 12:00:29.284 -0400,8970.846914125001,1.016586303710938,0.3861541748046875,-0.0278472900390625,1,1
2020-05-16 12:00:29.404 -0400,8970.966642125,0.927825927734375,0.2726287841796875,0.2077178955078125,1,1
2020-05-16 12:00:29.524 -0400,8971.086378125001,0.74774169921875,0.3070220947265625,0.137237548828125,1,1
2020-05-16 12:00:29.644 -0400,8971.206117125001,0.451995849609375,0.398956298828125,-0.34600830078125,1,1
2020-05-16 12:00:29.764 -0400,8971.325852125001,1.297744750976562,0.0105133056640625,-0.1748046875,1,1
2020-05-16 12:00:29.883 -0400,8971.445591125001,1.749099731445312,1.419403076171875,-1.464584350585938,1,1
2020-05-16 12:00:30.003 -0400,8971.565333125001,0.9328460693359375,-0.2299346923828125,-0.418060302734375,1,1
2020-05-16 12:00:30.123 -0400,8971.685075125,0.4259490966796875,0.5919647216796875,-0.8080596923828125,1,1
2020-05-16 12:00:30.242 -0400,8971.804812125001,1.49005126953125,0.468017578125,-0.4102020263671875,1,1
2020-05-16 12:00:30.362 -0400,8971.924553125,1.892257690429688,-0.060272216796875,-0.335968017578125,1,1
2020-05-16 12:00:30.482 -0400,8972.044286125001,1.051910400390625,0.582763671875,0.070098876953125,1,1
2020-05-16 12:00:30.602 -0400,8972.164014375001,0.682769775390625,0.02655029296875,0.09912109375,1,1
2020-05-16 12:00:30.721 -0400,8972.283749375001,0.462371826171875,0.2439117431640625,0.0343017578125,1,1
2020-05-16 12:00:30.841 -0400,8972.403486375,0.4741363525390625,0.2613525390625,-0.018829345703125,1,1
2020-05-16 12:00:30.961 -0400,8972.523229375001,2.190933227539062,0.747650146484375,-0.3852386474609375,1,1
2020-05-16 12:00:31.081 -0400,8972.642965375,1.129135131835938,0.301300048828125,-0.327880859375,1,1
2020-05-16 12:00:31.200 -0400,8972.762707375001,0.5473175048828125,0.583587646484375,-0.397186279296875,1,1
2020-05-16 12:00:31.322 -0400,8972.882449375,0.2234649658203125,0.4655303955078125,-0.3337249755859375,1,1
2020-05-16 12:00:31.440 -0400,8973.002189375,2.991592407226562,0.7376251220703125,-0.1200408935546875,1,1
2020-05-16 12:00:31.560 -0400,8973.121930375,1.580810546875,0.3146820068359375,-0.2316436767578125,1,1
2020-05-16 12:00:31.679 -0400,8973.241668250001,0.777191162109375,0.3491058349609375,0.028411865234375,1,1
2020-05-16 12:00:31.799 -0400,8973.36140625,0.74237060546875,0.16864013671875,0.1389007568359375,1,1
2020-05-16 12:00:31.919 -0400,8973.48115125,0.4736785888671875,0.297576904296875,0.1063232421875,1,1
2020-05-16 12:00:32.039 -0400,8973.600889250001,1.256591796875,0.69171142578125,-0.2830963134765625,1,1
2020-05-16 12:00:32.158 -0400,8973.720623250001,1.152114868164062,0.990966796875,-0.56365966796875,1,1
2020-05-16 12:00:32.278 -0400,8973.840357250001,0.8242034912109375,0.485595703125,-0.90350341796875,1,1
2020-05-16 12:00:32.398 -0400,8973.96008825,0.5712738037109375,0.49444580078125,-0.393157958984375,1,1
2020-05-16 12:00:32.517 -0400,8974.079821250001,1.852691650390625,0.5440216064453125,-0.281463623046875,1,1
2020-05-16 12:00:32.637 -0400,8974.1995565,1.708236694335938,0.319580078125,0.09283447265625,1,1
2020-05-16 12:00:32.757 -0400,8974.319289500001,0.816986083984375,0.279144287109375,-0.195281982421875,1,1
2020-05-16 12:00:32.877 -0400,8974.4390255,0.4551544189453125,0.08062744140625,-0.14495849609375,1,1
2020-05-16 12:00:32.996 -0400,8974.558757500001,0.7352447509765625,0.7547607421875,-0.764923095703125,1,1
2020-05-16 12:00:33.116 -0400,8974.6784895,0.765594482421875,0.549652099609375,0.141265869140625,1,1
2020-05-16 12:00:33.236 -0400,8974.798225500001,1.039779663085938,1.21026611328125,0.12249755859375,1,1
2020-05-16 12:00:33.356 -0400,8974.917961500001,1.089614868164062,-0.0136260986328125,-0.19305419921875,1,1
2020-05-16 12:00:33.475 -0400,8975.037695500001,0.8760986328125,0.798248291015625,-0.38323974609375,1,1
2020-05-16 12:00:33.595 -0400,8975.1574335,0.847869873046875,0.2430877685546875,-0.4776153564453125,1,1
2020-05-16 12:00:33.715 -0400,8975.277167,0.785308837890625,0.30706787109375,-0.12152099609375,1,1
2020-05-16 12:00:33.835 -0400,8975.396902,0.6934356689453125,0.45013427734375,-0.176544189453125,1,1
2020-05-16 12:00:33.954 -0400,8975.516637000001,0.9582672119140625,0.4185943603515625,-0.26519775390625,1,1
2020-05-16 12:00:34.094 -0400,8975.656323000001,1.115859985351562,0.4123992919921875,-0.32330322265625,1,1
2020-05-16 12:00:34.164 -0400,8975.726169000001,1.1058349609375,0.3599090576171875,-0.254608154296875,1,1
2020-05-16 12:00:34.234 -0400,8975.796013000001,0.871734619140625,0.3021392822265625,-0.191864013671875,1,1
2020-05-16 12:00:34.304 -0400,8975.865854,0.8191680908203125,0.376312255859375,-0.238433837890625,1,1
2020-05-16 12:00:34.373 -0400,8975.935696,1.049331665039062,0.440399169921875,-0.2996368408203125,1,1
2020-05-16 12:00:34.443 -0400,8976.005534,0.8625030517578125,0.2730712890625,-0.1743011474609375,1,1
2020-05-16 12:00:34.513 -0400,8976.075374,0.8470306396484375,0.2861480712890625,-0.202728271484375,1,1
2020-05-16 12:00:34.583 -0400,8976.14522,0.6892852783203125,0.29803466796875,-0.185882568359375,1,1
2020-05-16 12:00:34.653 -0400,8976.21505925,0.7801361083984375,0.294036865234375,-0.113006591796875,1,1
2020-05-16 12:00:34.723 -0400,8976.28489925,0.7931671142578125,0.3740234375,-0.0418701171875,1,1
2020-05-16 12:00:34.792 -0400,8976.354740250001,1.319686889648438,0.60107421875,-0.161224365234375,1,1
2020-05-16 12:00:34.862 -0400,8976.42457825,1.260116577148438,0.721771240234375,-0.423126220703125,1,1
2020-05-16 12:00:34.932 -0400,8976.494415250001,0.7783355712890625,0.4050140380859375,-0.524627685546875,1,1
2020-05-16 12:00:35.002 -0400,8976.56425125,0.8832855224609375,0.2512664794921875,-0.29656982421875,1,1
2020-05-16 12:00:35.072 -0400,8976.63409125,0.8297119140625,0.2728729248046875,-0.360076904296875,1,1
2020-05-16 12:00:35.142 -0400,8976.703929250001,0.8657989501953125,0.00982666015625,-0.3961944580078125,1,1
2020-05-16 12:00:35.212 -0400,8976.773774250001,0.941436767578125,-0.0490875244140625,-0.3718414306640625,1,1
2020-05-16 12:00:35.281 -0400,8976.843618250001,0.9483184814453125,0.1912994384765625,-0.3291168212890625,1,1
2020-05-16 12:00:35.351 -0400,8976.913464250001,0.96429443359375,0.4320526123046875,-0.32928466796875,1,1
2020-05-16 12:00:35.421 -0400,8976.983313250001,0.7841339111328125,0.139373779296875,-0.191925048828125,1,1
2020-05-16 12:00:35.491 -0400,8977.053159250001,0.7531585693359375,0.2016754150390625,-0.1933441162109375,1,1
2020-05-16 12:00:35.561 -0400,8977.123003250001,0.75311279296875,0.441009521484375,-0.307373046875,1,1
2020-05-16 12:00:35.630 -0400,8977.192848291666,0.723602294921875,0.41119384765625,-0.437530517578125,1,1
2020-05-16 12:00:35.700 -0400,8977.262692291668,1.125503540039062,0.5453643798828125,-0.78436279296875,1,1
2020-05-16 12:00:35.770 -0400,8977.332537291668,1.27783203125,0.5296630859375,-0.406005859375,1,1
2020-05-16 12:00:35.840 -0400,8977.402376291668,0.9242401123046875,0.2104644775390625,-0.206634521484375,1,1
2020-05-16 12:00:35.910 -0400,8977.472219291667,0.808837890625,0.1705474853515625,-0.1756134033203125,1,1
2020-05-16 12:00:35.980 -0400,8977.542065291667,0.856719970703125,0.4450531005859375,-0.13507080078125,1,1
2020-05-16 12:00:36.050 -0400,8977.611908291667,0.793670654296875,0.4286651611328125,-0.0472869873046875,1,1
2020-05-16 12:00:36.123 -0400,8977.681752291668,0.947998046875,0.4109954833984375,-0.048492431640625,1,1
2020-05-16 12:00:36.189 -0400,8977.751596291668,0.933746337890625,0.38037109375,-0.0174102783203125,1,1
2020-05-16 12:00:36.259 -0400,8977.821441291668,0.713409423828125,0.352752685546875,-0.0278778076171875,1,1
2020-05-16 12:00:36.329 -0400,8977.891287291668,0.807708740234375,0.413299560546875,-0.048095703125,1,1
2020-05-16 12:00:36.399 -0400,8977.961130291667,1.031463623046875,0.441070556640625,-0.12066650390625,1,1
2020-05-16 12:00:36.469 -0400,8978.030975291667,1.188690185546875,0.520660400390625,-0.2663116455078125,1,1
2020-05-16 12:00:36.538 -0400,8978.100822291668,0.9691925048828125,0.3349761962890625,-0.3052215576171875,1,1
2020-05-16 12:00:36.608 -0400,8978.1706715,0.6694183349609375,0.2539825439453125,-0.250335693359375,1,1
2020-05-16 12:00:36.678 -0400,8978.2405215,0.5088043212890625,0.1802825927734375,-0.6429901123046875,1,1
2020-05-16 12:00:36.748 -0400,8978.310370500001,0.658477783203125,0.467437744140625,-0.2281494140625,1,1
2020-05-16 12:00:36.818 -0400,8978.380221500001,1.453414916992188,0.6897430419921875,-0.1298065185546875,1,1
2020-05-16 12:00:36.888 -0400,8978.450069500001,1.032028198242188,0.7174530029296875,-0.48089599609375,1,1
2020-05-16 12:00:36.958 -0400,8978.519914500001,0.978729248046875,0.38818359375,-0.2814178466796875,1,1
2020-05-16 12:00:37.027 -0400,8978.589756500001,0.9830474853515625,0.0636138916015625,-0.14764404296875,1,1
2020-05-16 12:00:37.097 -0400,8978.6595915,0.859222412109375,0.1309356689453125,-0.1376800537109375,1,1
2020-05-16 12:00:37.167 -0400,8978.729430500001,0.71270751953125,0.369903564453125,-0.1884918212890625,1,1
2020-05-16 12:00:37.237 -0400,8978.799268500001,0.8689422607421875,0.505828857421875,-0.16748046875,1,1
2020-05-16 12:00:37.307 -0400,8978.8691055,0.8931121826171875,0.346221923828125,-0.139129638671875,1,1
2020-05-16 12:00:37.377 -0400,8978.9389395,0.70660400390625,0.2423553466796875,-0.22552490234375,1,1
2020-05-16 12:00:37.447 -0400,8979.008778500001,0.7314453125,0.342193603515625,-0.3679962158203125,1,1
2020-05-16 12:00:37.516 -0400,8979.078616500001,0.750030517578125,0.3072967529296875,-0.2964019775390625,1,1
2020-05-16 12:00:37.586 -0400,8979.148456500001,0.797210693359375,0.3762359619140625,-0.29412841796875,1,1
2020-05-16 12:00:37.656 -0400,8979.218300250001,0.8521728515625,0.47308349609375,-0.23870849609375,1,1
2020-05-16 12:00:37.726 -0400,8979.288145250001,1.332504272460938,0.573883056640625,-0.1656494140625,1,1
2020-05-16 12:00:37.796 -0400,8979.357991250001,1.064773559570312,0.66986083984375,-0.103240966796875,1,1
2020-05-16 12:00:37.865 -0400,8979.42783825,1.077835083007812,0.73846435546875,-0.12335205078125,1,1
2020-05-16 12:00:37.935 -0400,8979.49768025,0.8783416748046875,0.5513763427734375,-0.163726806640625,1,1
2020-05-16 12:00:38.005 -0400,8979.567522250001,0.6775054931640625,0.4513397216796875,-0.1646881103515625,1,1
2020-05-16 12:00:38.075 -0400,8979.637366250001,0.5782012939453125,0.7043914794921875,-0.1390380859375,1,1
2020-05-16 12:00:38.145 -0400,8979.70720925,0.6448974609375,0.5880126953125,-0.011322021484375,1,1
2020-05-16 12:00:38.222 -0400,8979.777051250001,0.929931640625,0.6434783935546875,0.0310211181640625,1,1
2020-05-16 12:00:38.285 -0400,8979.846896250001,1.038345336914062,0.753387451171875,-0.021209716796875,1,1
2020-05-16 12:00:38.354 -0400,8979.916740250001,0.9699859619140625,0.629913330078125,0.0278167724609375,1,1
2020-05-16 12:00:38.424 -0400,8979.98657925,1.348281860351562,0.75897216796875,-0.42431640625,1,1
2020-05-16 12:00:38.494 -0400,8980.05642325,1.668746948242188,0.18536376953125,0.058502197265625,1,1
2020-05-16 12:00:38.564 -0400,8980.126270250001,0.9597625732421875,0.0025634765625,-0.317779541015625,1,1
2020-05-16 12:00:38.634 -0400,8980.196113625001,0.4093170166015625,0.439056396484375,-0.2030029296875,1,1
2020-05-16 12:00:38.704 -0400,8980.265958625001,0.218109130859375,0.3020477294921875,-0.237396240234375,1,1
2020-05-16 12:00:38.773 -0400,8980.335803625001,0.16455078125,0.2086029052734375,-0.0915985107421875,1,1
2020-05-16 12:00:38.843 -0400,8980.405647625001,0.473602294921875,0.3629150390625,-0.092437744140625,1,1
2020-05-16 12:00:38.913 -0400,8980.475489625,2.206451416015625,0.710693359375,0.134613037109375,1,1
2020-05-16 12:00:38.983 -0400,8980.545332625001,1.155609130859375,0.31024169921875,-0.031951904296875,1,1
2020-05-16 12:00:39.053 -0400,8980.615174625,0.8951568603515625,0.5902862548828125,0.0814971923828125,1,1
2020-05-16 12:00:39.123 -0400,8980.685017625001,1.020416259765625,0.632354736328125,0.2400360107421875,1,1
2020-05-16 12:00:39.192 -0400,8980.754855625,0.80859375,-0.21185302734375,0.05657958984375,1,1
2020-05-16 12:00:39.262 -0400,8980.824692625001,0.6945343017578125,0.0626678466796875,0.244293212890625,1,1
2020-05-16 12:00:39.332 -0400,8980.894528625,0.8494720458984375,0.803802490234375,-0.3181304931640625,1,1
2020-05-16 12:00:39.402 -0400,8980.964368625,1.00604248046875,0.4189605712890625,-0.1344451904296875,1,1
2020-05-16 12:00:39.472 -0400,8981.034204625001,1.0274658203125,-0.019927978515625,0.2105712890625,1,1
2020-05-16 12:00:39.542 -0400,8981.104041625,0.8295440673828125,0.6254425048828125,0.1163787841796875,1,1
2020-05-16 12:00:39.611 -0400,8981.173879,1.048385620117188,0.4541015625,0.00054931640625,1,1
2020-05-16 12:00:39.681 -0400,8981.24372,1.15411376953125,0.7044677734375,0.1141510009765625,1,1
2020-05-16 12:00:39.751 -0400,8981.313558,0.8195953369140625,0.6909027099609375,-0.0562896728515625,1,1
2020-05-16 12:00:39.821 -0400,8981.383396000001,0.754425048828125,0.6367034912109375,-0.1370849609375,1,1
2020-05-16 12:00:39.891 -0400,8981.453234000001,0.7989959716796875,0.388580322265625,-0.0468902587890625,1,1
2020-05-16 12:00:39.961 -0400,8981.523071000001,0.83795166015625,0.27166748046875,-0.6463623046875,1,1
2020-05-16 12:00:40.030 -0400,8981.592909000001,0.969512939453125,0.5366363525390625,-0.2982330322265625,1,1
2020-05-16 12:00:40.100 -0400,8981.662746,0.8669281005859375,0.3610382080078125,-0.054779052734375,1,1
2020-05-16 12:00:40.171 -0400,8981.732585,0.672454833984375,0.2788238525390625,-0.11474609375,1,1
2020-05-16 12:00:40.240 -0400,8981.802424000001,0.61199951171875,0.3873138427734375,-0.1377716064453125,1,1
2020-05-16 12:00:40.310 -0400,8981.872259,0.8377838134765625,0.4093017578125,-0.1827239990234375,1,1
2020-05-16 12:00:40.380 -0400,8981.942093,1.202896118164062,0.4969024658203125,-0.2325439453125,1,1
2020-05-16 12:00:40.450 -0400,8982.011932000001,1.391143798828125,0.5273284912109375,-0.174713134765625,1,1
2020-05-16 12:00:40.519 -0400,8982.081771000001,1.264175415039062,0.241729736328125,-0.189971923828125,1,1
2020-05-16 12:00:40.589 -0400,8982.151613,1.022537231445312,0.303955078125,-0.11285400390625,1,1
2020-05-16 12:00:40.659 -0400,8982.221453666667,1.022415161132812,0.4378814697265625,0.04168701171875,1,1
2020-05-16 12:00:40.729 -0400,8982.291290666668,0.9236602783203125,0.3233489990234375,0.021240234375,1,1
2020-05-16 12:00:40.799 -0400,8982.361127666667,0.76812744140625,0.3040771484375,0.05419921875,1,1
2020-05-16 12:00:40.869 -0400,8982.430966666667,0.7435455322265625,0.3391265869140625,0.0272216796875,1,1
2020-05-16 12:00:40.938 -0400,8982.500804666668,0.809417724609375,0.308990478515625,0.0199737548828125,1,1
2020-05-16 12:00:41.008 -0400,8982.570644666666,0.8919677734375,0.356536865234375,-0.00396728515625,1,1
2020-05-16 12:00:41.078 -0400,8982.640485666667,0.9227752685546875,0.42449951171875,-0.0621490478515625,1,1
2020-05-16 12:00:41.148 -0400,8982.710324666667,1.025543212890625,0.51104736328125,-0.1562347412109375,1,1
2020-05-16 12:00:41.218 -0400,8982.780168666668,1.160293579101562,0.502105712890625,-0.1459503173828125,1,1
2020-05-16 12:00:41.288 -0400,8982.850011666667,0.9409637451171875,0.4652862548828125,-0.207916259765625,1,1
2020-05-16 12:00:41.357 -0400,8982.919855666667,0.8897857666015625,0.556549072265625,-0.247955322265625,1,1
2020-05-16 12:00:41.427 -0400,8982.989695666667,1.017913818359375,0.479095458984375,-0.2407684326171875,1,1
2020-05-16 12:00:41.497 -0400,8983.059533666667,1.158966064453125,0.4355926513671875,-0.24609375,1,1
2020-05-16 12:00:41.567 -0400,8983.129376666668,1.2437744140625,0.40106201171875,-0.225372314453125,1,1
2020-05-16 12:00:41.637 -0400,8983.199215750001,1.144607543945312,0.2791900634765625,-0.149169921875,1,1
2020-05-16 12:00:41.707 -0400,8983.26905375,0.9638519287109375,0.2690582275390625,-0.1137847900390625,1,1
2020-05-16 12:00:41.776 -0400,8983.33888775,0.8405303955078125,0.2058563232421875,-0.1064605712890625,1,1
2020-05-16 12:00:41.846 -0400,8983.408728750001,0.73828125,0.1262664794921875,-0.1181793212890625,1,1
2020-05-16 12:00:41.916 -0400,8983.478568750001,0.7376556396484375,0.199737548828125,-0.2683563232421875,1,1
2020-05-16 12:00:41.986 -0400,8983.54840675,0.7003936767578125,0.180328369140625,-0.3073577880859375,1,1
2020-05-16 12:00:42.056 -0400,8983.61825075,0.7524261474609375,0.1899871826171875,-0.358123779296875,1,1
2020-05-16 12:00:42.126 -0400,8983.68809575,0.8513641357421875,0.329437255859375,-0.364990234375,1,1
2020-05-16 12:00:42.195 -0400,8983.757934750001,0.8936920166015625,0.4529571533203125,-0.29095458984375,1,1
2020-05-16 12:00:42.265 -0400,8983.82777175,0.9872283935546875,0.5607452392578125,-0.3055572509765625,1,1
2020-05-16 12:00:42.335 -0400,8983.897611750001,0.9785003662109375,0.4729156494140625,-0.305572509765625,1,1
2020-05-16 12:00:42.405 -0400,8983.967452750001,0.99810791015625,0.4887542724609375,-0.284393310546875,1,1
2020-05-16 12:00:42.475 -0400,8984.03729075,1.222763061523438,0.6557159423828125,-0.3919219970703125,1,1
2020-05-16 12:00:42.545 -0400,8984.10712875,1.454635620117188,0.51910400390625,-0.3445587158203125,1,1
2020-05-16 12:00:42.615 -0400,8984.17696275,1.5562744140625,0.1188812255859375,-0.1067657470703125,1,1
2020-05-16 12:00:42.684 -0400,8984.246800750001,1.371414184570312,0.287017822265625,-0.1286468505859375,1,1
2020-05-16 12:00:42.754 -0400,8984.31663875,0.95062255859375,0.374664306640625,-0.0644073486328125,1,1
2020-05-16 12:00:42.824 -0400,8984.386473750001,0.688446044921875,0.3094635009765625,0.010650634765625,1,1
2020-05-16 12:00:42.894 -0400,8984.45631075,0.588134765625,0.218353271484375,0.0218353271484375,1,1
2020-05-16 12:00:42.964 -0400,8984.526149750001,0.609039306640625,0.2252197265625,0.025970458984375,1,1
2020-05-16 12:00:43.034 -0400,8984.595987750001,0.79693603515625,0.2980499267578125,-0.0063629150390625,1,1
2020-05-16 12:00:43.103 -0400,8984.66582575,1.341537475585938,0.4272613525390625,0.017333984375,1,1
2020-05-16 12:00:43.173 -0400,8984.735666750001,2.071624755859375,0.669189453125,-0.1194000244140625,1,1
2020-05-16 12:00:43.243 -0400,8984.80550975,1.190338134765625,0.812957763671875,-0.3599853515625,1,1
2020-05-16 12:00:43.313 -0400,8984.875356750001,0.9733123779296875,0.16815185546875,-0.246368408203125,1,1
2020-05-16 12:00:43.383 -0400,8984.945201750001,0.8668975830078125,0.153839111328125,-0.139068603515625,1,1
2020-05-16 12:00:43.453 -0400,8985.015048750001,0.583892822265625,0.420928955078125,-0.3713226318359375,1,1
2020-05-16 12:00:43.523 -0400,8985.08489475,0.6275482177734375,0.4264373779296875,-0.3140106201171875,1,1
2020-05-16 12:00:43.593 -0400,8985.15473975,0.71820068359375,0.25640869140625,-0.1157684326171875,1,1
2020-05-16 12:00:43.662 -0400,8985.224584166666,0.689483642578125,0.3287200927734375,-0.0814361572265625,1,1
2020-05-16 12:00:43.732 -0400,8985.294432166667,0.609375,0.393585205078125,-0.11077880859375,1,1
2020-05-16 12:00:43.802 -0400,8985.364278166668,0.6452178955078125,0.3330841064453125,-0.0214385986328125,1,1
2020-05-16 12:00:43.872 -0400,8985.434123166668,1.2939453125,0.4620819091796875,-0.1210784912109375,1,1
2020-05-16 12:00:43.942 -0400,8985.503966166667,1.568466186523438,0.133209228515625,0.0762786865234375,1,1
2020-05-16 12:00:44.011 -0400,8985.573804166666,1.344451904296875,0.2675018310546875,-0.0579986572265625,1,1
2020-05-16 12:00:44.081 -0400,8985.643642166668,1.16680908203125,0.4339447021484375,-0.0852508544921875,1,1
2020-05-16 12:00:44.151 -0400,8985.713481166667,0.981109619140625,0.40521240234375,-0.110015869140625,1,1
2020-05-16 12:00:44.221 -0400,8985.783320166667,0.886993408203125,0.4163360595703125,-0.1626129150390625,1,1
2020-05-16 12:00:44.291 -0400,8985.853163166666,0.928955078125,0.3545684814453125,-0.0679168701171875,1,1
2020-05-16 12:00:44.361 -0400,8985.923006166668,0.968414306640625,0.369171142578125,-0.0509033203125,1,1
2020-05-16 12:00:44.430 -0400,8985.992853166666,0.932586669921875,0.4140625,-0.0907135009765625,1,1
2020-05-16 12:00:44.500 -0400,8986.062700166667,0.7885894775390625,0.4400787353515625,-0.0535125732421875,1,1
2020-05-16 12:00:44.570 -0400,8986.132543166666,0.6865234375,0.385833740234375,-0.0744781494140625,1,1
2020-05-16 12:00:44.640 -0400,8986.202385916667,0.673614501953125,0.3238677978515625,-0.0848236083984375,1,1
2020-05-16 12:00:44.710 -0400,8986.272230916667,0.812957763671875,0.2736968994140625,-0.0594940185546875,1,1
2020-05-16 12:00:44.780 -0400,8986.342071916668,1.097702026367188,0.33984375,-0.0870819091796875,1,1
2020-05-16 12:00:44.850 -0400,8986.411914916667,1.245742797851562,0.3898162841796875,-0.1218414306640625,1,1
2020-05-16 12:00:44.919 -0400,8986.481755916668,1.299514770507812,0.41583251953125,-0.1916046142578125,1,1
2020-05-16 12:00:44.989 -0400,8986.551599916667,1.169326782226562,0.441497802734375,-0.3430938720703125,1,1
2020-05-16 12:00:45.059 -0400,8986.621442916667,0.8851470947265625,0.1760101318359375,-0.2143707275390625,1,1
2020-05-16 12:00:45.129 -0400,8986.691283916667,0.8435821533203125,0.0814666748046875,-0.0883026123046875,1,1
2020-05-16 12:00:45.199 -0400,8986.761125916668,0.811767578125,0.1966552734375,-0.2064971923828125,1,1
2020-05-16 12:00:45.272 -0400,8986.830967916667,0.7469635009765625,0.1055450439453125,-0.2241668701171875,1,1
2020-05-16 12:00:45.339 -0400,8986.900808916667,0.717071533203125,0.087860107421875,-0.233428955078125,1,1
2020-05-16 12:00:45.408 -0400,8986.970650916668,0.680145263671875,0.1009368896484375,-0.331695556640625,1,1
2020-05-16 12:00:45.478 -0400,8987.040496916667,0.7639312744140625,0.3027801513671875,-0.2805633544921875,1,1
2020-05-16 12:00:45.548 -0400,8987.110341916667,0.7400054931640625,0.3431396484375,-0.2140045166015625,1,1
2020-05-16 12:00:45.618 -0400,8987.180184375,0.7858123779296875,0.3468170166015625,-0.2459564208984375,1,1
2020-05-16 12:00:45.688 -0400,8987.250023375,0.937530517578125,0.3574676513671875,-0.3240966796875,1,1
2020-05-16 12:00:45.758 -0400,8987.319864375,1.311355590820312,0.4471435546875,-0.44232177734375,1,1
2020-05-16 12:00:45.827 -0400,8987.389696375001,1.453353881835938,0.521087646484375,-0.4069671630859375,1,1
2020-05-16 12:00:45.897 -0400,8987.459530375001,1.42987060546875,0.20782470703125,-0.2933349609375,1,1
2020-05-16 12:00:45.967 -0400,8987.529368375001,1.314804077148438,0.2819061279296875,-0.216094970703125,1,1
2020-05-16 12:00:46.037 -0400,8987.599208375001,0.8286285400390625,0.291534423828125,-0.185150146484375,1,1
2020-05-16 12:00:46.107 -0400,8987.669044375001,0.412811279296875,0.29168701171875,-0.1295318603515625,1,1
2020-05-16 12:00:46.176 -0400,8987.738881375,0.305267333984375,0.2418975830078125,-0.083160400390625,1,1
2020-05-16 12:00:46.247 -0400,8987.808719375,0.3370513916015625,0.2166595458984375,-0.068389892578125,1,1
2020-05-16 12:00:46.316 -0400,8987.878560375,0.3957366943359375,0.2381134033203125,-0.103485107421875,1,1
2020-05-16 12:00:46.386 -0400,8987.948401375001,1.16754150390625,1.266876220703125,-0.297607421875,1,1
2020-05-16 12:00:46.456 -0400,8988.018244375,1.193084716796875,1.415191650390625,-0.393096923828125,1,1
2020-05-16 12:00:46.526 -0400,8988.088080375001,0.7904052734375,0.950042724609375,0.0181884765625,1,1
2020-05-16 12:00:46.596 -0400,8988.157921375001,0.69488525390625,0.74285888671875,-0.195892333984375,1,1
2020-05-16 12:00:46.666 -0400,8988.227758000001,0.8673248291015625,0.3418731689453125,-0.0650177001953125,1,1
2020-05-16 12:00:46.735 -0400,8988.297599000001,0.941680908203125,0.09503173828125,-0.0810546875,1,1
2020-05-16 12:00:46.805 -0400,8988.367442000001,0.810089111328125,0.2530975341796875,-0.130157470703125,1,1
2020-05-16 12:00:46.875 -0400,8988.437283000001,0.8426513671875,0.44671630859375,-0.052215576171875,1,1
2020-05-16 12:00:46.945 -0400,8988.507121000001,0.7867584228515625,0.4630889892578125,-0.0512847900390625,1,1
2020-05-16 12:00:47.015 -0400,8988.576963000001,0.6685791015625,0.4452056884765625,-0.069366455078125,1,1
2020-05-16 12:00:47.084 -0400,8988.646809,0.479461669921875,0.3703765869140625,-0.089324951171875,1,1
2020-05-16 12:00:47.154 -0400,8988.716655,0.7755126953125,0.3688507080078125,-0.12603759765625,1,1
2020-05-16 12:00:47.224 -0400,8988.786498000001,1.3968505859375,0.4235382080078125,-0.152801513671875,1,1
2020-05-16 12:00:47.294 -0400,8988.856341000001,1.528182983398438,0.4942169189453125,-0.49322509765625,1,1
2020-05-16 12:00:47.364 -0400,8988.926184,1.345474243164062,0.57611083984375,-0.3150634765625,1,1
2020-05-16 12:00:47.434 -0400,8988.996024,1.187484741210938,0.2242431640625,-0.135040283203125,1,1
2020-05-16 12:00:47.504 -0400,8989.065862000001,1.370697021484375,0.218536376953125,0.084381103515625,1,1
2020-05-16 12:00:47.573 -0400,8989.135704,1.078887939453125,0.434326171875,0.0577239990234375,1,1
2020-05-16 12:00:47.643 -0400,8989.205548166667,0.545623779296875,0.3625640869140625,0.067596435546875,1,1
2020-05-16 12:00:47.713 -0400,8989.275391166668,0.2926483154296875,0.2918548583984375,0.102874755859375,1,1
2020-05-16 12:00:47.783 -0400,8989.345236166668,0.4259490966796875,0.340240478515625,-0.027496337890625,1,1
2020-05-16 12:00:47.853 -0400,8989.415083166667,0.9474334716796875,0.32818603515625,0.0459747314453125,1,1
2020-05-16 12:00:47.923 -0400,8989.484926166668,1.326889038085938,0.232025146484375,-0.0320892333984375,1,1
2020-05-16 12:00:47.993 -0400,8989.554770166667,1.440093994140625,0.4289398193359375,-0.1493682861328125,1,1
2020-05-16 12:00:48.062 -0400,8989.624615166667,1.1641845703125,0.5930938720703125,-0.3717498779296875,1,1
2020-05-16 12:00:48.132 -0400,8989.694460166667,0.93353271484375,0.4575347900390625,-0.46539306640625,1,1
2020-05-16 12:00:48.202 -0400,8989.764305166667,0.92291259765625,-0.1024932861328125,-0.1851959228515625,1,1
2020-05-16 12:00:48.272 -0400,8989.834154166667,0.7412872314453125,0.1446075439453125,-0.2896575927734375,1,1
2020-05-16 12:00:48.342 -0400,8989.904004166667,0.4579315185546875,0.365997314453125,-0.306427001953125,1,1
2020-05-16 12:00:48.412 -0400,8989.973851166667,0.32550048828125,0.300628662109375,-0.18060302734375,1,1
2020-05-16 12:00:48.481 -0400,8990.043701166667,0.550811767578125,0.275421142578125,-0.151885986328125,1,1
2020-05-16 12:00:48.551 -0400,8990.113549166666,0.5411834716796875,0.48370361328125,-0.2667083740234375,1,1
2020-05-16 12:00:48.621 -0400,8990.183402500001,0.878143310546875,0.2083587646484375,-0.72918701171875,1,1
2020-05-16 12:00:48.691 -0400,8990.253254500001,1.335052490234375,0.5933837890625,0.01715087890625,1,1
2020-05-16 12:00:48.761 -0400,8990.3231065,0.94097900390625,0.355804443359375,0.077972412109375,1,1
2020-05-16 12:00:48.831 -0400,8990.392955500001,0.603729248046875,0.3820037841796875,-1.34893798828125,1,1
2020-05-16 12:00:48.901 -0400,8990.462803500001,0.8702239990234375,1.839981079101562,-0.065155029296875,1,1
2020-05-16 12:00:48.970 -0400,8990.5326515,2.339462280273438,1.122146606445312,0.348114013671875,1,1
2020-05-16 12:00:49.040 -0400,8990.6024985,2.844635009765625,2.51104736328125,0.3594818115234375,1,1
2020-05-16 12:00:49.110 -0400,8990.672344500001,1.841781616210938,1.06622314453125,0.366729736328125,1,1
2020-05-16 12:00:49.180 -0400,8990.742184500001,0.629791259765625,-0.0278167724609375,0.3419189453125,1,1
2020-05-16 12:00:49.250 -0400,8990.812025500001,0.16937255859375,-0.6382904052734375,0.22564697265625,1,1
2020-05-16 12:00:49.322 -0400,8990.8818665,0.878021240234375,-0.5645904541015625,0.1559295654296875,1,1
2020-05-16 12:00:49.389 -0400,8990.9517075,0.9287872314453125,-0.254913330078125,0.3294525146484375,1,1
2020-05-16 12:00:49.459 -0400,8991.0215475,0.884307861328125,0.1681060791015625,0.300140380859375,1,1
2020-05-16 12:00:49.529 -0400,8991.091384500001,1.783843994140625,0.3742218017578125,0.395233154296875,1,1
2020-05-16 12:00:49.599 -0400,8991.161222500001,2.089797973632812,0.6978912353515625,-0.0109710693359375,1,1
2020-05-16 12:00:49.669 -0400,8991.231064375001,2.522171020507812,1.26910400390625,-0.1885986328125,1,1
2020-05-16 12:00:49.739 -0400,8991.300911375001,1.14971923828125,0.4009857177734375,-0.2437286376953125,1,1
2020-05-16 12:00:49.809 -0400,8991.370755375001,0.00897216796875,0.35797119140625,-0.057830810546875,1,1
2020-05-16 12:00:49.880 -0400,8991.440596375001,-0.0314788818359375,-0.0587158203125,0.0465545654296875,1,1
2020-05-16 12:00:49.948 -0400,8991.510439375001,-0.0220184326171875,-0.0152435302734375,-0.0474853515625,1,1
2020-05-16 12:00:50.018 -0400,8991.580285375001,-0.06756591796875,0.286712646484375,-0.133453369140625,1,1
2020-05-16 12:00:50.088 -0400,8991.650131375001,0.2890472412109375,2.5035400390625,-0.4004974365234375,1,1
2020-05-16 12:00:50.158 -0400,8991.719979375001,0.6680755615234375,3.610687255859375,-0.9113311767578125,1,1
2020-05-16 12:00:50.228 -0400,8991.789827375,0.64385986328125,1.829666137695312,-0.728759765625,1,1
2020-05-16 12:00:50.297 -0400,8991.859671375001,0.066131591796875,0.0392913818359375,0.0216522216796875,1,1
2020-05-16 12:00:50.367 -0400,8991.929511375001,-0.0123138427734375,-0.2342681884765625,0.10101318359375,1,1
2020-05-16 12:00:50.437 -0400,8991.999350375001,0.4225006103515625,-0.203094482421875,0.4260406494140625,1,1
2020-05-16 12:00:50.507 -0400,8992.069188375001,0.6971588134765625,0.1097412109375,0.1948394775390625,1,1
2020-05-16 12:00:50.577 -0400,8992.139031375,1.181045532226562,0.5507049560546875,-0.0077362060546875,1,1
2020-05-16 12:00:50.647 -0400,8992.208874041668,2.333297729492188,0.0829925537109375,0.567474365234375,1,1
2020-05-16 12:00:50.716 -0400,8992.278717041667,2.44818115234375,1.804290771484375,-0.63995361328125,1,1
2020-05-16 12:00:50.786 -0400,8992.348563041667,2.188034057617188,1.37518310546875,-0.4312896728515625,1,1
2020-05-16 12:00:50.856 -0400,8992.418409041667,0.7912750244140625,1.0047607421875,-0.3521270751953125,1,1
2020-05-16 12:00:50.926 -0400,8992.488253041667,-0.2393341064453125,0.356719970703125,-0.26885986328125,1,1
2020-05-16 12:00:50.996 -0400,8992.558096041666,-0.3921966552734375,-0.063873291015625,-0.1119232177734375,1,1
2020-05-16 12:00:51.066 -0400,8992.627940041668,-0.3087310791015625,-0.0161285400390625,0.019500732421875,1,1
2020-05-16 12:00:51.135 -0400,8992.697782041667,0.8104248046875,1.365493774414062,-0.3078765869140625,1,1
2020-05-16 12:00:51.205 -0400,8992.767626041667,1.975662231445312,1.855010986328125,-0.29852294921875,1,1
2020-05-16 12:00:51.275 -0400,8992.837469041668,1.0667724609375,0.6462554931640625,-0.415435791015625,1,1
2020-05-16 12:00:51.345 -0400,8992.907311041667,0.4185028076171875,0.224395751953125,-0.30859375,1,1
2020-05-16 12:00:51.415 -0400,8992.977156041667,0.1182708740234375,0.1044464111328125,-0.2682342529296875,1,1
2020-05-16 12:00:51.485 -0400,8993.046999041668,-0.27471923828125,0.325927734375,-0.3146820068359375,1,1
2020-05-16 12:00:51.554 -0400,8993.116843041667,0.0565185546875,0.341094970703125,-0.3821868896484375,1,1
2020-05-16 12:00:51.624 -0400,8993.186688,1.228805541992188,0.4219512939453125,-0.1309967041015625,1,1
2020-05-16 12:00:51.694 -0400,8993.256534,1.880218505859375,0.643890380859375,0.01800537109375,1,1
2020-05-16 12:00:51.764 -0400,8993.326378,1.805923461914062,0.5568084716796875,-0.22027587890625,1,1
2020-05-16 12:00:51.834 -0400,8993.396221000001,1.06903076171875,0.7686920166015625,-0.017059326171875,1,1
2020-05-16 12:00:51.904 -0400,8993.466062000001,0.5286102294921875,0.3329925537109375,-0.144989013671875,1,1
2020-05-16 12:00:51.974 -0400,8993.535904,0.3365936279296875,0.4638671875,-0.0636444091796875,1,1
2020-05-16 12:00:52.044 -0400,8993.605749,0.41656494140625,0.52294921875,-0.053314208984375,1,1
2020-05-16 12:00:52.114 -0400,8993.675593,0.9436187744140625,0.594268798828125,-0.0950927734375,1,1
2020-05-16 12:00:52.183 -0400,8993.745437000001,1.321090698242188,0.5110931396484375,-0.2177581787109375,1,1
2020-05-16 12:00:52.253 -0400,8993.815279,1.449722290039062,0.77239990234375,-0.3462982177734375,1,1
2020-05-16 12:00:52.323 -0400,8993.885124,1.410598754882812,0.5792999267578125,-0.3576507568359375,1,1
2020-05-16 12:00:52.393 -0400,8993.954964,1.471145629882812,0.159454345703125,-0.0745697021484375,1,1
2020-05-16 12:00:52.462 -0400,8994.024805000001,0.81298828125,0.2499847412109375,-0.1224212646484375,1,1
2020-05-16 12:00:52.532 -0400,8994.094650000001,0.4358978271484375,0.32843017578125,-0.0898895263671875,1,1
2020-05-16 12:00:52.602 -0400,8994.164495000001,0.3765716552734375,0.31683349609375,-0.0103759765625,1,1
2020-05-16 12:00:52.672 -0400,8994.234334541667,0.7575225830078125,0.2584228515625,-0.0077972412109375,1,1
2020-05-16 12:00:52.742 -0400,8994.304176541667,1.417373657226562,0.3297576904296875,-0.037841796875,1,1
2020-05-16 12:00:52.812 -0400,8994.374018541666,1.498580932617188,0.358551025390625,-0.0761260986328125,1,1
2020-05-16 12:00:52.882 -0400,8994.443863541666,1.41796875,0.6780853271484375,-0.455810546875,1,1
2020-05-16 12:00:52.952 -0400,8994.513705541667,1.024703979492188,0.2910308837890625,-0.15771484375,1,1
2020-05-16 12:00:53.022 -0400,8994.583545541667,0.8737945556640625,0.198272705078125,-0.27490234375,1,1
2020-05-16 12:00:53.091 -0400,8994.653386541668,0.5175018310546875,0.3835296630859375,-0.302490234375,1,1
2020-05-16 12:00:53.161 -0400,8994.723227541666,0.3788299560546875,0.39056396484375,-0.2078857421875,1,1
2020-05-16 12:00:53.231 -0400,8994.793072541666,0.586090087890625,0.3708648681640625,-0.2605438232421875,1,1
2020-05-16 12:00:53.301 -0400,8994.862913541667,1.033004760742188,0.4533538818359375,-0.4105072021484375,1,1
2020-05-16 12:00:53.371 -0400,8994.932750541668,1.428375244140625,0.3645477294921875,-0.4305267333984375,1,1
2020-05-16 12:00:53.440 -0400,8995.002589541667,1.670318603515625,0.4441375732421875,-0.1927337646484375,1,1
2020-05-16 12:00:53.511 -0400,8995.072425541668,1.033004760742188,0.4149932861328125,-0.2092437744140625,1,1
2020-05-16 12:00:53.580 -0400,8995.142262541667,1.125640869140625,0.364776611328125,-0.032012939453125,1,1
2020-05-16 12:00:53.650 -0400,8995.212107666668,0.7951812744140625,0.3619842529296875,0.0002899169921875,1,1
2020-05-16 12:00:53.720 -0400,8995.281952666668,0.41790771484375,0.3867340087890625,-0.073699951171875,1,1
2020-05-16 12:00:53.789 -0400,8995.351790666668,0.449920654296875,0.37353515625,-0.0187225341796875,1,1
2020-05-16 12:00:53.859 -0400,8995.421627666667,0.9040985107421875,0.3554229736328125,-0.0271453857421875,1,1
2020-05-16 12:00:53.929 -0400,8995.491463666667,1.48052978515625,0.34002685546875,-0.051116943359375,1,1
2020-05-16 12:00:53.999 -0400,8995.561299666668,1.583511352539062,0.3655242919921875,-0.1573028564453125,1,1
2020-05-16 12:00:54.069 -0400,8995.631138666668,1.126251220703125,0.508880615234375,-0.3485107421875,1,1
2020-05-16 12:00:54.139 -0400,8995.700978666668,0.8941192626953125,0.2655487060546875,-0.1844329833984375,1,1
2020-05-16 12:00:54.209 -0400,8995.770815666667,0.820281982421875,0.18505859375,-0.1816558837890625,1,1
2020-05-16 12:00:54.279 -0400,8995.840656666667,0.550811767578125,0.3639068603515625,-0.254364013671875,1,1
2020-05-16 12:00:54.348 -0400,8995.910495666667,0.430908203125,0.39007568359375,-0.1840667724609375,1,1
2020-05-16 12:00:54.418 -0400,8995.980333666666,0.6246795654296875,0.3704681396484375,-0.2158355712890625,1,1
2020-05-16 12:00:54.488 -0400,8996.050173666667,1.034637451171875,0.43408203125,-0.3587799072265625,1,1
2020-05-16 12:00:54.558 -0400,8996.120014666667,1.2103271484375,0.3196258544921875,-0.3607177734375,1,1
2020-05-16 12:00:54.627 -0400,8996.189852875001,1.487396240234375,0.34771728515625,-0.359100341796875,1,1
2020-05-16 12:00:54.697 -0400,8996.259692875001,0.9271392822265625,0.4293975830078125,-0.2930145263671875,1,1
2020-05-16 12:00:54.767 -0400,8996.329533875001,1.067855834960938,0.3709564208984375,-0.1756744384765625,1,1
2020-05-16 12:00:54.837 -0400,8996.399371875001,1.014205932617188,0.296234130859375,-0.031219482421875,1,1
2020-05-16 12:00:54.907 -0400,8996.469209875,0.5544586181640625,0.38720703125,-0.016357421875,1,1
2020-05-16 12:00:54.977 -0400,8996.539047875001,0.4739837646484375,0.9080352783203125,-0.240264892578125,1,1
2020-05-16 12:00:55.047 -0400,8996.608882875,0.812713623046875,0.6929779052734375,-0.0569000244140625,1,1
2020-05-16 12:00:55.117 -0400,8996.678717875,1.17486572265625,0.5592041015625,-0.10137939453125,1,1
2020-05-16 12:00:55.186 -0400,8996.748554875001,1.253753662109375,0.4170379638671875,-0.0684661865234375,1,1
2020-05-16 12:00:55.256 -0400,8996.818396875,0.9622650146484375,0.3750457763671875,-0.0821075439453125,1,1
2020-05-16 12:00:55.326 -0400,8996.888239875001,0.80621337890625,0.4438629150390625,-0.5579833984375,1,1
2020-05-16 12:00:55.396 -0400,8996.958083875001,0.85498046875,0.0072479248046875,-0.1726226806640625,1,1
2020-05-16 12:00:55.466 -0400,8997.027926875,1.016036987304688,0.138763427734375,-0.2697296142578125,1,1
2020-05-16 12:00:55.535 -0400,8997.097767875,0.7930755615234375,0.42706298828125,-0.3472900390625,1,1
2020-05-16 12:00:55.605 -0400,8997.167606875,0.6568450927734375,0.4416046142578125,-0.208099365234375,1,1
2020-05-16 12:00:55.675 -0400,8997.237451875,0.74896240234375,0.480377197265625,-0.2485504150390625,1,1
2020-05-16 12:00:55.745 -0400,8997.307294875001,0.9817047119140625,0.4566802978515625,-0.32366943359375,1,1
2020-05-16 12:00:55.815 -0400,8997.377140875,1.253555297851562,0.3642425537109375,-0.3383026123046875,1,1
2020-05-16 12:00:55.885 -0400,8997.446984875001,1.449966430664062,0.4799652099609375,-0.36871337890625,1,1
2020-05-16 12:00:55.955 -0400,8997.516822875001,0.9409637451171875,0.46014404296875,-0.3372650146484375,1,1
2020-05-16 12:00:56.024 -0400,8997.586659875,1.239913940429688,0.459930419921875,-0.2945404052734375,1,1
2020-05-16 12:00:56.094 -0400,8997.656502875001,1.013320922851562,0.2520751953125,-0.1167755126953125,1,1
2020-05-16 12:00:56.164 -0400,8997.726346875001,0.6475982666015625,0.320526123046875,-0.1173095703125,1,1
2020-05-16 12:00:56.234 -0400,8997.796185875,0.57421875,0.325714111328125,-0.0283660888671875,1,1
2020-05-16 12:00:56.304 -0400,8997.866025875001,0.7625274658203125,0.2921295166015625,-0.028289794921875,1,1
2020-05-16 12:00:56.374 -0400,8997.935864875,1.098159790039062,0.276885986328125,-0.051055908203125,1,1
2020-05-16 12:00:56.444 -0400,8998.005702875,1.277725219726562,0.3271484375,-0.120025634765625,1,1
2020-05-16 12:00:56.513 -0400,8998.075537875,1.2196044921875,0.431243896484375,-0.22088623046875,1,1
2020-05-16 12:00:56.583 -0400,8998.145371875,1.10546875,0.370574951171875,-0.3654022216796875,1,1
2020-05-16 12:00:56.653 -0400,8998.215206791667,1.039749145507812,0.1525421142578125,-0.2061614990234375,1,1
2020-05-16 12:00:56.723 -0400,8998.285042791667,0.73028564453125,0.2292633056640625,-0.31207275390625,1,1
2020-05-16 12:00:56.792 -0400,8998.354883791668,0.460113525390625,0.3867950439453125,-0.161041259765625,1,1
2020-05-16 12:00:56.862 -0400,8998.424725791667,0.47772216796875,0.4843292236328125,-0.14605712890625,1,1
2020-05-16 12:00:56.932 -0400,8998.494562791668,0.6828155517578125,0.2919464111328125,-0.2241973876953125,1,1
2020-05-16 12:00:57.002 -0400,8998.564400791667,1.13330078125,0.05364990234375,-0.4689483642578125,1,1
2020-05-16 12:00:57.072 -0400,8998.634239791667,1.367813110351562,0.0661773681640625,-0.62005615234375,1,1
2020-05-16 12:00:57.142 -0400,8998.704081791668,1.52587890625,0.3355560302734375,-0.388031005859375,1,1
2020-05-16 12:00:57.212 -0400,8998.773920791667,1.128799438476562,-0.0772857666015625,0.0035400390625,1,1
2020-05-16 12:00:57.281 -0400,8998.843760791668,0.8916168212890625,0.8112030029296875,-0.2307586669921875,1,1
2020-05-16 12:00:57.351 -0400,8998.913598791667,0.6513671875,1.892654418945312,-0.0158843994140625,1,1
2020-05-16 12:00:57.421 -0400,8998.983433791667,0.4415130615234375,1.380020141601562,-0.1383056640625,1,1
2020-05-16 12:00:57.491 -0400,8999.053270791666,0.5592498779296875,1.2591552734375,-0.1787261962890625,1,1
2020-05-16 12:00:57.561 -0400,8999.123110791666,0.692535400390625,0.7497406005859375,-0.2411956787109375,1,1
2020-05-16 12:00:57.631 -0400,8999.192949791668,0.57318115234375,0.1898956298828125,-0.096527099609375,1,1
2020-05-16 12:00:57.700 -0400,8999.262795791667,0.4925079345703125,0.0981292724609375,0.0572052001953125,1,1
2020-05-16 12:00:57.770 -0400,8999.332636791667,0.516937255859375,0.22271728515625,0.024200439453125,1,1
2020-05-16 12:00:57.840 -0400,8999.402480791667,0.6241302490234375,1.182601928710938,-0.275726318359375,1,1
2020-05-16 12:00:57.910 -0400,8999.472324791666,0.99853515625,1.764892578125,-0.1621551513671875,1,1
2020-05-16 12:00:57.980 -0400,8999.542165791667,0.3510894775390625,1.695709228515625,-0.865753173828125,1,1
2020-05-16 12:00:58.050 -0400,8999.612006791667,0.1685333251953125,0.93597412109375,-0.760650634765625,1,1
2020-05-16 12:00:58.120 -0400,8999.681843791666,0.0725250244140625,0.15496826171875,-0.5078582763671875,1,1
2020-05-16 12:00:58.190 -0400,8999.751685791667,0.25177001953125,0.586578369140625,0.142181396484375,1,1
2020-05-16 12:00:58.259 -0400,8999.821527791668,0.47808837890625,1.601486206054688,0.727264404296875,1,1
2020-05-16 12:00:58.329 -0400,8999.891368791667,0.5214691162109375,1.442825317382812,0.4113006591796875,1,1
2020-05-16 12:00:58.399 -0400,8999.961205791667,0.676483154296875,1.3837890625,0.4949493408203125,1,1
2020-05-16 12:00:58.469 -0400,9000.031041791668,0.446563720703125,0.6955718994140625,0.471282958984375,1,1
2020-05-16 12:00:58.539 -0400,9000.100876791666,0.1684722900390625,0.796722412109375,0.526611328125,1,1
2020-05-16 12:00:58.608 -0400,9000.170714791668,0.14031982421875,0.810455322265625,0.4326324462890625,1,1
2020-05-16 12:00:58.678 -0400,9000.240550541666,0.06292724609375,0.4198760986328125,0.383209228515625,1,1
2020-05-16 12:00:58.748 -0400,9000.310387541667,-0.0240478515625,0.353485107421875,0.117340087890625,1,1
2020-05-16 12:00:58.818 -0400,9000.380228541668,0.13214111328125,0.7611083984375,0.211578369140625,1,1
2020-05-16 12:00:58.888 -0400,9000.450069541666,0.25,1.228515625,0.1042633056640625,1,1
2020-05-16 12:00:58.958 -0400,9000.519909541666,0.085174560546875,1.353515625,0.4697723388671875,1,1
2020-05-16 12:00:59.027 -0400,9000.589749541667,-0.166534423828125,1.55035400390625,0.279205322265625,1,1
2020-05-16 12:00:59.097 -0400,9000.659584541667,0.4282989501953125,0.7791290283203125,0.31097412109375,1,1
2020-05-16 12:00:59.168 -0400,9000.729421541668,0.4717864990234375,1.028244018554688,0.8428192138671875,1,1
2020-05-16 12:00:59.237 -0400,9000.799262541666,0.441619873046875,0.7533111572265625,0.37896728515625,1,1
2020-05-16 12:00:59.307 -0400,9000.869105541668,0.197357177734375,0.382049560546875,0.347320556640625,1,1
2020-05-16 12:00:59.377 -0400,9000.938949541667,0.1384124755859375,0.468109130859375,-0.048309326171875,1,1
2020-05-16 12:00:59.446 -0400,9001.008792541666,0.244110107421875,0.557586669921875,0.162506103515625,1,1
2020-05-16 12:00:59.516 -0400,9001.078630541668,0.160247802734375,0.9232177734375,0.219970703125,1,1
2020-05-16 12:00:59.586 -0400,9001.148471541666,0.2333984375,1.442398071289062,0.386932373046875,1,1
2020-05-16 12:00:59.656 -0400,9001.2183095,0.3518829345703125,1.459228515625,0.813323974609375,1,1
2020-05-16 12:00:59.726 -0400,9001.2881495,0.2302398681640625,0.779052734375,0.678558349609375,1,1
2020-05-16 12:00:59.796 -0400,9001.3579895,0.0381317138671875,0.628875732421875,0.8177032470703125,1,1
2020-05-16 12:00:59.865 -0400,9001.4278335,0.113677978515625,0.764251708984375,0.8968353271484375,1,1
2020-05-16 12:00:59.935 -0400,9001.497671500001,0.252899169921875,0.2657318115234375,0.3632049560546875,1,1
2020-05-16 12:01:00.005 -0400,9001.5675075,0.2248077392578125,0.463836669921875,0.1244049072265625,1,1
2020-05-16 12:01:00.075 -0400,9001.6373475,0.216461181640625,0.7035675048828125,0.6473236083984375,1,1
2020-05-16 12:01:00.145 -0400,9001.707185500001,-0.016510009765625,1.289535522460938,1.053863525390625,1,1
2020-05-16 12:01:00.215 -0400,9001.777023500001,0.2597503662109375,1.2862548828125,1.118850708007812,1,1
2020-05-16 12:01:00.285 -0400,9001.846864500001,0.3559417724609375,0.8893585205078125,1.115386962890625,1,1
2020-05-16 12:01:00.363 -0400,9001.9167055,0.469451904296875,0.652923583984375,0.7715911865234375,1,1
2020-05-16 12:01:00.425 -0400,9001.986542500001,0.340118408203125,0.22967529296875,0.574951171875,1,1
2020-05-16 12:01:00.494 -0400,9002.056383500001,0.56304931640625,0.3032989501953125,0.6904449462890625,1,1
2020-05-16 12:01:00.564 -0400,9002.1262255,0.5487213134765625,0.529388427734375,0.495849609375,1,1
2020-05-16 12:01:00.634 -0400,9002.196069125001,0.498748779296875,0.6083221435546875,0.45892333984375,1,1
2020-05-16 12:01:00.703 -0400,9002.265911125001,0.482513427734375,0.8241119384765625,0.5197906494140625,1,1
2020-05-16 12:01:00.773 -0400,9002.335751125,0.30938720703125,0.9017181396484375,0.3779296875,1,1
2020-05-16 12:01:00.843 -0400,9002.405590125001,0.0648345947265625,0.76531982421875,0.3054656982421875,1,1
2020-05-16 12:01:00.913 -0400,9002.475433125001,0.1104888916015625,0.6741790771484375,0.22161865234375,1,1
2020-05-16 12:01:00.983 -0400,9002.545271125,0.3868560791015625,0.466888427734375,-0.048614501953125,1,1
2020-05-16 12:01:01.053 -0400,9002.615111125,0.2071990966796875,0.5796051025390625,-0.0567779541015625,1,1
2020-05-16 12:01:01.123 -0400,9002.684950125,0.0094146728515625,0.7335968017578125,-0.010711669921875,1,1
2020-05-16 12:01:01.192 -0400,9002.754788125001,-0.179718017578125,0.35516357421875,-0.170196533203125,1,1
2020-05-16 12:01:01.263 -0400,9002.824627125001,-0.24090576171875,0.122528076171875,-0.103424072265625,1,1
2020-05-16 12:01:01.332 -0400,9002.894465125,4.54656982421875,4.550323486328125,1.047531127929688,1,1
2020-05-16 12:01:01.402 -0400,9002.964303125,1.436538696289062,0.4372406005859375,-0.2973480224609375,1,1
2020-05-16 12:01:01.472 -0400,9003.034142125001,0.5705413818359375,0.7346343994140625,-0.6053466796875,1,1
2020-05-16 12:01:01.542 -0400,9003.103980125001,0.364837646484375,0.475860595703125,-0.254364013671875,1,1
2020-05-16 12:01:01.611 -0400,9003.173821125001,0.389556884765625,-0.1461181640625,0.043426513671875,1,1
2020-05-16 12:01:01.682 -0400,9003.243664875001,0.6533966064453125,-0.0277099609375,-0.128662109375,1,1
2020-05-16 12:01:01.751 -0400,9003.313502875,0.9839324951171875,0.5680694580078125,-0.0489654541015625,1,1
2020-05-16 12:01:01.821 -0400,9003.383335875,1.626754760742188,1.152511596679688,-0.0104217529296875,1,1
2020-05-16 12:01:01.891 -0400,9003.453173875001,1.891799926757812,0.9748382568359375,-0.34869384765625,1,1
2020-05-16 12:01:01.961 -0400,9003.523008875001,1.31494140625,0.58026123046875,-0.0687255859375,1,1
2020-05-16 12:01:02.030 -0400,9003.592846875001,0.794677734375,0.502044677734375,-0.079559326171875,1,1
2020-05-16 12:01:02.101 -0400,9003.662684875,0.4673309326171875,0.512054443359375,-0.08636474609375,1,1
2020-05-16 12:01:02.170 -0400,9003.732517875,0.4333648681640625,0.57379150390625,0.046966552734375,1,1
2020-05-16 12:01:02.240 -0400,9003.802348875,0.8196563720703125,0.8690338134765625,-0.186004638671875,1,1
2020-05-16 12:01:02.310 -0400,9003.872179875001,1.456787109375,0.8772735595703125,-0.4196929931640625,1,1
2020-05-16 12:01:02.380 -0400,9003.942011875,1.489852905273438,0.4472198486328125,-0.502166748046875,1,1
2020-05-16 12:01:02.450 -0400,9004.011845875,1.544052124023438,0.4692840576171875,-0.4030609130859375,1,1
2020-05-16 12:01:02.520 -0400,9004.081680875001,1.588790893554688,-0.011932373046875,-0.083465576171875,1,1
2020-05-16 12:01:02.589 -0400,9004.151517875001,0.8540802001953125,0.2167816162109375,-0.088165283203125,1,1
2020-05-16 12:01:02.659 -0400,9004.221354166668,0.56109619140625,0.432525634765625,-0.0137939453125,1,1
2020-05-16 12:01:02.729 -0400,9004.291184166666,0.5916595458984375,0.4313201904296875,0.11529541015625,1,1
2020-05-16 12:01:02.799 -0400,9004.361018166666,0.92095947265625,0.3526458740234375,0.0967559814453125,1,1
2020-05-16 12:01:02.869 -0400,9004.430857166668,1.087493896484375,0.2598419189453125,0.030059814453125,1,1
2020-05-16 12:01:02.938 -0400,9004.500695166667,1.24603271484375,0.2784271240234375,0.0139617919921875,1,1
2020-05-16 12:01:03.008 -0400,9004.570533166667,1.211761474609375,0.4715576171875,-0.19287109375,1,1
2020-05-16 12:01:03.078 -0400,9004.640371166668,1.106887817382812,0.43218994140625,-0.4522247314453125,1,1
2020-05-16 12:01:03.148 -0400,9004.710206166666,1.202011108398438,0.24847412109375,-0.5265655517578125,1,1
2020-05-16 12:01:03.218 -0400,9004.780041166667,0.8738250732421875,-0.1504974365234375,-0.5129852294921875,1,1
2020-05-16 12:01:03.288 -0400,9004.849881166667,0.5808868408203125,0.783447265625,-0.1049041748046875,1,1
2020-05-16 12:01:03.363 -0400,9004.919723166668,0.44610595703125,1.03009033203125,-0.2394561767578125,1,1
2020-05-16 12:01:03.427 -0400,9004.989562166667,0.689056396484375,0.8210296630859375,-0.1795196533203125,1,1
2020-05-16 12:01:03.497 -0400,9005.059405166667,0.924896240234375,0.529327392578125,-0.10675048828125,1,1
2020-05-16 12:01:03.567 -0400,9005.129248166668,1.476150512695312,0.4947357177734375,-0.314788818359375,1,1
2020-05-16 12:01:03.637 -0400,9005.199093125,1.593124389648438,0.3224639892578125,-0.441131591796875,1,1
2020-05-16 12:01:03.707 -0400,9005.268936125001,1.225357055664062,0.556365966796875,-0.3862762451171875,1,1
2020-05-16 12:01:03.776 -0400,9005.338777125,1.447540283203125,0.445220947265625,-0.0566864013671875,1,1
2020-05-16 12:01:03.846 -0400,9005.408623125,1.149810791015625,0.182830810546875,0.0900115966796875,1,1
2020-05-16 12:01:03.916 -0400,9005.478465125001,0.5854339599609375,0.3121795654296875,-0.0174713134765625,1,1
2020-05-16 12:01:03.986 -0400,9005.548307125,0.324951171875,0.3584136962890625,0.0601348876953125,1,1
2020-05-16 12:01:04.056 -0400,9005.618144125001,0.3034210205078125,0.265289306640625,0.1143035888671875,1,1
2020-05-16 12:01:04.126 -0400,9005.687988125001,0.566864013671875,0.2400665283203125,0.087615966796875,1,1
2020-05-16 12:01:04.195 -0400,9005.757825125,1.189468383789062,0.378692626953125,-0.0473175048828125,1,1
2020-05-16 12:01:04.266 -0400,9005.827665125,1.477386474609375,0.3796539306640625,-0.191375732421875,1,1
2020-05-16 12:01:04.335 -0400,9005.897507125001,1.448928833007812,0.6375274658203125,-0.6302947998046875,1,1
2020-05-16 12:01:04.405 -0400,9005.967348125001,1.341262817382812,0.27471923828125,-0.2528533935546875,1,1
2020-05-16 12:01:04.475 -0400,9006.037185125,1.0611572265625,0.20855712890625,-0.2828826904296875,1,1
2020-05-16 12:01:04.545 -0400,9006.107024125,0.6623992919921875,0.5295562744140625,-0.22479248046875,1,1
2020-05-16 12:01:04.615 -0400,9006.176863125,0.4271087646484375,0.5970306396484375,-0.146087646484375,1,1
2020-05-16 12:01:04.684 -0400,9006.246701666667,0.411865234375,0.4658355712890625,-0.1631622314453125,1,1
2020-05-16 12:01:04.754 -0400,9006.316538666668,0.6980438232421875,0.475494384765625,-0.282135009765625,1,1
2020-05-16 12:01:04.824 -0400,9006.386374666667,1.262344360351562,0.3806915283203125,-0.2407379150390625,1,1
2020-05-16 12:01:04.894 -0400,9006.456210666667,1.6571044921875,0.442535400390625,-0.3201446533203125,1,1
2020-05-16 12:01:04.964 -0400,9006.526047666668,1.245559692382812,0.565399169921875,-0.389739990234375,1,1
2020-05-16 12:01:05.034 -0400,9006.595883666667,1.16851806640625,0.3510284423828125,-0.275634765625,1,1
2020-05-16 12:01:05.103 -0400,9006.665719666667,1.173675537109375,0.2914581298828125,-0.059234619140625,1,1
2020-05-16 12:01:05.173 -0400,9006.735556666667,0.7343597412109375,0.294464111328125,-0.0451507568359375,1,1
2020-05-16 12:01:05.243 -0400,9006.805391666667,0.4639129638671875,0.377105712890625,-0.021881103515625,1,1
2020-05-16 12:01:05.313 -0400,9006.875225666667,0.5735321044921875,0.4088592529296875,-0.02838134765625,1,1
2020-05-16 12:01:05.383 -0400,9006.945063666668,1.174346923828125,0.37677001953125,0.0371551513671875,1,1
2020-05-16 12:01:05.453 -0400,9007.014896666667,1.26531982421875,0.2481536865234375,0.02227783203125,1,1
2020-05-16 12:01:05.522 -0400,9007.084730666667,1.16876220703125,0.5088653564453125,-0.1364898681640625,1,1
2020-05-16 12:01:05.592 -0400,9007.154564666667,0.9106903076171875,0.701446533203125,-0.6146392822265625,1,1
2020-05-16 12:01:05.662 -0400,9007.224395250001,0.982452392578125,0.230712890625,-0.3072662353515625,1,1
2020-05-16 12:01:05.732 -0400,9007.29423125,0.5372772216796875,0.053741455078125,-0.3671722412109375,1,1
2020-05-16 12:01:05.802 -0400,9007.36406525,0.3144073486328125,0.2406005859375,-0.2461090087890625,1,1
2020-05-16 12:01:05.872 -0400,9007.433896250001,0.4965972900390625,0.558013916015625,-0.40472412109375,1,1
2020-05-16 12:01:05.941 -0400,9007.50372425,1.083633422851562,0.520172119140625,-0.4152679443359375,1,1
2020-05-16 12:01:06.011 -0400,9007.57355325,1.251968383789062,0.3411102294921875,-0.30718994140625,1,1
2020-05-16 12:01:06.081 -0400,9007.64338725,1.27691650390625,0.456085205078125,-0.37762451171875,1,1
2020-05-16 12:01:06.151 -0400,9007.71322125,1.099563598632812,0.70330810546875,-0.3808135986328125,1,1
2020-05-16 12:01:06.221 -0400,9007.783058250001,1.167144775390625,0.2878265380859375,-0.0427093505859375,1,1
2020-05-16 12:01:06.291 -0400,9007.85289525,0.7834014892578125,0.21258544921875,-0.0964508056640625,1,1
2020-05-16 12:01:06.361 -0400,9007.92272925,0.65008544921875,0.4798126220703125,-0.1039886474609375,1,1
2020-05-16 12:01:06.430 -0400,9007.99255925,0.830230712890625,0.338775634765625,0.0608062744140625,1,1
2020-05-16 12:01:06.500 -0400,9008.062395250001,1.019805908203125,0.23382568359375,0.0264434814453125,1,1
2020-05-16 12:01:06.570 -0400,9008.13223225,1.184829711914062,0.3478240966796875,0.012603759765625,1,1
2020-05-16 12:01:06.640 -0400,9008.2020665,1.184295654296875,0.40875244140625,-0.0369873046875,1,1
2020-05-16 12:01:06.710 -0400,9008.2719055,0.956573486328125,0.5920257568359375,-0.2902984619140625,1,1
2020-05-16 12:01:06.780 -0400,9008.341743500001,1.218704223632812,0.59173583984375,-0.500701904296875,1,1
2020-05-16 12:01:06.849 -0400,9008.4115815,0.9221954345703125,-0.15777587890625,-0.1178741455078125,1,1
2020-05-16 12:01:06.919 -0400,9008.481417500001,0.5288238525390625,0.0524749755859375,-0.2587890625,1,1
2020-05-16 12:01:06.989 -0400,9008.5512555,0.4191741943359375,0.7079925537109375,-0.1920623779296875,1,1
2020-05-16 12:01:07.059 -0400,9008.621091500001,0.6099700927734375,0.5740203857421875,-0.3216094970703125,1,1
2020-05-16 12:01:07.129 -0400,9008.690926500001,1.053619384765625,0.428924560546875,-0.3141326904296875,1,1
2020-05-16 12:01:07.198 -0400,9008.7607625,1.225692749023438,0.2274932861328125,-0.282012939453125,1,1
2020-05-16 12:01:07.268 -0400,9008.830600500001,1.26763916015625,0.397064208984375,-0.3355712890625,1,1
2020-05-16 12:01:07.338 -0400,9008.900438500001,1.315765380859375,0.6346435546875,-0.3949737548828125,1,1
2020-05-16 12:01:07.408 -0400,9008.970272500001,1.359939575195312,0.259735107421875,-0.079132080078125,1,1
2020-05-16 12:01:07.478 -0400,9009.0401045,0.6996612548828125,0.295013427734375,-0.1067657470703125,1,1
2020-05-16 12:01:07.548 -0400,9009.109935500001,0.3936767578125,0.39630126953125,-0.0293731689453125,1,1
2020-05-16 12:01:07.617 -0400,9009.179766500001,0.4876708984375,0.3199005126953125,0.015838623046875,1,1
2020-05-16 12:01:07.687 -0400,9009.249600375,0.8874359130859375,0.2608489990234375,-0.0339813232421875,1,1
2020-05-16 12:01:07.757 -0400,9009.319431375001,1.287429809570312,0.22833251953125,0.00225830078125,1,1
2020-05-16 12:01:07.827 -0400,9009.389266375001,1.322921752929688,0.4139404296875,-0.15728759765625,1,1
2020-05-16 12:01:07.897 -0400,9009.459102375,1.102630615234375,0.5784149169921875,-0.56500244140625,1,1
2020-05-16 12:01:07.967 -0400,9009.528936375,1.27203369140625,0.91845703125,0.19183349609375,1,1
2020-05-16 12:01:08.037 -0400,9009.598772375,0.5163116455078125,1.4825439453125,0.0749053955078125,1,1
2020-05-16 12:01:08.106 -0400,9009.668609375001,-0.1128692626953125,1.288925170898438,0.28399658203125,1,1
2020-05-16 12:01:08.176 -0400,9009.738447375001,-0.068115234375,1.539794921875,0.42401123046875,1,1
2020-05-16 12:01:08.253 -0400,9009.808289375,0.1183013916015625,1.443466186523438,0.4644317626953125,1,1
2020-05-16 12:01:08.316 -0400,9009.878130375,-0.0051116943359375,0.794342041015625,0.4012603759765625,1,1
2020-05-16 12:01:08.386 -0400,9009.947972375001,-0.2010498046875,0.5351104736328125,0.1527862548828125,1,1
2020-05-16 12:01:08.455 -0400,9010.017813375001,-0.547149658203125,0.6807708740234375,0.01129150390625,1,1
2020-05-16 12:01:08.525 -0400,9010.087656375001,-0.68304443359375,0.7044525146484375,0.1412811279296875,1,1
2020-05-16 12:01:08.595 -0400,9010.157499375,-0.761932373046875,0.343231201171875,-0.2002410888671875,1,1
2020-05-16 12:01:08.665 -0400,9010.227340875001,-0.6987762451171875,0.30731201171875,-0.0730438232421875,1,1
2020-05-16 12:01:08.735 -0400,9010.297179875,-0.50836181640625,0.0488739013671875,-0.1367034912109375,1,1
2020-05-16 12:01:08.805 -0400,9010.367017875,-0.9193572998046875,0.365020751953125,-0.1693878173828125,1,1
2020-05-16 12:01:08.875 -0400,9010.436853875,-1.078475952148438,0.40887451171875,-0.321014404296875,1,1
2020-05-16 12:01:08.944 -0400,9010.506692875,-1.215484619140625,0.6777801513671875,-0.4617156982421875,1,1
2020-05-16 12:01:09.014 -0400,9010.576527875,-0.8057403564453125,0.9916839599609375,-0.2369232177734375,1,1
2020-05-16 12:01:09.085 -0400,9010.646366875,-0.809326171875,0.8752899169921875,-0.159881591796875,1,1
2020-05-16 12:01:09.154 -0400,9010.716202875001,-0.6349334716796875,0.3143157958984375,-0.36737060546875,1,1
2020-05-16 12:01:09.224 -0400,9010.786037875001,-0.18585205078125,0.23565673828125,-0.257080078125,1,1
2020-05-16 12:01:09.294 -0400,9010.855874875,-0.1082916259765625,0.083648681640625,-0.168212890625,1,1
2020-05-16 12:01:09.364 -0400,9010.925715875001,-0.284149169921875,-0.32305908203125,-0.444976806640625,1,1
2020-05-16 12:01:09.433 -0400,9010.995555875001,-1.061050415039062,0.2631072998046875,-0.772796630859375,1,1
2020-05-16 12:01:09.503 -0400,9011.065391875001,-1.603408813476562,-0.1151580810546875,-0.69403076171875,1,1
2020-05-16 12:01:09.573 -0400,9011.135233875,-1.521148681640625,-0.02960205078125,-0.7932281494140625,1,1
2020-05-16 12:01:09.643 -0400,9011.205074916666,-0.9987335205078125,0.5947113037109375,-0.735992431640625,1,1
2020-05-16 12:01:09.713 -0400,9011.274911916667,-0.9408416748046875,0.099456787109375,-0.212158203125,1,1
2020-05-16 12:01:09.783 -0400,9011.344753916666,-0.773956298828125,0.216461181640625,-0.22271728515625,1,1
2020-05-16 12:01:09.852 -0400,9011.414595916667,-0.3744964599609375,0.0443115234375,-0.37335205078125,1,1
2020-05-16 12:01:09.922 -0400,9011.484439916667,-0.5227508544921875,-0.0153045654296875,-0.2948760986328125,1,1
2020-05-16 12:01:09.992 -0400,9011.554284916667,-0.9252471923828125,-0.0966033935546875,-0.628936767578125,1,1
2020-05-16 12:01:10.062 -0400,9011.624126916668,-1.141998291015625,-0.1029052734375,-0.1611328125,1,1
2020-05-16 12:01:10.132 -0400,9011.693967916668,-0.76361083984375,-0.0586395263671875,-1.009872436523438,1,1
2020-05-16 12:01:10.202 -0400,9011.763811916668,-1.2127685546875,0.32647705078125,-0.18798828125,1,1
2020-05-16 12:01:10.272 -0400,9011.833652916666,-0.982452392578125,0.0085296630859375,-0.3323822021484375,1,1
2020-05-16 12:01:10.341 -0400,9011.903495916667,-0.69439697265625,0.3973846435546875,-0.1231231689453125,1,1
2020-05-16 12:01:10.411 -0400,9011.973335916668,-0.9266815185546875,0.8850555419921875,0.17425537109375,1,1
2020-05-16 12:01:10.481 -0400,9012.043176916668,-0.8800201416015625,1.120513916015625,-0.6947479248046875,1,1
2020-05-16 12:01:10.551 -0400,9012.113016916666,-0.612701416015625,0.435394287109375,-0.6639556884765625,1,1
2020-05-16 12:01:10.621 -0400,9012.182859916667,-0.3201751708984375,-0.00933837890625,-0.684356689453125,1,1
2020-05-16 12:01:10.690 -0400,9012.252704750001,-0.6549072265625,0.4254150390625,-0.2883453369140625,1,1
2020-05-16 12:01:10.760 -0400,9012.32254775,-0.916534423828125,0.3959197998046875,-0.719268798828125,1,1
2020-05-16 12:01:10.830 -0400,9012.39238775,-1.088272094726562,0.4472808837890625,-0.741180419921875,1,1
2020-05-16 12:01:10.900 -0400,9012.46222075,-0.978759765625,0.0714569091796875,-0.9533843994140625,1,1
2020-05-16 12:01:10.970 -0400,9012.53206175,-0.931365966796875,0.2454833984375,-0.3705902099609375,1,1
2020-05-16 12:01:11.040 -0400,9012.60190175,-1.144821166992188,0.29095458984375,-0.1756744384765625,1,1
2020-05-16 12:01:11.109 -0400,9012.67174175,-1.168167114257812,0.2329864501953125,-0.157470703125,1,1
2020-05-16 12:01:11.181 -0400,9012.74158075,-0.9293975830078125,0.3121795654296875,-0.216766357421875,1,1
2020-05-16 12:01:11.249 -0400,9012.811418750001,-0.67425537109375,0.131072998046875,-0.18853759765625,1,1
2020-05-16 12:01:11.319 -0400,9012.88125975,-0.40399169921875,-0.0211181640625,-0.2994842529296875,1,1
2020-05-16 12:01:11.389 -0400,9012.95109975,-0.373382568359375,-0.0539703369140625,-0.2378387451171875,1,1
2020-05-16 12:01:11.458 -0400,9013.020940750001,-0.601287841796875,-0.0424957275390625,-0.677734375,1,1
2020-05-16 12:01:11.528 -0400,9013.09077875,-1.061203002929688,-0.1658477783203125,-0.670440673828125,1,1
2020-05-16 12:01:11.598 -0400,9013.160621750001,-0.9641265869140625,0.2295684814453125,-1.110916137695312,1,1
2020-05-16 12:01:11.668 -0400,9013.230464666667,-1.011337280273438,0.22601318359375,-0.7419586181640625,1,1
2020-05-16 12:01:11.738 -0400,9013.300302666667,-0.814117431640625,0.15185546875,-0.7506256103515625,1,1
2020-05-16 12:01:11.808 -0400,9013.370147666667,-0.7319488525390625,0.183502197265625,-0.461273193359375,1,1
2020-05-16 12:01:11.877 -0400,9013.439989666667,-0.75537109375,0.08551025390625,-0.58770751953125,1,1
2020-05-16 12:01:11.948 -0400,9013.509827666667,-0.3794708251953125,-0.250335693359375,-0.9860382080078125,1,1
2020-05-16 12:01:12.017 -0400,9013.579666666667,-0.3774871826171875,-0.28839111328125,-0.1439208984375,1,1
2020-05-16 12:01:12.087 -0400,9013.649510666668,-0.5159759521484375,-0.6976318359375,-0.0423736572265625,1,1
2020-05-16 12:01:12.157 -0400,9013.719353666667,-0.83544921875,-0.4216461181640625,0.0147552490234375,1,1
2020-05-16 12:01:12.227 -0400,9013.789195666668,-1.20086669921875,-0.046417236328125,-0.360260009765625,1,1
2020-05-16 12:01:12.297 -0400,9013.859037666667,-1.66766357421875,0.3251495361328125,-0.4249267578125,1,1
2020-05-16 12:01:12.367 -0400,9013.928882666667,-1.306259155273438,0.698455810546875,-0.795928955078125,1,1
2020-05-16 12:01:12.436 -0400,9013.998727666667,-1.147979736328125,0.251220703125,-0.5617828369140625,1,1
2020-05-16 12:01:12.506 -0400,9014.068572666667,-1.024642944335938,0.315460205078125,-0.3472137451171875,1,1
2020-05-16 12:01:12.576 -0400,9014.138415666666,-0.765716552734375,0.16229248046875,-0.548431396484375,1,1
2020-05-16 12:01:12.646 -0400,9014.208260916666,-0.751678466796875,-0.0860137939453125,-0.494415283203125,1,1
2020-05-16 12:01:12.716 -0400,9014.278107916667,-0.2992706298828125,-0.158172607421875,-0.6230010986328125,1,1
2020-05-16 12:01:12.786 -0400,9014.347953916667,-0.6339569091796875,-0.0023040771484375,-0.198760986328125,1,1
2020-05-16 12:01:12.856 -0400,9014.417802916667,-0.745025634765625,0.05523681640625,-0.72088623046875,1,1
2020-05-16 12:01:12.925 -0400,9014.487649916668,-1.166183471679688,-0.0814361572265625,-0.8925933837890625,1,1
2020-05-16 12:01:12.996 -0400,9014.557497916667,-1.009719848632812,0.0272216796875,-1.05084228515625,1,1
2020-05-16 12:01:13.065 -0400,9014.627345916668,-0.77191162109375,0.34381103515625,-0.7347869873046875,1,1
2020-05-16 12:01:13.135 -0400,9014.697194916667,-0.486785888671875,0.2307586669921875,-0.5097503662109375,1,1
2020-05-16 12:01:13.205 -0400,9014.767039916667,-0.2344970703125,0.16162109375,-0.888702392578125,1,1
2020-05-16 12:01:13.275 -0400,9014.836882916667,-0.258880615234375,-0.167388916015625,-0.66357421875,1,1
2020-05-16 12:01:13.344 -0400,9014.906721916666,-0.159912109375,-0.375030517578125,-0.393310546875,1,1
2020-05-16 12:01:13.421 -0400,9014.976562916667,-0.1428680419921875,-0.310455322265625,-0.261810302734375,1,1
2020-05-16 12:01:13.496 -0400,9015.056377916668,-0.2577056884765625,-0.7853546142578125,-0.3483428955078125,1,1
2020-05-16 12:01:13.614 -0400,9015.176102916666,-0.63775634765625,-1.045074462890625,-0.964263916015625,1,1
2020-05-16 12:01:13.734 -0400,9015.295822375001,-1.166290283203125,-1.35333251953125,-0.448699951171875,1,1
2020-05-16 12:01:13.853 -0400,9015.415552375001,-0.7584991455078125,-0.5603790283203125,-0.278961181640625,1,1
2020-05-16 12:01:13.973 -0400,9015.535277375,-0.4133453369140625,-0.5526885986328125,-0.2058258056640625,1,1
2020-05-16 12:01:14.093 -0400,9015.655004375001,-0.1028900146484375,-0.4692535400390625,0.0816650390625,1,1
2020-05-16 12:01:14.213 -0400,9015.774728375001,-0.3625335693359375,-1.213821411132812,-0.4689483642578125,1,1
2020-05-16 12:01:14.332 -0400,9015.894443375,-0.74212646484375,-1.505157470703125,-0.1656646728515625,1,1
2020-05-16 12:01:14.465 -0400,9016.014174375001,-0.282257080078125,-0.6470489501953125,-0.4515838623046875,1,1
2020-05-16 12:01:14.572 -0400,9016.133901375,-0.1846466064453125,-0.7238006591796875,-0.0595855712890625,1,1
2020-05-16 12:01:14.692 -0400,9016.253626125001,-0.012908935546875,-0.482086181640625,0.236846923828125,1,1
2020-05-16 12:01:14.811 -0400,9016.373343125,-0.8413238525390625,-0.33404541015625,-0.4676513671875,1,1
2020-05-16 12:01:14.931 -0400,9016.493064125001,-1.058975219726562,0.6285552978515625,-1.282974243164062,1,1
2020-05-16 12:01:15.051 -0400,9016.612793125001,-0.9101409912109375,0.9972686767578125,-0.8622283935546875,1,1
2020-05-16 12:01:15.171 -0400,9016.732522125001,-0.8579864501953125,0.7498016357421875,-0.2139739990234375,1,1
2020-05-16 12:01:15.280 -0400,9016.842277125001,-0.6947174072265625,0.312652587890625,-0.321563720703125,1,1
2020-05-16 12:01:15.352 -0400,9016.912121125,-0.55389404296875,0.0089569091796875,-0.3446807861328125,1,1
2020-05-16 12:01:15.420 -0400,9016.981963125001,-0.7155609130859375,0.1038360595703125,-0.230621337890625,1,1
2020-05-16 12:01:15.490 -0400,9017.051802125001,-0.9039306640625,0.0955657958984375,-0.88848876953125,1,1
2020-05-16 12:01:15.560 -0400,9017.121642125001,-1.1778564453125,0.228973388671875,-0.61602783203125,1,1
2020-05-16 12:01:15.629 -0400,9017.191483125,-0.977447509765625,0.4561614990234375,-0.753570556640625,1,1
2020-05-16 12:01:15.699 -0400,9017.261325125,-0.7568206787109375,0.7573089599609375,-0.4515838623046875,1,1
2020-05-16 12:01:15.769 -0400,9017.331166125001,-0.5435028076171875,0.330474853515625,-0.6302032470703125,1,1
2020-05-16 12:01:15.839 -0400,9017.401000125001,-0.4283599853515625,0.366943359375,-0.5128326416015625,1,1
2020-05-16 12:01:15.909 -0400,9017.470832125,-0.210662841796875,0.1337432861328125,-0.377716064453125,1,1
2020-05-16 12:01:15.978 -0400,9017.540666125,-0.0202789306640625,-0.8017578125,-0.1042022705078125,1,1
2020-05-16 12:01:16.048 -0400,9017.610500125,-0.2447967529296875,-0.182769775390625,-0.608428955078125,1,1
2020-05-16 12:01:16.118 -0400,9017.680339125001,-0.765594482421875,0.0382080078125,-0.9587249755859375,1,1
2020-05-16 12:01:16.188 -0400,9017.750175125,-0.9543609619140625,-1.019622802734375,-0.867828369140625,1,1
2020-05-16 12:01:16.258 -0400,9017.820012125001,-1.128219604492188,-1.656356811523438,-0.094635009765625,1,1
2020-05-16 12:01:16.328 -0400,9017.889851125001,-1.211944580078125,-1.163406372070312,-0.367279052734375,1,1
2020-05-16 12:01:16.397 -0400,9017.959690125001,-0.996826171875,-0.5348358154296875,-0.2718048095703125,1,1
2020-05-16 12:01:16.467 -0400,9018.029530125001,-0.70831298828125,-0.3575286865234375,-0.149383544921875,1,1
2020-05-16 12:01:16.537 -0400,9018.099370125001,-0.3766021728515625,-0.4376678466796875,-0.1788330078125,1,1
2020-05-16 12:01:16.607 -0400,9018.169207125,-0.1684722900390625,-0.5490570068359375,-0.209320068359375,1,1
2020-05-16 12:01:16.677 -0400,9018.239046541667,-0.4127960205078125,-0.568939208984375,-0.19207763671875,1,1
2020-05-16 12:01:16.747 -0400,9018.308884541668,-0.5391082763671875,-0.8948516845703125,-0.2520599365234375,1,1
2020-05-16 12:01:16.817 -0400,9018.378721541667,-0.4205474853515625,-0.8690948486328125,-0.0091094970703125,1,1
2020-05-16 12:01:16.896 -0400,9018.458534541667,9.1552734375e-05,-0.7029876708984375,0.3966522216796875,1,1
2020-05-16 12:01:17.016 -0400,9018.578254541668,0.3544769287109375,0.7229156494140625,-0.524444580078125,1,1
2020-05-16 12:01:17.136 -0400,9018.697968541666,0.897369384765625,1.65057373046875,-0.260650634765625,1,1
2020-05-16 12:01:17.255 -0400,9018.817680541668,1.057327270507812,0.660491943359375,-0.368408203125,1,1
2020-05-16 12:01:17.375 -0400,9018.937396541667,1.177520751953125,1.344985961914062,-0.5379791259765625,1,1
2020-05-16 12:01:17.495 -0400,9019.057114541667,1.222579956054688,0.227752685546875,-0.41424560546875,1,1
2020-05-16 12:01:17.615 -0400,9019.176833541667,1.26800537109375,0.745269775390625,-0.5420684814453125,1,1
2020-05-16 12:01:17.734 -0400,9019.296558041668,1.53192138671875,0.1822357177734375,0,1,1
2020-05-16 12:01:17.854 -0400,9019.416279041667,0.5656280517578125,0.36639404296875,0.040191650390625,1,1
2020-05-16 12:01:17.974 -0400,9019.536001041668,0.5659637451171875,0.376953125,0.1085662841796875,1,1
2020-05-16 12:01:18.094 -0400,9019.655724041668,0.9152069091796875,0.361724853515625,-0.01715087890625,1,1
2020-05-16 12:01:18.214 -0400,9019.775446041667,1.033782958984375,0.3435821533203125,-0.495147705078125,1,1
2020-05-16 12:01:18.283 -0400,9019.845281041667,1.032958984375,0.2387542724609375,-0.570281982421875,1,1
2020-05-16 12:01:18.359 -0400,9019.915119041667,1.24383544921875,0.08819580078125,-0.5357208251953125,1,1
2020-05-16 12:01:18.423 -0400,9019.984954041667,0.7597808837890625,0.3302001953125,-0.737884521484375,1,1
2020-05-16 12:01:18.493 -0400,9020.054790041668,0.5479583740234375,0.4575653076171875,-0.43878173828125,1,1
2020-05-16 12:01:18.562 -0400,9020.124625041668,0.5897216796875,0.4818572998046875,-0.4152679443359375,1,1
2020-05-16 12:01:18.632 -0400,9020.194462041667,0.78662109375,0.8729705810546875,-0.38067626953125,1,1
2020-05-16 12:01:18.702 -0400,9020.26430325,0.883636474609375,0.9677886962890625,-0.24530029296875,1,1
2020-05-16 12:01:18.772 -0400,9020.334139250001,0.741058349609375,0.9700469970703125,-0.268768310546875,1,1
2020-05-16 12:01:18.842 -0400,9020.403974250001,1.099365234375,1.127288818359375,-0.126129150390625,1,1
2020-05-16 12:01:18.912 -0400,9020.47381125,1.006454467773438,0.4492034912109375,0.20196533203125,1,1
2020-05-16 12:01:18.981 -0400,9020.543648250001,0.90179443359375,0.4885711669921875,-0.016448974609375,1,1
2020-05-16 12:01:19.051 -0400,9020.61348125,0.453582763671875,0.8100738525390625,-0.308013916015625,1,1
2020-05-16 12:01:19.121 -0400,9020.683317250001,0.0044708251953125,0.360931396484375,0.1411895751953125,1,1
2020-05-16 12:01:19.191 -0400,9020.753151250001,0.0628509521484375,0.3809051513671875,-0.18792724609375,1,1
2020-05-16 12:01:19.261 -0400,9020.82298725,0.5566558837890625,0.8538818359375,-0.296173095703125,1,1
2020-05-16 12:01:19.331 -0400,9020.89282825,1.209381103515625,0.875213623046875,0.052947998046875,1,1
2020-05-16 12:01:19.401 -0400,9020.96266825,1.181854248046875,1.295944213867188,-0.63360595703125,1,1
2020-05-16 12:01:19.470 -0400,9021.03250725,1.0162353515625,0.888671875,-0.509185791015625,1,1
2020-05-16 12:01:19.540 -0400,9021.10234625,0.4653472900390625,1.56610107421875,-1.490020751953125,1,1
2020-05-16 12:01:19.610 -0400,9021.17218625,0.0071258544921875,0.1263427734375,0.4109954833984375,1,1
2020-05-16 12:01:19.680 -0400,9021.242027375001,0.92401123046875,-0.58026123046875,-0.450653076171875,1,1
2020-05-16 12:01:19.750 -0400,9021.311867375001,0.8399658203125,0.3102264404296875,-1.51141357421875,1,1
2020-05-16 12:01:19.819 -0400,9021.381701375001,0.8294830322265625,0.4752655029296875,-1.25439453125,1,1
2020-05-16 12:01:19.889 -0400,9021.451539375001,0.609832763671875,0.29144287109375,-0.0649261474609375,1,1
2020-05-16 12:01:19.959 -0400,9021.521378375,0.7802581787109375,0.4254302978515625,-0.4467315673828125,1,1
2020-05-16 12:01:20.029 -0400,9021.591217375,0.740875244140625,0.6641693115234375,-0.4837799072265625,1,1
2020-05-16 12:01:20.099 -0400,9021.661058375001,0.6899566650390625,0.7340545654296875,-1.048599243164062,1,1
2020-05-16 12:01:20.169 -0400,9021.730901375,0.4376678466796875,0.5067596435546875,-0.837554931640625,1,1
2020-05-16 12:01:20.239 -0400,9021.800743375001,0.2107086181640625,0.1857452392578125,-0.7942047119140625,1,1
2020-05-16 12:01:20.309 -0400,9021.870588375001,0.1656646728515625,0.154632568359375,-0.757904052734375,1,1
2020-05-16 12:01:20.378 -0400,9021.940429375001,0.21759033203125,0.1394195556640625,-0.8222198486328125,1,1
2020-05-16 12:01:20.448 -0400,9022.010267375001,0.314300537109375,0.139739990234375,-0.8462371826171875,1,1
2020-05-16 12:01:20.518 -0400,9022.080104375,0.30218505859375,0.054412841796875,-1.125717163085938,1,1
2020-05-16 12:01:20.588 -0400,9022.149940375,0.220550537109375,-0.0032958984375,-1.26397705078125,1,1
2020-05-16 12:01:20.658 -0400,9022.219778166667,0.137481689453125,-0.110443115234375,-1.12213134765625,1,1
2020-05-16 12:01:20.727 -0400,9022.289614166668,-0.139923095703125,-0.2072601318359375,-0.743316650390625,1,1
2020-05-16 12:01:20.797 -0400,9022.359452166667,-0.2042236328125,-0.2328338623046875,-0.60595703125,1,1
2020-05-16 12:01:20.917 -0400,9022.479179166667,-0.1652984619140625,-0.288055419921875,-0.9360504150390625,1,1
2020-05-16 12:01:21.037 -0400,9022.598908166667,0.0512542724609375,-0.1470184326171875,-1.320846557617188,1,1
2020-05-16 12:01:21.156 -0400,9022.718639166667,0.0339813232421875,-0.1207122802734375,-1.13690185546875,1,1
2020-05-16 12:01:21.277 -0400,9022.838361166667,-0.0270233154296875,-0.0905914306640625,-0.6558380126953125,1,1
2020-05-16 12:01:21.396 -0400,9022.958082166668,0.1490936279296875,-0.0585479736328125,-0.638458251953125,1,1
2020-05-16 12:01:21.516 -0400,9023.077804166667,0.3188018798828125,0.18548583984375,-0.7295989990234375,1,1
2020-05-16 12:01:21.635 -0400,9023.197532166667,0.7098388671875,0.66802978515625,-1.201171875,1,1
2020-05-16 12:01:21.755 -0400,9023.317253000001,0.3846893310546875,0.6263580322265625,-0.8834381103515625,1,1
2020-05-16 12:01:21.875 -0400,9023.436969,-0.18402099609375,0.629425048828125,-0.4161224365234375,1,1
2020-05-16 12:01:21.995 -0400,9023.556692,0.1123809814453125,1.082656860351562,-0.365966796875,1,1
2020-05-16 12:01:22.115 -0400,9023.676407000001,1.199935913085938,1.247650146484375,-0.5068359375,1,1
2020-05-16 12:01:22.204 -0400,9023.766188000001,1.40704345703125,0.9526824951171875,-0.4517974853515625,1,1
2020-05-16 12:01:22.274 -0400,9023.836020000001,0.974090576171875,0.503387451171875,-0.2885894775390625,1,1
2020-05-16 12:01:22.344 -0400,9023.905855000001,0.38037109375,0.3260955810546875,-0.281494140625,1,1
2020-05-16 12:01:22.414 -0400,9023.975695000001,0.306732177734375,0.2322540283203125,-0.1815185546875,1,1
2020-05-16 12:01:22.483 -0400,9024.045537,0.33734130859375,0.1503143310546875,-0.1492462158203125,1,1
2020-05-16 12:01:22.553 -0400,9024.115379000001,0.6107940673828125,0.2865142822265625,-0.1171417236328125,1,1
2020-05-16 12:01:22.623 -0400,9024.185223,1.156341552734375,0.750152587890625,-0.18109130859375,1,1
2020-05-16 12:01:22.693 -0400,9024.255062541668,1.275741577148438,0.72088623046875,-0.3284149169921875,1,1
2020-05-16 12:01:22.763 -0400,9024.324901541668,1.53057861328125,0.7515869140625,-0.48980712890625,1,1
2020-05-16 12:01:22.833 -0400,9024.394742541666,0.72015380859375,0.26123046875,-0.116729736328125,1,1
2020-05-16 12:01:22.902 -0400,9024.464586541668,0.472686767578125,0.398681640625,-0.1786956787109375,1,1
2020-05-16 12:01:22.972 -0400,9024.534426541668,0.545196533203125,0.6155853271484375,-0.233551025390625,1,1
2020-05-16 12:01:23.042 -0400,9024.604268541667,0.6797943115234375,0.7870025634765625,-0.372314453125,1,1
2020-05-16 12:01:23.112 -0400,9024.674113541667,1.062393188476562,0.7008819580078125,-0.57391357421875,1,1
2020-05-16 12:01:23.182 -0400,9024.743959541667,2.002029418945312,0.4266204833984375,-0.487152099609375,1,1
2020-05-16 12:01:23.255 -0400,9024.813802541667,1.61187744140625,-0.0309295654296875,-0.0930023193359375,1,1
2020-05-16 12:01:23.321 -0400,9024.883643541667,1.278961181640625,0.1322021484375,-0.1475372314453125,1,1
2020-05-16 12:01:23.391 -0400,9024.953487541667,0.6322021484375,0.72906494140625,-0.214508056640625,1,1
2020-05-16 12:01:23.461 -0400,9025.023333541667,0.3946533203125,0.29791259765625,-0.00604248046875,1,1
2020-05-16 12:01:23.531 -0400,9025.093175541668,0.3697662353515625,0.1675872802734375,0.030914306640625,1,1
2020-05-16 12:01:23.601 -0400,9025.163017541667,0.6872711181640625,0.221923828125,0.00787353515625,1,1
2020-05-16 12:01:23.671 -0400,9025.232858416668,0.8754425048828125,0.333160400390625,-0.0097503662109375,1,1
2020-05-16 12:01:23.740 -0400,9025.302694416667,1.59698486328125,0.6107330322265625,-0.15447998046875,1,1
2020-05-16 12:01:23.811 -0400,9025.372531416668,1.46380615234375,0.5619964599609375,-0.565032958984375,1,1
2020-05-16 12:01:23.880 -0400,9025.442371416668,1.263870239257812,0.352508544921875,-0.325836181640625,1,1
2020-05-16 12:01:23.950 -0400,9025.512208416667,0.639801025390625,0.3462982177734375,-0.357177734375,1,1
2020-05-16 12:01:24.020 -0400,9025.582049416667,0.50189208984375,0.5897369384765625,-0.3484039306640625,1,1
2020-05-16 12:01:24.090 -0400,9025.651882416667,0.5960540771484375,0.8073577880859375,-0.4134368896484375,1,1
2020-05-16 12:01:24.159 -0400,9025.721718416667,0.9845428466796875,0.7314300537109375,-0.474212646484375,1,1
2020-05-16 12:01:24.229 -0400,9025.791553416668,1.93536376953125,0.64764404296875,-0.3696746826171875,1,1
2020-05-16 12:01:24.299 -0400,9025.861389416666,1.504074096679688,0.338623046875,-0.306182861328125,1,1
2020-05-16 12:01:24.369 -0400,9025.931226416667,1.62542724609375,0.4420623779296875,-0.0784454345703125,1,1
2020-05-16 12:01:24.439 -0400,9026.001061416668,1.089859008789062,0.4515228271484375,-0.1219940185546875,1,1
2020-05-16 12:01:24.509 -0400,9026.070896416668,0.6387786865234375,0.29022216796875,-0.0269012451171875,1,1
2020-05-16 12:01:24.578 -0400,9026.140735416668,0.52691650390625,0.2456512451171875,0.031402587890625,1,1
2020-05-16 12:01:24.648 -0400,9026.210572416667,0.5711669921875,0.1952362060546875,0.038360595703125,1,1
2020-05-16 12:01:24.719 -0400,9026.280406125001,0.5592498779296875,0.2105712890625,0.0460662841796875,1,1
2020-05-16 12:01:24.788 -0400,9026.350240125001,0.7086639404296875,0.32177734375,-0.1327667236328125,1,1
2020-05-16 12:01:24.858 -0400,9026.420075125001,1.674667358398438,0.75787353515625,-0.25482177734375,1,1
2020-05-16 12:01:24.928 -0400,9026.489911125,1.421493530273438,0.6347198486328125,-0.7708740234375,1,1
2020-05-16 12:01:24.997 -0400,9026.559749125001,1.455154418945312,0.3767547607421875,-0.422332763671875,1,1
2020-05-16 12:01:25.067 -0400,9026.629584125001,0.7429351806640625,0.393218994140625,-0.4101715087890625,1,1
2020-05-16 12:01:25.137 -0400,9026.699420125,0.446990966796875,0.5253753662109375,-0.2973175048828125,1,1
2020-05-16 12:01:25.207 -0400,9026.769258125001,0.411895751953125,0.57135009765625,-0.328094482421875,1,1
2020-05-16 12:01:25.279 -0400,9026.839099125,0.73736572265625,0.549285888671875,-0.4275970458984375,1,1
2020-05-16 12:01:25.347 -0400,9026.908943125001,1.230697631835938,0.4643402099609375,-0.4469146728515625,1,1
2020-05-16 12:01:25.417 -0400,9026.978784125,1.342926025390625,0.349945068359375,-0.41156005859375,1,1
2020-05-16 12:01:25.486 -0400,9027.048625125,1.455841064453125,0.29083251953125,-0.43072509765625,1,1
2020-05-16 12:01:25.556 -0400,9027.118461125001,1.199813842773438,0.2629547119140625,-0.147857666015625,1,1
2020-05-16 12:01:25.626 -0400,9027.188300125001,1.185882568359375,0.397552490234375,0.0142974853515625,1,1
2020-05-16 12:01:25.696 -0400,9027.258138750001,0.745269775390625,0.3370819091796875,-0.02789306640625,1,1
2020-05-16 12:01:25.766 -0400,9027.327977750001,0.582794189453125,0.3318634033203125,0.0699920654296875,1,1
2020-05-16 12:01:25.835 -0400,9027.39781475,0.598052978515625,0.29840087890625,0.071685791015625,1,1
2020-05-16 12:01:25.905 -0400,9027.46765475,0.572052001953125,0.29022216796875,0.03680419921875,1,1
2020-05-16 12:01:25.975 -0400,9027.53749475,0.679534912109375,0.3145599365234375,-0.005767822265625,1,1
2020-05-16 12:01:26.045 -0400,9027.60733375,0.8534698486328125,0.36578369140625,-0.0824127197265625,1,1
2020-05-16 12:01:26.115 -0400,9027.67718275,1.019912719726562,0.444732666015625,-0.3062896728515625,1,1
2020-05-16 12:01:26.185 -0400,9027.74702775,1.897781372070312,0.6802520751953125,-0.64459228515625,1,1
2020-05-16 12:01:26.255 -0400,9027.816870750001,1.399658203125,0.469482421875,-0.83831787109375,1,1
2020-05-16 12:01:26.324 -0400,9027.88671975,0.785247802734375,-0.02801513671875,-0.3134613037109375,1,1
2020-05-16 12:01:26.394 -0400,9027.95656875,0.3654632568359375,0.3216400146484375,-0.295013427734375,1,1
2020-05-16 12:01:26.464 -0400,9028.02641475,0.3031005859375,0.528900146484375,-0.38446044921875,1,1
2020-05-16 12:01:26.534 -0400,9028.096261750001,0.705169677734375,0.4875640869140625,-0.3990325927734375,1,1
2020-05-16 12:01:26.604 -0400,9028.16611075,0.9801483154296875,0.3358917236328125,-0.18450927734375,1,1
2020-05-16 12:01:26.674 -0400,9028.235957375,0.675567626953125,0.3383331298828125,-0.1944122314453125,1,1
2020-05-16 12:01:26.744 -0400,9028.305803375,1.484710693359375,0.5755615234375,-0.21807861328125,1,1
2020-05-16 12:01:26.814 -0400,9028.375646375001,1.539947509765625,0.607269287109375,-0.2036590576171875,1,1
2020-05-16 12:01:26.883 -0400,9028.445490375001,1.643295288085938,0.3347320556640625,0.050750732421875,1,1
2020-05-16 12:01:26.953 -0400,9028.515334375001,0.8072052001953125,0.30694580078125,-0.1519622802734375,1,1
2020-05-16 12:01:27.023 -0400,9028.585177375,0.48309326171875,0.4105377197265625,-0.0966796875,1,1
2020-05-16 12:01:27.093 -0400,9028.655026375001,0.52880859375,0.2776947021484375,-0.0753326416015625,1,1
2020-05-16 12:01:27.163 -0400,9028.724876375001,0.7016448974609375,0.15380859375,-0.1132659912109375,1,1
2020-05-16 12:01:27.243 -0400,9028.794725375001,0.424774169921875,0.1245880126953125,-0.1215972900390625,1,1
2020-05-16 12:01:27.303 -0400,9028.864570375001,0.384979248046875,0.2606048583984375,-0.2094879150390625,1,1
2020-05-16 12:01:27.372 -0400,9028.934416375001,1.495269775390625,0.7356414794921875,-0.225982666015625,1,1
2020-05-16 12:01:27.442 -0400,9029.004262375001,1.65692138671875,0.8841552734375,-0.608123779296875,1,1
2020-05-16 12:01:27.512 -0400,9029.074107375001,1.372970581054688,1.102142333984375,-0.64935302734375,1,1
2020-05-16 12:01:27.582 -0400,9029.143956375001,0.60955810546875,0.4230804443359375,-0.3820037841796875,1,1
2020-05-16 12:01:27.651 -0400,9029.213806375001,0.2589874267578125,0.4048614501953125,-0.350799560546875,1,1
2020-05-16 12:01:27.721 -0400,9029.283649000001,0.3591461181640625,0.7528076171875,-0.3828277587890625,1,1
2020-05-16 12:01:27.791 -0400,9029.353493000001,0.7555084228515625,0.6949462890625,-0.38153076171875,1,1
2020-05-16 12:01:27.861 -0400,9029.423337,1.796524047851562,0.8714752197265625,-0.508453369140625,1,1
2020-05-16 12:01:27.931 -0400,9029.493183,2.256881713867188,0.20733642578125,0.102813720703125,1,1
2020-05-16 12:01:28.001 -0400,9029.563033,2.09356689453125,0.5669708251953125,-0.0809478759765625,1,1
2020-05-16 12:01:28.071 -0400,9029.632878,1.160354614257812,0.5158843994140625,-0.0922088623046875,1,1
2020-05-16 12:01:28.140 -0400,9029.702718,0.58642578125,0.17431640625,0.08087158203125,1,1
2020-05-16 12:01:28.210 -0400,9029.772565000001,0.4553680419921875,0.000213623046875,0.0730133056640625,1,1
2020-05-16 12:01:28.280 -0400,9029.842413,0.3557891845703125,-0.0295257568359375,0.0444488525390625,1,1
2020-05-16 12:01:28.350 -0400,9029.912265000001,0.354827880859375,0.3161468505859375,-0.0142822265625,1,1
2020-05-16 12:01:28.420 -0400,9029.982119,0.9288482666015625,1.069808959960938,-0.40472412109375,1,1
2020-05-16 12:01:28.490 -0400,9030.051973000001,1.107559204101562,0.5841217041015625,-0.5095672607421875,1,1
2020-05-16 12:01:28.560 -0400,9030.121826000001,1.654052734375,0.6978759765625,-0.7213592529296875,1,1
2020-05-16 12:01:28.629 -0400,9030.191676,0.9722442626953125,0.643096923828125,-0.5192718505859375,1,1
2020-05-16 12:01:28.699 -0400,9030.261528125,0.4816131591796875,0.468597412109375,-0.374053955078125,1,1
2020-05-16 12:01:28.769 -0400,9030.331382125001,0.4464569091796875,0.6203765869140625,-0.33935546875,1,1
2020-05-16 12:01:28.839 -0400,9030.401237125001,0.7626953125,0.889739990234375,-0.527130126953125,1,1
2020-05-16 12:01:28.909 -0400,9030.471087125001,1.210494995117188,0.598236083984375,-0.3934173583984375,1,1
2020-05-16 12:01:28.979 -0400,9030.540943125001,2.052963256835938,0.310546875,-0.4298248291015625,1,1
2020-05-16 12:01:29.049 -0400,9030.610797125,2.17706298828125,0.2436065673828125,-0.1934051513671875,1,1
2020-05-16 12:01:29.118 -0400,9030.680651125,1.0496826171875,0.574920654296875,-0.471466064453125,1,1
2020-05-16 12:01:29.188 -0400,9030.750503125,0.4838714599609375,0.2562103271484375,-0.1970672607421875,1,1
2020-05-16 12:01:29.258 -0400,9030.820353125,0.2616119384765625,-0.018218994140625,0.012359619140625,1,1
2020-05-16 12:01:29.328 -0400,9030.890200125001,0.2318878173828125,0.0028533935546875,-0.0478973388671875,1,1
2020-05-16 12:01:29.398 -0400,9030.960047125001,0.4774322509765625,0.162994384765625,-0.016693115234375,1,1
2020-05-16 12:01:29.468 -0400,9031.029893125,0.9537353515625,0.945953369140625,-0.2324676513671875,1,1
2020-05-16 12:01:29.538 -0400,9031.099739125,1.228683471679688,0.7830352783203125,-0.6270294189453125,1,1
2020-05-16 12:01:29.607 -0400,9031.169585125001,1.599884033203125,0.9322052001953125,-0.3151092529296875,1,1
2020-05-16 12:01:29.677 -0400,9031.239431625001,0.8964691162109375,0.4431610107421875,-0.235870361328125,1,1
2020-05-16 12:01:29.747 -0400,9031.309279625,0.646575927734375,0.51959228515625,-0.128814697265625,1,1
2020-05-16 12:01:29.817 -0400,9031.379128625,0.706329345703125,0.732513427734375,-0.2170562744140625,1,1
2020-05-16 12:01:29.887 -0400,9031.448979625,1.146072387695312,0.91522216796875,-0.2571563720703125,1,1
2020-05-16 12:01:29.957 -0400,9031.518829625,1.875762939453125,0.9962921142578125,-0.4318389892578125,1,1
2020-05-16 12:01:30.026 -0400,9031.588682625001,1.2508544921875,0.6529693603515625,-0.42388916015625,1,1
2020-05-16 12:01:30.096 -0400,9031.658528625001,1.738723754882812,0.6314849853515625,-0.2516326904296875,1,1
2020-05-16 12:01:30.166 -0400,9031.728375625,0.9090423583984375,0.1767578125,-0.2443389892578125,1,1
2020-05-16 12:01:30.236 -0400,9031.798226625,0.5948638916015625,0.2854156494140625,-0.0849609375,1,1
2020-05-16 12:01:30.306 -0400,9031.868075625001,0.6981658935546875,0.268585205078125,-0.0540618896484375,1,1
2020-05-16 12:01:30.376 -0400,9031.937920625001,0.9897003173828125,0.211273193359375,-0.020751953125,1,1
2020-05-16 12:01:30.446 -0400,9032.007767625,0.8921051025390625,0.2594451904296875,0.050689697265625,1,1
2020-05-16 12:01:30.515 -0400,9032.077610625001,1.162567138671875,0.5188751220703125,-0.0621490478515625,1,1
2020-05-16 12:01:30.585 -0400,9032.147454625001,1.3031005859375,0.6678924560546875,-0.435943603515625,1,1
2020-05-16 12:01:30.655 -0400,9032.217300625001,0.9449462890625,0.48663330078125,-0.2896575927734375,1,1
2020-05-16 12:01:30.725 -0400,9032.287147416668,0.6247406005859375,0.223846435546875,-0.1813812255859375,1,1
2020-05-16 12:01:30.795 -0400,9032.356995416667,0.742950439453125,0.5012054443359375,-0.2042083740234375,1,1
2020-05-16 12:01:30.865 -0400,9032.426838416668,1.14404296875,0.9599609375,-0.6119537353515625,1,1
2020-05-16 12:01:30.934 -0400,9032.496682416668,1.119674682617188,0.7926177978515625,-0.6961212158203125,1,1
2020-05-16 12:01:31.004 -0400,9032.566528416668,1.517242431640625,0.487518310546875,-0.57147216796875,1,1
2020-05-16 12:01:31.074 -0400,9032.636374416667,1.28546142578125,0.444000244140625,-0.38214111328125,1,1
2020-05-16 12:01:31.144 -0400,9032.706221416667,1.4852294921875,0.350799560546875,-0.1980438232421875,1,1
2020-05-16 12:01:31.214 -0400,9032.776068416668,1.052520751953125,0.4238739013671875,-0.212158203125,1,1
2020-05-16 12:01:31.284 -0400,9032.845917416667,0.786407470703125,0.4053802490234375,-0.0301513671875,1,1
2020-05-16 12:01:31.353 -0400,9032.915766416667,0.9527130126953125,0.3373870849609375,-0.0066070556640625,1,1
2020-05-16 12:01:31.423 -0400,9032.985613416668,1.086669921875,0.2066497802734375,-0.0034637451171875,1,1
2020-05-16 12:01:31.493 -0400,9033.055455416667,0.7115936279296875,0.1631011962890625,-0.0559539794921875,1,1
2020-05-16 12:01:31.563 -0400,9033.125297416667,0.689666748046875,0.3950958251953125,-0.1836395263671875,1,1
2020-05-16 12:01:31.633 -0400,9033.195141416667,0.9189453125,0.8336334228515625,-0.6485595703125,1,1
2020-05-16 12:01:31.703 -0400,9033.264984541667,1.080947875976562,0.446624755859375,-0.3244171142578125,1,1
2020-05-16 12:01:31.773 -0400,9033.334826541668,0.8088836669921875,0.4683990478515625,-0.3962554931640625,1,1
2020-05-16 12:01:31.842 -0400,9033.404664541667,0.6340484619140625,0.9506683349609375,-0.2244110107421875,1,1
2020-05-16 12:01:31.912 -0400,9033.474504541668,0.779266357421875,0.7940673828125,-0.25494384765625,1,1
2020-05-16 12:01:31.982 -0400,9033.544345541668,1.163650512695312,0.7063446044921875,-0.2866973876953125,1,1
2020-05-16 12:01:32.052 -0400,9033.614192541667,1.589614868164062,1.001373291015625,-0.3267974853515625,1,1
2020-05-16 12:01:32.122 -0400,9033.684037541667,1.04327392578125,0.787567138671875,-0.2370452880859375,1,1
2020-05-16 12:01:32.192 -0400,9033.753878541667,1.371063232421875,0.9469451904296875,-0.0477447509765625,1,1
2020-05-16 12:01:32.261 -0400,9033.823725541668,1.23406982421875,0.9097442626953125,-0.1339569091796875,1,1
2020-05-16 12:01:32.334 -0400,9033.893570541668,0.8600311279296875,0.656768798828125,0.031463623046875,1,1
2020-05-16 12:01:32.401 -0400,9033.963411541667,0.5186309814453125,0.433441162109375,-0.50555419921875,1,1
2020-05-16 12:01:32.471 -0400,9034.033261541666,0.483795166015625,0.2512054443359375,-0.4535980224609375,1,1
2020-05-16 12:01:32.541 -0400,9034.103108541667,0.3881072998046875,-0.051422119140625,-0.70941162109375,1,1
2020-05-16 12:01:32.611 -0400,9034.172953541667,0.2379302978515625,0.0453033447265625,-1.258346557617188,1,1
2020-05-16 12:01:32.680 -0400,9034.242802000001,0.1715850830078125,-0.071014404296875,-1.05413818359375,1,1
2020-05-16 12:01:32.757 -0400,9034.312648000001,0.2263641357421875,-0.0224609375,-0.9973907470703125,1,1
2020-05-16 12:01:32.870 -0400,9034.432387000001,-0.13763427734375,-0.0504608154296875,-0.60614013671875,1,1
2020-05-16 12:01:32.990 -0400,9034.552125,-0.1390228271484375,-0.14166259765625,-1.057220458984375,1,1
2020-05-16 12:01:33.110 -0400,9034.671857000001,-0.144744873046875,0.092620849609375,-1.388168334960938,1,1
2020-05-16 12:01:33.229 -0400,9034.791587,-0.087646484375,0.14276123046875,-1.093353271484375,1,1
2020-05-16 12:01:33.349 -0400,9034.911326000001,-0.073394775390625,0.01959228515625,-0.7689056396484375,1,1
2020-05-16 12:01:33.469 -0400,9035.031064000001,-0.1151885986328125,-0.10614013671875,-0.7173309326171875,1,1
2020-05-16 12:01:33.589 -0400,9035.150805000001,-0.0263214111328125,-0.0904541015625,-1.163299560546875,1,1
