loggingTime(txt),accelerometerTimestamp_sinceReboot(s),accelerometerAccelerationX(G),accelerometerAccelerationY(G),accelerometerAccelerationZ(G),batteryState,batteryLevel
2020-05-16 12:10:43.499 -0400,9490.496055916667,0.0007781982421875,-0.0626678466796875,-0.81005859375,1,0.99
2020-05-16 12:10:43.619 -0400,9490.615758916667,-0.0659637451171875,-0.145538330078125,-0.792938232421875,1,0.99
2020-05-16 12:10:43.739 -0400,9490.735467916667,-0.0648040771484375,-0.020477294921875,-1.035415649414062,1,0.99
2020-05-16 12:10:43.858 -0400,9490.855184041668,0.157867431640625,0.0174407958984375,-0.913909912109375,1,0.99
2020-05-16 12:10:43.978 -0400,9490.974894041667,0.4349822998046875,0.25244140625,-0.8988494873046875,1,0.99
2020-05-16 12:10:44.098 -0400,9491.094604041667,0.544952392578125,0.42449951171875,-0.572662353515625,1,0.99
2020-05-16 12:10:44.218 -0400,9491.214314041667,0.64630126953125,0.4111480712890625,-0.493682861328125,1,0.99
2020-05-16 12:10:44.337 -0400,9491.334017041667,1.138504028320312,0.44049072265625,-0.2655181884765625,1,0.99
2020-05-16 12:10:44.457 -0400,9491.453720041667,1.27874755859375,0.9092559814453125,-0.1170501708984375,1,0.99
2020-05-16 12:10:44.577 -0400,9491.573425041668,0.8532867431640625,0.3660888671875,-0.2296142578125,1,0.99
2020-05-16 12:10:44.697 -0400,9491.693129041667,0.361175537109375,0.338134765625,-0.126434326171875,1,0.99
2020-05-16 12:10:44.776 -0400,9491.762952041667,0.5154876708984375,0.42919921875,-0.2841949462890625,1,0.99
2020-05-16 12:10:44.836 -0400,9491.832777625001,0.7026214599609375,0.4882965087890625,-0.3914794921875,1,0.99
2020-05-16 12:10:44.906 -0400,9491.902605625,0.943878173828125,0.568389892578125,-0.467498779296875,1,0.99
2020-05-16 12:10:44.976 -0400,9491.972432625,1.554229736328125,0.81854248046875,-0.4589385986328125,1,0.99
2020-05-16 12:10:45.046 -0400,9492.042259625001,1.627609252929688,0.6865997314453125,-0.2837371826171875,1,0.99
2020-05-16 12:10:45.116 -0400,9492.112082625001,1.121246337890625,0.3602142333984375,-0.22747802734375,1,0.99
2020-05-16 12:10:45.185 -0400,9492.181910625,0.487335205078125,0.287933349609375,-0.1691741943359375,1,0.99
2020-05-16 12:10:45.255 -0400,9492.251736625001,0.3389739990234375,0.2869720458984375,-0.100494384765625,1,0.99
2020-05-16 12:10:45.325 -0400,9492.321566625,0.512451171875,0.2980499267578125,-0.084320068359375,1,0.99
2020-05-16 12:10:45.395 -0400,9492.391392625001,0.9139862060546875,0.30828857421875,0.011474609375,1,0.99
2020-05-16 12:10:45.464 -0400,9492.461220625,1.21832275390625,0.501190185546875,-0.2725830078125,1,0.99
2020-05-16 12:10:45.534 -0400,9492.531044625001,1.287322998046875,0.790435791015625,-0.570556640625,1,0.99
2020-05-16 12:10:45.604 -0400,9492.600870625001,1.287551879882812,0.4466094970703125,-0.550384521484375,1,0.99
2020-05-16 12:10:45.674 -0400,9492.670694625,0.562530517578125,0.311798095703125,-0.32574462890625,1,0.99
2020-05-16 12:10:45.744 -0400,9492.740522625001,0.2899932861328125,0.4436187744140625,-0.169921875,1,0.99
2020-05-16 12:10:45.814 -0400,9492.810350541668,0.51129150390625,0.7532501220703125,-0.2329254150390625,1,0.99
2020-05-16 12:10:45.883 -0400,9492.880178541667,0.9410247802734375,0.9049835205078125,-0.3292694091796875,1,0.99
2020-05-16 12:10:45.953 -0400,9492.950008541668,1.334243774414062,0.7536468505859375,-0.45465087890625,1,0.99
2020-05-16 12:10:46.023 -0400,9493.019842541667,1.30853271484375,0.5780181884765625,-0.384521484375,1,0.99
2020-05-16 12:10:46.093 -0400,9493.089670541667,1.29266357421875,0.4059295654296875,-0.30517578125,1,0.99
2020-05-16 12:10:46.163 -0400,9493.159495541668,0.7862396240234375,0.3835906982421875,-0.2291259765625,1,0.99
2020-05-16 12:10:46.236 -0400,9493.229319541668,0.488922119140625,0.3521881103515625,-0.2581024169921875,1,0.99
2020-05-16 12:10:46.303 -0400,9493.299147541667,0.690093994140625,0.3540496826171875,-0.20458984375,1,0.99
2020-05-16 12:10:46.372 -0400,9493.368976541668,1.164199829101562,0.34857177734375,-0.11773681640625,1,0.99
2020-05-16 12:10:46.442 -0400,9493.438804541667,1.080795288085938,0.2336883544921875,-0.1167449951171875,1,0.99
2020-05-16 12:10:46.512 -0400,9493.508634541668,1.130142211914062,0.289306640625,-0.236846923828125,1,0.99
2020-05-16 12:10:46.583 -0400,9493.578465541666,0.8964385986328125,0.4019012451171875,-0.3466949462890625,1,0.99
2020-05-16 12:10:46.652 -0400,9493.648293541668,1.15301513671875,0.4057769775390625,-0.38543701171875,1,0.99
2020-05-16 12:10:46.721 -0400,9493.718120541667,0.7224273681640625,0.30401611328125,-0.361114501953125,1,0.99
2020-05-16 12:10:46.791 -0400,9493.787947125,0.62506103515625,0.53948974609375,-0.5592193603515625,1,0.99
2020-05-16 12:10:46.861 -0400,9493.857775125001,0.5645751953125,0.58209228515625,-0.448211669921875,1,0.99
2020-05-16 12:10:46.931 -0400,9493.927604125001,0.7429351806640625,0.6307525634765625,-0.474334716796875,1,0.99
2020-05-16 12:10:47.001 -0400,9493.997432125001,1.451614379882812,0.916168212890625,-0.550506591796875,1,0.99
2020-05-16 12:10:47.071 -0400,9494.067262125001,1.672988891601562,0.6191558837890625,-0.519134521484375,1,0.99
2020-05-16 12:10:47.140 -0400,9494.137091125001,1.984756469726562,0.3372344970703125,-0.36895751953125,1,0.99
2020-05-16 12:10:47.210 -0400,9494.206916125,1.324142456054688,0.3229522705078125,-0.2620391845703125,1,0.99
2020-05-16 12:10:47.280 -0400,9494.276742125001,0.632080078125,0.2661285400390625,-0.1389312744140625,1,0.99
2020-05-16 12:10:47.350 -0400,9494.346569125,0.40850830078125,0.274688720703125,-0.0655517578125,1,0.99
2020-05-16 12:10:47.420 -0400,9494.416392125,0.345916748046875,0.122467041015625,-0.0057373046875,1,0.99
2020-05-16 12:10:47.489 -0400,9494.486217125001,0.3776092529296875,0.170562744140625,-0.13873291015625,1,0.99
2020-05-16 12:10:47.560 -0400,9494.556043125001,0.336090087890625,0.2009429931640625,-0.220550537109375,1,0.99
2020-05-16 12:10:47.629 -0400,9494.625870125001,0.4530029296875,0.3870391845703125,-0.405242919921875,1,0.99
2020-05-16 12:10:47.699 -0400,9494.695697125,1.615402221679688,0.8719940185546875,-0.4392242431640625,1,0.99
2020-05-16 12:10:47.769 -0400,9494.765524125001,1.045272827148438,0.7403717041015625,-0.8010711669921875,1,0.99
2020-05-16 12:10:47.839 -0400,9494.835356375001,1.037307739257812,0.582366943359375,-0.4383697509765625,1,0.99
2020-05-16 12:10:47.908 -0400,9494.905186375001,0.769775390625,0.7806854248046875,-0.2366943359375,1,0.99
2020-05-16 12:10:47.978 -0400,9494.975018375,0.769989013671875,0.909088134765625,-0.2269439697265625,1,0.99
2020-05-16 12:10:48.048 -0400,9495.044852375,0.73785400390625,0.905426025390625,-0.0988616943359375,1,0.99
2020-05-16 12:10:48.118 -0400,9495.114687375,0.7424774169921875,0.8817291259765625,-0.146697998046875,1,0.99
2020-05-16 12:10:48.188 -0400,9495.184518375001,1.775711059570312,1.441207885742188,-0.3809814453125,1,0.99
2020-05-16 12:10:48.258 -0400,9495.254346375001,1.970687866210938,0.7183685302734375,-0.290679931640625,1,0.99
2020-05-16 12:10:48.328 -0400,9495.324177375001,1.885726928710938,0.37371826171875,-0.2121429443359375,1,0.99
2020-05-16 12:10:48.397 -0400,9495.394005375001,1.148452758789062,0.30718994140625,-0.1695556640625,1,0.99
2020-05-16 12:10:48.467 -0400,9495.463836375,0.7730865478515625,0.2620086669921875,-0.07330322265625,1,0.99
2020-05-16 12:10:48.537 -0400,9495.533664375,0.7605133056640625,0.203704833984375,-0.017730712890625,1,0.99
2020-05-16 12:10:48.607 -0400,9495.603495375,0.9822235107421875,0.1039276123046875,0.1083526611328125,1,0.99
2020-05-16 12:10:48.677 -0400,9495.673328375,0.6554412841796875,0.2056884765625,-0.061920166015625,1,0.99
2020-05-16 12:10:48.746 -0400,9495.743158375,0.33807373046875,0.239593505859375,-0.3515625,1,0.99
2020-05-16 12:10:48.816 -0400,9495.812987375,0.772369384765625,1.223480224609375,-0.9862060546875,1,0.99
2020-05-16 12:10:48.886 -0400,9495.882819375001,0.97076416015625,0.8654937744140625,-0.643798828125,1,0.99
2020-05-16 12:10:48.956 -0400,9495.952654375,0.782867431640625,0.8100433349609375,-0.5951080322265625,1,0.99
2020-05-16 12:10:49.026 -0400,9496.022485375001,0.620758056640625,1.039031982421875,-0.41912841796875,1,0.99
2020-05-16 12:10:49.095 -0400,9496.092313375,0.4233856201171875,0.8209228515625,-0.3135528564453125,1,0.99
2020-05-16 12:10:49.166 -0400,9496.162145375001,0.640838623046875,0.8995513916015625,-0.111785888671875,1,0.99
2020-05-16 12:10:49.235 -0400,9496.231980375,2.052810668945312,1.010650634765625,0.033172607421875,1,0.99
2020-05-16 12:10:49.305 -0400,9496.301812375001,1.91961669921875,0.46844482421875,-0.2759552001953125,1,0.99
2020-05-16 12:10:49.375 -0400,9496.371644375,1.412399291992188,0.31939697265625,-0.1464385986328125,1,0.99
2020-05-16 12:10:49.445 -0400,9496.441475375001,0.8567047119140625,0.34295654296875,-0.054443359375,1,0.99
2020-05-16 12:10:49.515 -0400,9496.511309375001,0.60723876953125,0.2516632080078125,-0.0253753662109375,1,0.99
2020-05-16 12:10:49.584 -0400,9496.581139375001,0.5487823486328125,0.1127471923828125,-0.040863037109375,1,0.99
2020-05-16 12:10:49.654 -0400,9496.650969375001,0.540985107421875,0.144683837890625,-0.186431884765625,1,0.99
2020-05-16 12:10:49.724 -0400,9496.720800375,1.074691772460938,0.8743438720703125,-0.5981903076171875,1,0.99
2020-05-16 12:10:49.794 -0400,9496.790633375,0.9953765869140625,0.8521575927734375,-0.8465728759765625,1,0.99
2020-05-16 12:10:49.864 -0400,9496.860465375001,0.9229888916015625,0.7571563720703125,-0.5612640380859375,1,0.99
2020-05-16 12:10:49.934 -0400,9496.930295375001,0.6299896240234375,0.7229156494140625,-0.4466400146484375,1,0.99
2020-05-16 12:10:50.003 -0400,9497.000126375,0.4412689208984375,0.7175445556640625,-0.28009033203125,1,0.99
2020-05-16 12:10:50.074 -0400,9497.069960375,0.5770263671875,0.9149169921875,-0.311981201171875,1,0.99
2020-05-16 12:10:50.143 -0400,9497.139792375001,1.57977294921875,1.110321044921875,-0.470001220703125,1,0.99
2020-05-16 12:10:50.213 -0400,9497.209620375001,1.908294677734375,0.6181488037109375,-0.0823822021484375,1,0.99
2020-05-16 12:10:50.283 -0400,9497.279449375001,1.635238647460938,0.475494384765625,-0.1366424560546875,1,0.99
2020-05-16 12:10:50.353 -0400,9497.349279375001,0.98699951171875,0.222991943359375,-0.0142669677734375,1,0.99
2020-05-16 12:10:50.425 -0400,9497.419108375001,0.5210418701171875,0.0490264892578125,0.0314178466796875,1,0.99
2020-05-16 12:10:50.493 -0400,9497.488942375001,0.4049835205078125,0.0684051513671875,-0.005889892578125,1,0.99
2020-05-16 12:10:50.562 -0400,9497.558773375,0.6254425048828125,0.1816864013671875,-0.055999755859375,1,0.99
2020-05-16 12:10:50.632 -0400,9497.628599375001,0.6697540283203125,0.4360809326171875,-0.2349853515625,1,0.99
2020-05-16 12:10:50.702 -0400,9497.698427375,1.385147094726562,0.9805145263671875,-0.57330322265625,1,0.99
2020-05-16 12:10:50.772 -0400,9497.768258375001,1.302413940429688,0.8265533447265625,-0.742889404296875,1,0.99
2020-05-16 12:10:50.841 -0400,9497.838087166667,0.8762359619140625,0.493316650390625,-0.46112060546875,1,0.99
2020-05-16 12:10:50.911 -0400,9497.907916166667,0.5738525390625,0.4727935791015625,-0.2317352294921875,1,0.99
2020-05-16 12:10:50.981 -0400,9497.977743166668,0.3839111328125,0.527252197265625,-0.1615142822265625,1,0.99
2020-05-16 12:10:51.051 -0400,9498.047570166667,0.540191650390625,0.7266845703125,-0.136993408203125,1,0.99
2020-05-16 12:10:51.121 -0400,9498.117397166667,1.189926147460938,0.9334716796875,-0.1168060302734375,1,0.99
2020-05-16 12:10:51.190 -0400,9498.187230166668,1.359710693359375,0.4214019775390625,0.0277252197265625,1,0.99
2020-05-16 12:10:51.260 -0400,9498.257060166667,1.677215576171875,0.41015625,-0.243072509765625,1,0.99
2020-05-16 12:10:51.330 -0400,9498.326892166668,0.9499664306640625,0.2570037841796875,-0.2633514404296875,1,0.99
2020-05-16 12:10:51.400 -0400,9498.396723166667,0.515106201171875,0.1139068603515625,-0.2276458740234375,1,0.99
2020-05-16 12:10:51.470 -0400,9498.466550166668,0.366119384765625,0.125885009765625,-0.1602935791015625,1,0.99
2020-05-16 12:10:51.540 -0400,9498.536377166667,0.21661376953125,0.1444854736328125,-0.1100006103515625,1,0.99
2020-05-16 12:10:51.609 -0400,9498.606207166667,0.4641876220703125,0.3666839599609375,-0.1431732177734375,1,0.99
2020-05-16 12:10:51.679 -0400,9498.676031166668,0.4599761962890625,0.43975830078125,-0.2803955078125,1,0.99
2020-05-16 12:10:51.749 -0400,9498.745858166667,2.172531127929688,1.186416625976562,-0.587890625,1,0.99
2020-05-16 12:10:51.819 -0400,9498.815685166668,1.258529663085938,1.040206909179688,-0.7577056884765625,1,0.99
2020-05-16 12:10:51.889 -0400,9498.885510166667,0.8670806884765625,0.6515350341796875,-0.4774932861328125,1,0.99
2020-05-16 12:10:51.959 -0400,9498.955337166668,0.535980224609375,0.50885009765625,-0.29766845703125,1,0.99
2020-05-16 12:10:52.028 -0400,9499.025164166667,0.3005218505859375,0.5369873046875,-0.2041778564453125,1,0.99
2020-05-16 12:10:52.098 -0400,9499.094994166668,0.49908447265625,0.77490234375,-0.1859130859375,1,0.99
2020-05-16 12:10:52.168 -0400,9499.164827166667,0.77215576171875,0.7834014892578125,-0.1591949462890625,1,0.99
2020-05-16 12:10:52.238 -0400,9499.234662166667,2.233871459960938,1.367416381835938,-0.6128692626953125,1,0.99
2020-05-16 12:10:52.308 -0400,9499.304498166668,1.954742431640625,0.4925689697265625,-0.3496856689453125,1,0.99
2020-05-16 12:10:52.378 -0400,9499.374334166667,1.119369506835938,0.1839141845703125,-0.3951873779296875,1,0.99
2020-05-16 12:10:52.448 -0400,9499.444165166668,0.6483306884765625,0.2142791748046875,-0.2215423583984375,1,0.99
2020-05-16 12:10:52.517 -0400,9499.513997166667,0.595306396484375,0.153564453125,-0.1519775390625,1,0.99
2020-05-16 12:10:52.587 -0400,9499.583828166667,0.795135498046875,0.1352691650390625,-0.1006011962890625,1,0.99
2020-05-16 12:10:52.657 -0400,9499.653663166668,0.9442596435546875,0.2704925537109375,-0.0161590576171875,1,0.99
2020-05-16 12:10:52.727 -0400,9499.723494166667,1.011550903320312,0.7157745361328125,-0.24383544921875,1,0.99
2020-05-16 12:10:52.797 -0400,9499.793330375001,1.043533325195312,0.7829132080078125,-0.65557861328125,1,0.99
2020-05-16 12:10:52.866 -0400,9499.863162375001,0.8144073486328125,0.574249267578125,-0.494415283203125,1,0.99
2020-05-16 12:10:52.936 -0400,9499.932993375001,0.6800537109375,1.100234985351562,-0.3587799072265625,1,0.99
2020-05-16 12:10:53.006 -0400,9500.002824375,0.2613067626953125,0.7205657958984375,-0.389617919921875,1,0.99
2020-05-16 12:10:53.076 -0400,9500.072655375001,0.143768310546875,0.7552642822265625,-0.412200927734375,1,0.99
2020-05-16 12:10:53.146 -0400,9500.142481375,0.29669189453125,0.993499755859375,-0.396453857421875,1,0.99
2020-05-16 12:10:53.216 -0400,9500.212311375,1.015777587890625,1.09747314453125,-0.40399169921875,1,0.99
2020-05-16 12:10:53.289 -0400,9500.282139375,2.15606689453125,1.012405395507812,-0.351654052734375,1,0.99
2020-05-16 12:10:53.355 -0400,9500.351962375,1.866439819335938,0.49481201171875,-0.09307861328125,1,0.99
2020-05-16 12:10:53.425 -0400,9500.421789375001,1.018096923828125,0.331146240234375,-0.0998687744140625,1,0.99
2020-05-16 12:10:53.495 -0400,9500.491610375,0.4937744140625,0.246795654296875,-0.0317535400390625,1,0.99
2020-05-16 12:10:53.565 -0400,9500.561434375,0.41461181640625,0.6672821044921875,-0.3685455322265625,1,0.99
2020-05-16 12:10:53.635 -0400,9500.631260375001,0.001678466796875,0.915618896484375,-0.791961669921875,1,0.99
2020-05-16 12:10:53.704 -0400,9500.701084375001,1.034774780273438,0.3570404052734375,0.188507080078125,1,0.99
2020-05-16 12:10:53.774 -0400,9500.770909375,0.351409912109375,0.041290283203125,0.0556793212890625,1,0.99
2020-05-16 12:10:53.844 -0400,9500.840734625001,0.2901763916015625,-0.20965576171875,0.0104217529296875,1,0.99
2020-05-16 12:10:53.914 -0400,9500.910561625,0.5113677978515625,0.2022857666015625,-0.3368988037109375,1,0.99
2020-05-16 12:10:53.984 -0400,9500.980387625001,2.28240966796875,2.1898193359375,-1.196243286132812,1,0.99
2020-05-16 12:10:54.054 -0400,9501.050213625,0.3781585693359375,1.017578125,-0.7313690185546875,1,0.99
2020-05-16 12:10:54.123 -0400,9501.120040625001,0.168182373046875,0.9645843505859375,-0.6673583984375,1,0.99
2020-05-16 12:10:54.193 -0400,9501.189866625,-0.1601715087890625,0.4687957763671875,-0.366424560546875,1,0.99
2020-05-16 12:10:54.263 -0400,9501.259688625001,-0.36346435546875,-0.06121826171875,-0.1654205322265625,1,0.99
2020-05-16 12:10:54.333 -0400,9501.329515625001,-0.3664703369140625,0.4511260986328125,-0.37127685546875,1,0.99
2020-05-16 12:10:54.403 -0400,9501.399341625001,1.774612426757812,2.033096313476562,-0.8838653564453125,1,0.99
2020-05-16 12:10:54.473 -0400,9501.469170625001,1.4820556640625,1.29266357421875,-0.6088409423828125,1,0.99
2020-05-16 12:10:54.543 -0400,9501.538999625001,1.02337646484375,0.7001190185546875,-0.22698974609375,1,0.99
2020-05-16 12:10:54.612 -0400,9501.608825625,0.7534637451171875,0.366241455078125,-0.1335601806640625,1,0.99
2020-05-16 12:10:54.682 -0400,9501.678653625,0.366241455078125,-0.354217529296875,0.4359893798828125,1,0.99
2020-05-16 12:10:54.752 -0400,9501.748481625,0.2024078369140625,-0.1165313720703125,0.0334625244140625,1,0.99
2020-05-16 12:10:54.822 -0400,9501.818308041667,2.26116943359375,1.633712768554688,-1.133712768554688,1,0.99
2020-05-16 12:10:54.892 -0400,9501.888134041666,0.5967864990234375,1.167343139648438,-0.9071502685546875,1,0.99
2020-05-16 12:10:54.961 -0400,9501.957964041667,0.3648834228515625,0.8568878173828125,-0.462860107421875,1,0.99
2020-05-16 12:10:55.031 -0400,9502.027792041667,-0.068878173828125,0.4811248779296875,-0.3628692626953125,1,0.99
2020-05-16 12:10:55.102 -0400,9502.097619041668,-0.2794647216796875,0.3654022216796875,-0.2427215576171875,1,0.99
2020-05-16 12:10:55.181 -0400,9502.167445041667,-0.1017608642578125,0.498321533203125,-0.21746826171875,1,0.99
2020-05-16 12:10:55.241 -0400,9502.237272041668,1.6422119140625,1.593673706054688,-0.5401153564453125,1,0.99
2020-05-16 12:10:55.311 -0400,9502.307098041667,2.517227172851562,1.012039184570312,-0.520660400390625,1,0.99
2020-05-16 12:10:55.380 -0400,9502.376926041667,1.060272216796875,0.42181396484375,-0.5969390869140625,1,0.99
2020-05-16 12:10:55.450 -0400,9502.446755041667,0.33489990234375,0.091888427734375,-0.285919189453125,1,0.99
2020-05-16 12:10:55.520 -0400,9502.516585041667,0.2982330322265625,0.122650146484375,-0.1790313720703125,1,0.99
2020-05-16 12:10:55.590 -0400,9502.586414041667,0.8133392333984375,0.160491943359375,0.188079833984375,1,0.99
2020-05-16 12:10:55.660 -0400,9502.656244041667,0.8540191650390625,0.388031005859375,0.0697174072265625,1,0.99
2020-05-16 12:10:55.729 -0400,9502.726070041666,1.066009521484375,1.144195556640625,-0.371856689453125,1,0.99
2020-05-16 12:10:55.799 -0400,9502.795898291668,0.84515380859375,0.7668304443359375,-0.8349609375,1,0.99
2020-05-16 12:10:55.869 -0400,9502.865724291667,0.6540069580078125,0.5507965087890625,-0.3877105712890625,1,0.99
2020-05-16 12:10:55.939 -0400,9502.935552291667,0.4252471923828125,0.5979461669921875,-0.2845458984375,1,0.99
2020-05-16 12:10:56.009 -0400,9503.005376291667,0.41168212890625,0.8779296875,-0.3032989501953125,1,0.99
2020-05-16 12:10:56.078 -0400,9503.075203291668,0.4478607177734375,0.8438720703125,-0.397064208984375,1,0.99
2020-05-16 12:10:56.148 -0400,9503.145027291666,0.861907958984375,0.7827911376953125,-0.3863983154296875,1,0.99
2020-05-16 12:10:56.218 -0400,9503.214854291668,2.335128784179688,0.9474945068359375,-0.4997711181640625,1,0.99
2020-05-16 12:10:56.288 -0400,9503.284683291668,1.765579223632812,0.5713043212890625,-0.5948638916015625,1,0.99
2020-05-16 12:10:56.358 -0400,9503.354510291667,1.368560791015625,0.2669525146484375,-0.10260009765625,1,0.99
2020-05-16 12:10:56.428 -0400,9503.424336291668,0.7873687744140625,0.1633148193359375,-0.109710693359375,1,0.99
2020-05-16 12:10:56.497 -0400,9503.494163291667,0.5008697509765625,0.0833740234375,0.00048828125,1,0.99
2020-05-16 12:10:56.567 -0400,9503.563993291667,0.5413970947265625,-0.00299072265625,0.036102294921875,1,0.99
2020-05-16 12:10:56.637 -0400,9503.633823291668,0.87603759765625,0.2573089599609375,0.0159454345703125,1,0.99
2020-05-16 12:10:56.707 -0400,9503.703649291667,0.846282958984375,0.921173095703125,-0.454376220703125,1,0.99
2020-05-16 12:10:56.777 -0400,9503.773476291668,1.338226318359375,0.6267242431640625,-0.6640777587890625,1,0.99
2020-05-16 12:10:56.847 -0400,9503.843301500001,1.03045654296875,0.4275054931640625,-0.3610687255859375,1,0.99
2020-05-16 12:10:56.916 -0400,9503.913125500001,0.728515625,0.543060302734375,-0.321441650390625,1,0.99
2020-05-16 12:10:56.986 -0400,9503.9829525,0.519775390625,0.419586181640625,-0.340606689453125,1,0.99
2020-05-16 12:10:57.056 -0400,9504.052783500001,0.5695953369140625,0.5005035400390625,-0.4068450927734375,1,0.99
2020-05-16 12:10:57.126 -0400,9504.122618500001,0.963897705078125,0.7828369140625,-0.300872802734375,1,0.99
2020-05-16 12:10:57.196 -0400,9504.192451500001,2.26995849609375,1.236953735351562,-0.3776702880859375,1,0.99
2020-05-16 12:10:57.266 -0400,9504.262286500001,2.027481079101562,0.4736480712890625,-0.12066650390625,1,0.99
2020-05-16 12:10:57.340 -0400,9504.3321185,1.438720703125,0.3119659423828125,-0.0169525146484375,1,0.99
2020-05-16 12:10:57.405 -0400,9504.401949500001,0.8770599365234375,0.1759490966796875,-0.0085906982421875,1,0.99
2020-05-16 12:10:57.475 -0400,9504.471778500001,0.5799102783203125,0.0489654541015625,0.004241943359375,1,0.99
2020-05-16 12:10:57.545 -0400,9504.5416045,0.6223602294921875,0.07843017578125,-0.05657958984375,1,0.99
2020-05-16 12:10:57.615 -0400,9504.6114275,0.4855804443359375,0.2994537353515625,0.01025390625,1,0.99
2020-05-16 12:10:57.685 -0400,9504.681253500001,-0.035919189453125,0.2731170654296875,-0.123779296875,1,0.99
2020-05-16 12:10:57.754 -0400,9504.7510795,-0.450439453125,1.359344482421875,-0.7543487548828125,1,0.99
2020-05-16 12:10:57.824 -0400,9504.820901250001,0.537689208984375,1.495223999023438,-0.9952239990234375,1,0.99
2020-05-16 12:10:57.894 -0400,9504.89072725,0.1898345947265625,1.022354125976562,-0.6331939697265625,1,0.99
2020-05-16 12:10:57.964 -0400,9504.96055125,0.2573089599609375,0.8528594970703125,-0.502532958984375,1,0.99
2020-05-16 12:10:58.034 -0400,9505.03037925,-0.054962158203125,0.4189300537109375,-0.363677978515625,1,0.99
2020-05-16 12:10:58.103 -0400,9505.10020425,-0.189453125,0.425994873046875,-0.1488189697265625,1,0.99
2020-05-16 12:10:58.173 -0400,9505.170028250001,-0.171844482421875,0.432281494140625,-0.01434326171875,1,0.99
2020-05-16 12:10:58.243 -0400,9505.239854250001,1.054824829101562,1.823440551757812,-0.4277496337890625,1,0.99
2020-05-16 12:10:58.313 -0400,9505.30968525,2.004180908203125,1.422515869140625,-0.5727386474609375,1,0.99
2020-05-16 12:10:58.383 -0400,9505.379512250001,1.193984985351562,0.7415618896484375,-0.2626953125,1,0.99
2020-05-16 12:10:58.453 -0400,9505.449339250001,0.52764892578125,0.3784027099609375,-0.08636474609375,1,0.99
2020-05-16 12:10:58.522 -0400,9505.519168250001,0.325042724609375,0.1945343017578125,-0.1650390625,1,0.99
2020-05-16 12:10:58.592 -0400,9505.58899925,0.3264312744140625,0.2425537109375,0.10009765625,1,0.99
2020-05-16 12:10:58.662 -0400,9505.65882925,0.4100341796875,0.3782196044921875,0.102203369140625,1,0.99
2020-05-16 12:10:58.732 -0400,9505.72865925,1.330337524414062,1.290390014648438,-0.268951416015625,1,0.99
2020-05-16 12:10:58.802 -0400,9505.79848725,1.502838134765625,0.9353179931640625,-0.822174072265625,1,0.99
2020-05-16 12:10:58.872 -0400,9505.868314250001,0.94146728515625,0.68682861328125,-0.6188201904296875,1,0.99
2020-05-16 12:10:58.941 -0400,9505.93814025,0.292510986328125,0.5486907958984375,-0.057891845703125,1,0.99
2020-05-16 12:10:59.011 -0400,9506.007965250001,0.26904296875,0.3350067138671875,-0.191436767578125,1,0.99
2020-05-16 12:10:59.081 -0400,9506.07779225,0.41595458984375,0.446075439453125,-0.163177490234375,1,0.99
2020-05-16 12:10:59.151 -0400,9506.147624250001,0.783538818359375,0.58917236328125,-0.173309326171875,1,0.99
2020-05-16 12:10:59.221 -0400,9506.21745425,3.000717163085938,0.901702880859375,-0.4869842529296875,1,0.99
2020-05-16 12:10:59.291 -0400,9506.28728325,1.9534912109375,0.4561004638671875,-0.854248046875,1,0.99
2020-05-16 12:10:59.361 -0400,9506.357106250001,1.123519897460938,0.3348236083984375,-0.5045166015625,1,0.99
2020-05-16 12:10:59.430 -0400,9506.426934250001,0.5431976318359375,0.1402130126953125,-0.167266845703125,1,0.99
2020-05-16 12:10:59.500 -0400,9506.49675925,0.383758544921875,0.053436279296875,-0.0774688720703125,1,0.99
2020-05-16 12:10:59.570 -0400,9506.566582250001,0.5222015380859375,0.0578460693359375,0.0253143310546875,1,0.99
2020-05-16 12:10:59.640 -0400,9506.636404250001,0.5315399169921875,0.2760162353515625,0.183380126953125,1,0.99
2020-05-16 12:10:59.710 -0400,9506.706229250001,0.2056732177734375,1.229354858398438,-0.002288818359375,1,0.99
2020-05-16 12:10:59.779 -0400,9506.776057250001,0.6516876220703125,1.079803466796875,-0.7248077392578125,1,0.99
2020-05-16 12:10:59.849 -0400,9506.845882375001,0.98876953125,0.69207763671875,-0.3773193359375,1,0.99
2020-05-16 12:10:59.919 -0400,9506.915703375,0.7708587646484375,0.869171142578125,-0.3141326904296875,1,0.99
2020-05-16 12:10:59.989 -0400,9506.985529375001,0.622283935546875,0.4455413818359375,-0.342987060546875,1,0.99
2020-05-16 12:11:00.059 -0400,9507.055356375,0.8618621826171875,0.6463470458984375,-0.3090667724609375,1,0.99
2020-05-16 12:11:00.128 -0400,9507.125182375001,1.072036743164062,0.7006988525390625,-0.2585601806640625,1,0.99
2020-05-16 12:11:00.198 -0400,9507.195011375001,1.670547485351562,0.9233245849609375,-0.59796142578125,1,0.99
2020-05-16 12:11:00.268 -0400,9507.264844375,1.624969482421875,0.5277099609375,-0.4748382568359375,1,0.99
2020-05-16 12:11:00.340 -0400,9507.334674375001,1.2901611328125,0.2688446044921875,-0.331268310546875,1,0.99
2020-05-16 12:11:00.408 -0400,9507.404500375,0.6538238525390625,0.276092529296875,-0.2219085693359375,1,0.99
2020-05-16 12:11:00.478 -0400,9507.474326375001,0.5398712158203125,0.2283782958984375,-0.0935821533203125,1,0.99
2020-05-16 12:11:00.547 -0400,9507.544152375001,0.8948516845703125,0.200042724609375,0.0737152099609375,1,0.99
2020-05-16 12:11:00.617 -0400,9507.613979375001,0.6868896484375,0.286712646484375,0.140899658203125,1,0.99
2020-05-16 12:11:00.687 -0400,9507.683803375001,0.3413238525390625,0.431640625,-0.0316314697265625,1,0.99
2020-05-16 12:11:00.757 -0400,9507.753629375,0.6869659423828125,1.128814697265625,-0.61676025390625,1,0.99
2020-05-16 12:11:00.827 -0400,9507.823457125001,1.321304321289062,0.574462890625,-0.7306671142578125,1,0.99
2020-05-16 12:11:00.897 -0400,9507.893286125001,1.038742065429688,0.578582763671875,-0.5805816650390625,1,0.99
2020-05-16 12:11:00.966 -0400,9507.963115125001,0.5719146728515625,0.5414581298828125,-0.3806610107421875,1,0.99
2020-05-16 12:11:01.036 -0400,9508.032945125,0.5477752685546875,0.5438079833984375,-0.4258880615234375,1,0.99
2020-05-16 12:11:01.106 -0400,9508.102775125,0.7757110595703125,0.5516815185546875,-0.4950714111328125,1,0.99
2020-05-16 12:11:01.176 -0400,9508.172610125001,1.17547607421875,0.7063446044921875,-0.544464111328125,1,0.99
2020-05-16 12:11:01.246 -0400,9508.242440125001,1.894699096679688,0.2143707275390625,-0.1048583984375,1,0.99
2020-05-16 12:11:01.316 -0400,9508.312273125001,1.84698486328125,0.3913116455078125,-0.273345947265625,1,0.99
2020-05-16 12:11:01.385 -0400,9508.382104125001,0.8833465576171875,0.278594970703125,-0.20794677734375,1,0.99
2020-05-16 12:11:01.455 -0400,9508.451937125001,0.6452484130859375,0.335235595703125,-0.14093017578125,1,0.99
2020-05-16 12:11:01.525 -0400,9508.521769125,0.5001220703125,0.1768646240234375,-0.0770111083984375,1,0.99
2020-05-16 12:11:01.595 -0400,9508.591601125001,0.5657958984375,0.15234375,-0.0516510009765625,1,0.99
2020-05-16 12:11:01.665 -0400,9508.661435125001,0.6004486083984375,0.2768707275390625,0.1803436279296875,1,0.99
2020-05-16 12:11:01.734 -0400,9508.731266125,0.8635101318359375,0.841064453125,-0.2475738525390625,1,0.99
2020-05-16 12:11:01.804 -0400,9508.801097250001,1.004959106445312,0.8280029296875,-0.809967041015625,1,0.99
2020-05-16 12:11:01.874 -0400,9508.87092625,1.218414306640625,0.44512939453125,-0.398681640625,1,0.99
2020-05-16 12:11:01.944 -0400,9508.94075625,0.830291748046875,0.5950469970703125,-0.4577484130859375,1,0.99
2020-05-16 12:11:02.014 -0400,9509.010587250001,0.6173553466796875,0.574249267578125,-0.2905426025390625,1,0.99
2020-05-16 12:11:02.084 -0400,9509.080412250001,0.802215576171875,0.53582763671875,-0.2908782958984375,1,0.99
2020-05-16 12:11:02.153 -0400,9509.150240250001,0.9035186767578125,0.6451416015625,-0.3658294677734375,1,0.99
2020-05-16 12:11:02.223 -0400,9509.22006625,1.647918701171875,0.9393463134765625,-0.6349029541015625,1,0.99
2020-05-16 12:11:02.293 -0400,9509.289893250001,1.680908203125,0.56982421875,-0.4269561767578125,1,0.99
2020-05-16 12:11:02.363 -0400,9509.35972025,1.696365356445312,0.34423828125,-0.2674560546875,1,0.99
2020-05-16 12:11:02.433 -0400,9509.429544250001,0.8861083984375,0.335418701171875,-0.18780517578125,1,0.99
2020-05-16 12:11:02.503 -0400,9509.499370250001,0.7326202392578125,0.232666015625,-0.1302642822265625,1,0.99
2020-05-16 12:11:02.572 -0400,9509.56919425,0.613861083984375,0.1901092529296875,-0.053863525390625,1,0.99
2020-05-16 12:11:02.642 -0400,9509.639017250001,0.668670654296875,0.14288330078125,0.05029296875,1,0.99
2020-05-16 12:11:02.712 -0400,9509.70884125,0.58905029296875,0.4556732177734375,0.0872955322265625,1,0.99
2020-05-16 12:11:02.782 -0400,9509.77866625,0.6820831298828125,0.934906005859375,-0.234954833984375,1,0.99
2020-05-16 12:11:02.852 -0400,9509.848493916666,1.243026733398438,0.91644287109375,-0.7190093994140625,1,0.99
2020-05-16 12:11:02.922 -0400,9509.918319916667,1.089874267578125,0.2021026611328125,-0.2912750244140625,1,0.99
2020-05-16 12:11:02.992 -0400,9509.988144916668,0.602203369140625,0.5625,-0.349761962890625,1,0.99
2020-05-16 12:11:03.061 -0400,9510.057970916667,0.4837799072265625,0.480194091796875,-0.363677978515625,1,0.99
2020-05-16 12:11:03.131 -0400,9510.127796916668,0.7198333740234375,0.5556640625,-0.3922119140625,1,0.99
2020-05-16 12:11:03.201 -0400,9510.197624916667,1.176101684570312,0.6882781982421875,-0.39691162109375,1,0.99
2020-05-16 12:11:03.271 -0400,9510.267449916668,1.553436279296875,0.6890869140625,-0.3546600341796875,1,0.99
2020-05-16 12:11:03.340 -0400,9510.337276916667,1.376602172851562,0.523468017578125,-0.3265533447265625,1,0.99
2020-05-16 12:11:03.410 -0400,9510.407104916667,1.516067504882812,0.42169189453125,-0.1600189208984375,1,0.99
2020-05-16 12:11:03.480 -0400,9510.476931916668,1.007736206054688,0.2726898193359375,-0.0445709228515625,1,0.99
2020-05-16 12:11:03.550 -0400,9510.546758916667,0.6039886474609375,0.2653961181640625,-0.0438079833984375,1,0.99
2020-05-16 12:11:03.620 -0400,9510.616581916667,0.5117034912109375,0.2798004150390625,-0.0251922607421875,1,0.99
2020-05-16 12:11:03.690 -0400,9510.686402916666,0.6200408935546875,0.1863861083984375,-0.0396728515625,1,0.99
2020-05-16 12:11:03.759 -0400,9510.756222916667,0.6729736328125,0.41632080078125,-0.0005645751953125,1,0.99
2020-05-16 12:11:03.829 -0400,9510.826045666667,0.8983612060546875,0.880035400390625,-0.1090545654296875,1,0.99
2020-05-16 12:11:03.899 -0400,9510.895871666668,0.674591064453125,0.7787017822265625,-0.747100830078125,1,0.99
2020-05-16 12:11:03.969 -0400,9510.965694666667,1.174285888671875,0.209381103515625,-0.49371337890625,1,0.99
2020-05-16 12:11:04.039 -0400,9511.035523666667,0.7587738037109375,0.3275604248046875,-0.4916534423828125,1,0.99
2020-05-16 12:11:04.109 -0400,9511.105351666667,0.4894256591796875,0.48956298828125,-0.1769256591796875,1,0.99
2020-05-16 12:11:04.178 -0400,9511.175177666668,0.763397216796875,0.586669921875,-0.266082763671875,1,0.99
2020-05-16 12:11:04.248 -0400,9511.244999666667,1.245208740234375,0.5521392822265625,-0.3489990234375,1,0.99
2020-05-16 12:11:04.328 -0400,9511.314827666667,1.165847778320312,0.5331268310546875,-0.303192138671875,1,0.99
2020-05-16 12:11:04.388 -0400,9511.384656666667,1.2987060546875,0.675445556640625,-0.4004669189453125,1,0.99
2020-05-16 12:11:04.458 -0400,9511.454490666667,1.502487182617188,0.530548095703125,-0.3178863525390625,1,0.99
2020-05-16 12:11:04.528 -0400,9511.524326666668,1.033111572265625,0.2435302734375,-0.2912750244140625,1,0.99
2020-05-16 12:11:04.597 -0400,9511.594163666667,0.4905853271484375,0.22479248046875,-0.284820556640625,1,0.99
2020-05-16 12:11:04.667 -0400,9511.663999666667,0.4963836669921875,0.2449188232421875,-0.12347412109375,1,0.99
2020-05-16 12:11:04.737 -0400,9511.733831666666,0.760986328125,0.297760009765625,-0.0556488037109375,1,0.99
2020-05-16 12:11:04.807 -0400,9511.803663000001,0.972320556640625,0.357818603515625,-0.0028228759765625,1,0.99
2020-05-16 12:11:04.877 -0400,9511.873494000001,1.1895751953125,0.460845947265625,-0.03424072265625,1,0.99
2020-05-16 12:11:04.947 -0400,9511.943324,1.379013061523438,0.571075439453125,-0.4815673828125,1,0.99
2020-05-16 12:11:05.017 -0400,9512.013158,0.996551513671875,0.3961334228515625,-0.3630828857421875,1,0.99
2020-05-16 12:11:05.086 -0400,9512.082991000001,0.4652099609375,0.3455963134765625,-0.431396484375,1,0.99
2020-05-16 12:11:05.156 -0400,9512.152823,0.3828582763671875,0.2412872314453125,-0.2139892578125,1,0.99
2020-05-16 12:11:05.226 -0400,9512.222656,0.579376220703125,0.3673553466796875,-0.3212738037109375,1,0.99
2020-05-16 12:11:05.296 -0400,9512.292489000001,1.3765869140625,0.670867919921875,-0.543609619140625,1,0.99
2020-05-16 12:11:05.366 -0400,9512.36232,1.784072875976562,0.8656768798828125,-0.4892425537109375,1,0.99
2020-05-16 12:11:05.435 -0400,9512.432151000001,1.288116455078125,0.3773651123046875,-0.3817291259765625,1,0.99
2020-05-16 12:11:05.505 -0400,9512.501981000001,1.180068969726562,0.506744384765625,-0.3609161376953125,1,0.99
2020-05-16 12:11:05.575 -0400,9512.571813,0.8586883544921875,0.4395751953125,-0.308380126953125,1,0.99
2020-05-16 12:11:05.645 -0400,9512.641643000001,0.6437835693359375,0.235107421875,-0.1603546142578125,1,0.99
2020-05-16 12:11:05.715 -0400,9512.711473000001,0.571380615234375,0.2400054931640625,-0.05902099609375,1,0.99
2020-05-16 12:11:05.784 -0400,9512.781305,0.816192626953125,0.294525146484375,-0.0600433349609375,1,0.99
2020-05-16 12:11:05.854 -0400,9512.851136875001,0.9470062255859375,0.2415924072265625,0.03594970703125,1,0.99
2020-05-16 12:11:05.924 -0400,9512.920966875001,1.153091430664062,0.41009521484375,-0.0726470947265625,1,0.99
2020-05-16 12:11:05.994 -0400,9512.990798875,1.181854248046875,0.55389404296875,-0.4460906982421875,1,0.99
2020-05-16 12:11:06.064 -0400,9513.060629875001,1.4166259765625,0.5389862060546875,-0.4601287841796875,1,0.99
2020-05-16 12:11:06.134 -0400,9513.130463875001,0.561859130859375,0.01531982421875,-0.289581298828125,1,0.99
2020-05-16 12:11:06.203 -0400,9513.200299875001,0.4141082763671875,0.2673187255859375,-0.3234405517578125,1,0.99
2020-05-16 12:11:06.278 -0400,9513.270132875001,0.557647705078125,0.4818267822265625,-0.28216552734375,1,0.99
2020-05-16 12:11:06.343 -0400,9513.339963875,1.068923950195312,0.8047027587890625,-0.5072479248046875,1,0.99
2020-05-16 12:11:06.413 -0400,9513.409795875001,1.1756591796875,0.7727508544921875,-0.430999755859375,1,0.99
2020-05-16 12:11:06.483 -0400,9513.479624875001,1.271896362304688,0.5722198486328125,-0.4293060302734375,1,0.99
2020-05-16 12:11:06.553 -0400,9513.549452875,1.641708374023438,0.6217193603515625,-0.3252410888671875,1,0.99
2020-05-16 12:11:06.622 -0400,9513.619285875,1.227767944335938,0.319091796875,-0.2940521240234375,1,0.99
2020-05-16 12:11:06.692 -0400,9513.689114875,0.67547607421875,0.202545166015625,-0.252105712890625,1,0.99
2020-05-16 12:11:06.762 -0400,9513.758948875,0.60882568359375,0.296875,-0.173980712890625,1,0.99
2020-05-16 12:11:06.832 -0400,9513.828789500001,0.69952392578125,0.2105255126953125,-0.0754241943359375,1,0.99
2020-05-16 12:11:06.902 -0400,9513.8986195,0.794677734375,0.20172119140625,-0.066162109375,1,0.99
2020-05-16 12:11:06.971 -0400,9513.9684485,0.8981170654296875,0.469818115234375,-0.0867919921875,1,0.99
2020-05-16 12:11:07.042 -0400,9514.038275500001,1.191421508789062,0.523712158203125,-0.3305511474609375,1,0.99
2020-05-16 12:11:07.111 -0400,9514.1081015,1.420303344726562,0.580535888671875,-0.4035797119140625,1,0.99
2020-05-16 12:11:07.181 -0400,9514.1779245,0.6022491455078125,0.2509613037109375,-0.28314208984375,1,0.99
2020-05-16 12:11:07.251 -0400,9514.247751500001,0.546661376953125,0.136444091796875,-0.2682342529296875,1,0.99
2020-05-16 12:11:07.321 -0400,9514.3175785,0.720367431640625,0.410491943359375,-0.4155120849609375,1,0.99
2020-05-16 12:11:07.391 -0400,9514.387410500001,1.192428588867188,0.6698150634765625,-0.7021484375,1,0.99
2020-05-16 12:11:07.460 -0400,9514.457242500001,1.307052612304688,0.5785675048828125,-0.6185455322265625,1,0.99
2020-05-16 12:11:07.530 -0400,9514.527071500001,1.519378662109375,0.5651397705078125,-0.4896087646484375,1,0.99
2020-05-16 12:11:07.600 -0400,9514.596897500001,1.714141845703125,0.47015380859375,-0.314056396484375,1,0.99
2020-05-16 12:11:07.670 -0400,9514.6667275,1.2740478515625,0.3083343505859375,-0.168731689453125,1,0.99
2020-05-16 12:11:07.740 -0400,9514.7365615,0.840576171875,0.2839508056640625,-0.167816162109375,1,0.99
2020-05-16 12:11:07.810 -0400,9514.806394500001,0.694000244140625,0.30389404296875,-0.06304931640625,1,0.99
2020-05-16 12:11:07.879 -0400,9514.876228500001,0.8229217529296875,0.3177490234375,-0.033935546875,1,0.99
2020-05-16 12:11:07.949 -0400,9514.946057500001,0.7231903076171875,0.2154388427734375,0.0546722412109375,1,0.99
2020-05-16 12:11:08.019 -0400,9515.015886500001,0.6666717529296875,0.3944549560546875,-0.2027740478515625,1,0.99
2020-05-16 12:11:08.089 -0400,9515.0857185,0.7670135498046875,0.449554443359375,-0.2525634765625,1,0.99
2020-05-16 12:11:08.159 -0400,9515.155554500001,1.104522705078125,0.5254364013671875,-0.3184967041015625,1,0.99
2020-05-16 12:11:08.229 -0400,9515.2253865,1.0150146484375,0.6228179931640625,-0.47662353515625,1,0.99
2020-05-16 12:11:08.298 -0400,9515.295217500001,0.95440673828125,0.76837158203125,-0.5970611572265625,1,0.99
2020-05-16 12:11:08.368 -0400,9515.365050500001,0.9388885498046875,0.594207763671875,-0.70428466796875,1,0.99
2020-05-16 12:11:08.438 -0400,9515.4348775,0.9756927490234375,0.5655517578125,-0.63372802734375,1,0.99
2020-05-16 12:11:08.508 -0400,9515.504705500001,1.5311279296875,0.8126678466796875,-0.586334228515625,1,0.99
2020-05-16 12:11:08.578 -0400,9515.574533500001,1.672622680664062,0.680755615234375,-0.4914703369140625,1,0.99
2020-05-16 12:11:08.648 -0400,9515.644366500001,1.69091796875,0.4319610595703125,-0.3461761474609375,1,0.99
2020-05-16 12:11:08.717 -0400,9515.7141985,1.139678955078125,0.3167572021484375,-0.2170562744140625,1,0.99
2020-05-16 12:11:08.787 -0400,9515.784029500001,0.74853515625,0.2965240478515625,-0.1347503662109375,1,0.99
2020-05-16 12:11:08.857 -0400,9515.853864875,0.6819000244140625,0.2610626220703125,-0.0602264404296875,1,0.99
2020-05-16 12:11:08.927 -0400,9515.923698875,0.771331787109375,0.26824951171875,-0.0210723876953125,1,0.99
2020-05-16 12:11:08.997 -0400,9515.993532875,0.646087646484375,0.206817626953125,0.0040740966796875,1,0.99
2020-05-16 12:11:09.067 -0400,9516.063369875001,0.7101287841796875,0.3473052978515625,-0.180389404296875,1,0.99
2020-05-16 12:11:09.137 -0400,9516.133204875001,1.0784912109375,0.9283905029296875,-0.41064453125,1,0.99
2020-05-16 12:11:09.206 -0400,9516.203036875,1.312103271484375,0.7680206298828125,-0.5499267578125,1,0.99
2020-05-16 12:11:09.276 -0400,9516.272868875001,0.9172515869140625,0.5148468017578125,-0.404815673828125,1,0.99
2020-05-16 12:11:09.346 -0400,9516.342704875,0.7700653076171875,0.4429473876953125,-0.3759918212890625,1,0.99
2020-05-16 12:11:09.416 -0400,9516.412535875001,1.072662353515625,0.6885833740234375,-0.399688720703125,1,0.99
2020-05-16 12:11:09.485 -0400,9516.482366875001,1.023727416992188,0.814666748046875,-0.496856689453125,1,0.99
2020-05-16 12:11:09.555 -0400,9516.552194875001,0.88751220703125,0.8320159912109375,-0.6093902587890625,1,0.99
2020-05-16 12:11:09.625 -0400,9516.622023875001,1.675445556640625,0.95965576171875,-0.6090850830078125,1,0.99
2020-05-16 12:11:09.695 -0400,9516.691851875001,2.052734375,0.6833343505859375,-0.4273529052734375,1,0.99
2020-05-16 12:11:09.765 -0400,9516.761677875,1.399520874023438,0.3564605712890625,-0.2191925048828125,1,0.99
2020-05-16 12:11:09.835 -0400,9516.831506875,1.131683349609375,0.275604248046875,-0.15008544921875,1,0.99
2020-05-16 12:11:09.904 -0400,9516.901333875001,0.9265289306640625,0.2943572998046875,-0.114105224609375,1,0.99
2020-05-16 12:11:09.974 -0400,9516.971162875001,0.8154754638671875,0.18634033203125,0.0478515625,1,0.99
2020-05-16 12:11:10.044 -0400,9517.040994875,0.442718505859375,0.3120574951171875,0.1309661865234375,1,0.99
2020-05-16 12:11:10.114 -0400,9517.110825875001,0.5982513427734375,0.4167938232421875,0.0121612548828125,1,0.99
2020-05-16 12:11:10.184 -0400,9517.180654875001,0.8571014404296875,0.7972564697265625,-0.423309326171875,1,0.99
2020-05-16 12:11:10.254 -0400,9517.250485875,1.058837890625,0.6337432861328125,-0.5102691650390625,1,0.99
2020-05-16 12:11:10.328 -0400,9517.320312875001,1.048660278320312,0.53216552734375,-0.4890899658203125,1,0.99
2020-05-16 12:11:10.394 -0400,9517.390137875,1.147598266601562,0.8641510009765625,-0.588714599609375,1,0.99
2020-05-16 12:11:10.463 -0400,9517.459967875,1.35479736328125,0.8504486083984375,-0.5961151123046875,1,0.99
2020-05-16 12:11:10.533 -0400,9517.529795875,1.050048828125,0.5172119140625,-0.6374053955078125,1,0.99
2020-05-16 12:11:10.603 -0400,9517.599620875,1.245071411132812,0.665924072265625,-0.644317626953125,1,0.99
2020-05-16 12:11:10.673 -0400,9517.669444875,1.885650634765625,0.6117095947265625,-0.448211669921875,1,0.99
2020-05-16 12:11:10.742 -0400,9517.739269875001,1.835418701171875,0.3419647216796875,-0.3252105712890625,1,0.99
2020-05-16 12:11:10.812 -0400,9517.809100375001,1.028411865234375,0.2964630126953125,-0.2607574462890625,1,0.99
2020-05-16 12:11:10.882 -0400,9517.878931375,0.798828125,0.31658935546875,-0.09246826171875,1,0.99
2020-05-16 12:11:10.952 -0400,9517.948760375,0.6437225341796875,0.2496795654296875,-0.041961669921875,1,0.99
2020-05-16 12:11:11.022 -0400,9518.018593375,0.79400634765625,0.2420654296875,-0.00762939453125,1,0.99
2020-05-16 12:11:11.092 -0400,9518.088426375001,0.632232666015625,0.226531982421875,-0.0397491455078125,1,0.99
2020-05-16 12:11:11.161 -0400,9518.158258375001,0.79705810546875,0.4876251220703125,-0.101776123046875,1,0.99
2020-05-16 12:11:11.231 -0400,9518.228088375001,1.11199951171875,0.7980499267578125,-0.5118255615234375,1,0.99
2020-05-16 12:11:11.301 -0400,9518.297917375001,1.012832641601562,0.5020904541015625,-0.4803009033203125,1,0.99
2020-05-16 12:11:11.371 -0400,9518.367745375001,0.8545074462890625,0.5281982421875,-0.4975128173828125,1,0.99
2020-05-16 12:11:11.441 -0400,9518.437575375001,1.039031982421875,0.5372161865234375,-0.366241455078125,1,0.99
2020-05-16 12:11:11.511 -0400,9518.507405375001,1.5018310546875,0.8520050048828125,-0.280303955078125,1,0.99
2020-05-16 12:11:11.580 -0400,9518.577233375001,1.040878295898438,0.5807342529296875,-0.4336395263671875,1,0.99
2020-05-16 12:11:11.650 -0400,9518.647062375001,1.237899780273438,1.020660400390625,-0.5186004638671875,1,0.99
2020-05-16 12:11:11.720 -0400,9518.716892375001,1.680816650390625,0.8698577880859375,-0.2801666259765625,1,0.99
2020-05-16 12:11:11.790 -0400,9518.786720375001,1.6282958984375,0.243377685546875,-0.417999267578125,1,0.99
2020-05-16 12:11:11.860 -0400,9518.85655375,0.86431884765625,0.286102294921875,-0.2806243896484375,1,0.99
2020-05-16 12:11:11.930 -0400,9518.92638775,0.9673004150390625,0.2991180419921875,-0.0407562255859375,1,0.99
2020-05-16 12:11:11.999 -0400,9518.996219750001,0.8214263916015625,0.30096435546875,-0.0404052734375,1,0.99
2020-05-16 12:11:12.069 -0400,9519.066047750001,0.9462738037109375,0.3112030029296875,-0.0462799072265625,1,0.99
2020-05-16 12:11:12.139 -0400,9519.135876750001,0.6424560546875,0.2875213623046875,-0.054168701171875,1,0.99
2020-05-16 12:11:12.209 -0400,9519.20570975,0.84100341796875,0.46807861328125,-0.253082275390625,1,0.99
2020-05-16 12:11:12.279 -0400,9519.275541750001,1.281600952148438,0.530853271484375,-0.441619873046875,1,0.99
2020-05-16 12:11:12.349 -0400,9519.345374750001,1.072189331054688,0.493927001953125,-0.39239501953125,1,0.99
2020-05-16 12:11:12.418 -0400,9519.41520675,0.636260986328125,0.212158203125,-0.2991180419921875,1,0.99
2020-05-16 12:11:12.488 -0400,9519.485039750001,0.5935516357421875,0.5123138427734375,-0.2447967529296875,1,0.99
2020-05-16 12:11:12.558 -0400,9519.55486975,0.962554931640625,0.6722412109375,-0.4257965087890625,1,0.99
2020-05-16 12:11:12.628 -0400,9519.62469975,1.028533935546875,0.9399261474609375,-0.5133819580078125,1,0.99
2020-05-16 12:11:12.698 -0400,9519.69453375,1.5123291015625,0.8861846923828125,-0.319549560546875,1,0.99
2020-05-16 12:11:12.768 -0400,9519.76436875,1.553009033203125,0.744873046875,-0.365814208984375,1,0.99
2020-05-16 12:11:12.837 -0400,9519.834203875,1.511489868164062,0.5011138916015625,-0.215484619140625,1,0.99
2020-05-16 12:11:12.907 -0400,9519.904034875,0.933807373046875,0.3135223388671875,-0.1342010498046875,1,0.99
2020-05-16 12:11:12.977 -0400,9519.973871875001,0.7666015625,0.2444000244140625,-0.059417724609375,1,0.99
2020-05-16 12:11:13.047 -0400,9520.043706875,0.64385986328125,0.268402099609375,-0.0206146240234375,1,0.99
2020-05-16 12:11:13.117 -0400,9520.113539875001,0.718780517578125,0.2484588623046875,-0.0049896240234375,1,0.99
2020-05-16 12:11:13.187 -0400,9520.183375875,0.6241455078125,0.216705322265625,-0.0591583251953125,1,0.99
2020-05-16 12:11:13.256 -0400,9520.253211875,0.82550048828125,0.369873046875,-0.16180419921875,1,0.99
2020-05-16 12:11:13.326 -0400,9520.323050875,1.26727294921875,0.3992156982421875,-0.5791168212890625,1,0.99
2020-05-16 12:11:13.396 -0400,9520.392887875001,1.167953491210938,0.3401031494140625,-0.4694976806640625,1,0.99
2020-05-16 12:11:13.466 -0400,9520.462728875,0.6426544189453125,0.492828369140625,-0.4417266845703125,1,0.99
2020-05-16 12:11:13.536 -0400,9520.532567875001,0.650238037109375,0.51141357421875,-0.377105712890625,1,0.99
2020-05-16 12:11:13.606 -0400,9520.602406875001,0.9897308349609375,0.5799407958984375,-0.4545745849609375,1,0.99
2020-05-16 12:11:13.675 -0400,9520.672244875001,1.285385131835938,0.55780029296875,-0.6398468017578125,1,0.99
2020-05-16 12:11:13.745 -0400,9520.742081875,1.370559692382812,0.640289306640625,-0.6276702880859375,1,0.99
2020-05-16 12:11:13.815 -0400,9520.811919291667,1.495773315429688,0.735565185546875,-0.6052703857421875,1,0.99
2020-05-16 12:11:13.885 -0400,9520.881755291668,1.651260375976562,0.400146484375,-0.37890625,1,0.99
2020-05-16 12:11:13.955 -0400,9520.951589291668,1.000564575195312,0.2435150146484375,-0.2677764892578125,1,0.99
2020-05-16 12:11:14.025 -0400,9521.021427291667,0.82952880859375,0.34722900390625,-0.1787261962890625,1,0.99
2020-05-16 12:11:14.094 -0400,9521.091265291667,0.652435302734375,0.204193115234375,0.0157012939453125,1,0.99
2020-05-16 12:11:14.164 -0400,9521.161102291668,0.735076904296875,0.3347320556640625,-0.07989501953125,1,0.99
2020-05-16 12:11:14.234 -0400,9521.230936291668,0.646881103515625,0.1949310302734375,-0.1297760009765625,1,0.99
2020-05-16 12:11:14.304 -0400,9521.300771291668,0.721282958984375,0.1302032470703125,-0.162017822265625,1,0.99
2020-05-16 12:11:14.374 -0400,9521.370609291667,1.238128662109375,0.36090087890625,-0.3583526611328125,1,0.99
2020-05-16 12:11:14.444 -0400,9521.440449291667,1.586318969726562,0.787841796875,-0.4884185791015625,1,0.99
2020-05-16 12:11:14.513 -0400,9521.510286291666,0.7168731689453125,0.5154876708984375,-0.440093994140625,1,0.99
2020-05-16 12:11:14.583 -0400,9521.580125291668,0.6979827880859375,0.2127227783203125,-0.4040985107421875,1,0.99
2020-05-16 12:11:14.653 -0400,9521.649967291667,0.8224945068359375,0.7302093505859375,-0.2537384033203125,1,0.99
2020-05-16 12:11:14.723 -0400,9521.719812291667,1.082244873046875,1.210540771484375,-0.2630462646484375,1,0.99
2020-05-16 12:11:14.793 -0400,9521.789653291667,1.3450927734375,0.7249603271484375,-0.387664794921875,1,0.99
2020-05-16 12:11:14.863 -0400,9521.859484750001,1.714324951171875,0.6375732421875,-0.3530731201171875,1,0.99
2020-05-16 12:11:14.933 -0400,9521.92931775,1.610076904296875,0.66717529296875,-0.3490753173828125,1,0.99
2020-05-16 12:11:15.002 -0400,9521.99915175,0.985198974609375,0.1871795654296875,-0.2771148681640625,1,0.99
2020-05-16 12:11:15.072 -0400,9522.06898475,0.768890380859375,0.2501678466796875,-0.258544921875,1,0.99
2020-05-16 12:11:15.142 -0400,9522.13881875,0.809295654296875,0.3079376220703125,-0.1473846435546875,1,0.99
2020-05-16 12:11:15.212 -0400,9522.208652750001,0.8427734375,0.2631988525390625,-0.0516357421875,1,0.99
2020-05-16 12:11:15.282 -0400,9522.278485750001,0.5826873779296875,0.22064208984375,-0.008941650390625,1,0.99
2020-05-16 12:11:15.351 -0400,9522.348318750001,0.493988037109375,0.25323486328125,-0.043487548828125,1,0.99
2020-05-16 12:11:15.422 -0400,9522.41815175,1.11248779296875,0.84735107421875,-0.390228271484375,1,0.99
2020-05-16 12:11:15.491 -0400,9522.487983750001,1.341110229492188,0.766082763671875,-0.536529541015625,1,0.99
2020-05-16 12:11:15.561 -0400,9522.55781375,0.8274383544921875,0.3538818359375,-0.6078033447265625,1,0.99
2020-05-16 12:11:15.631 -0400,9522.62764475,0.6117095947265625,0.455413818359375,-0.4585113525390625,1,0.99
2020-05-16 12:11:15.701 -0400,9522.697474750001,0.5680084228515625,0.618621826171875,-0.3897552490234375,1,0.99
2020-05-16 12:11:15.771 -0400,9522.76730775,1.006027221679688,0.92730712890625,-0.60699462890625,1,0.99
2020-05-16 12:11:15.840 -0400,9522.837140291667,1.649887084960938,1.058502197265625,-0.6579437255859375,1,0.99
2020-05-16 12:11:15.910 -0400,9522.906966291668,1.743316650390625,0.5549163818359375,-0.3671722412109375,1,0.99
2020-05-16 12:11:15.980 -0400,9522.976797291667,1.898513793945312,0.48944091796875,-0.283050537109375,1,0.99
2020-05-16 12:11:16.050 -0400,9523.046625291667,1.233932495117188,0.2726898193359375,-0.2749786376953125,1,0.99
2020-05-16 12:11:16.120 -0400,9523.116454291667,0.80950927734375,0.1922149658203125,-0.1508331298828125,1,0.99
2020-05-16 12:11:16.189 -0400,9523.186282291666,0.6472320556640625,0.18780517578125,-0.12347412109375,1,0.99
2020-05-16 12:11:16.259 -0400,9523.256113291667,0.5916595458984375,0.2017059326171875,-0.0657806396484375,1,0.99
2020-05-16 12:11:16.329 -0400,9523.325948291667,0.3322601318359375,0.308380126953125,-0.1764984130859375,1,0.99
2020-05-16 12:11:16.399 -0400,9523.395783291668,0.1578216552734375,0.3195343017578125,-0.1771392822265625,1,0.99
2020-05-16 12:11:16.469 -0400,9523.465614291666,0.7068634033203125,0.8615570068359375,-0.619842529296875,1,0.99
2020-05-16 12:11:16.539 -0400,9523.535444291667,1.025421142578125,0.6787109375,-0.69287109375,1,0.99
2020-05-16 12:11:16.608 -0400,9523.605279291667,0.997711181640625,0.5342559814453125,-0.5306243896484375,1,0.99
2020-05-16 12:11:16.678 -0400,9523.675114291667,1.180282592773438,0.60467529296875,-0.3461151123046875,1,0.99
2020-05-16 12:11:16.748 -0400,9523.744949291668,1.0924072265625,0.9063873291015625,-0.4325714111328125,1,0.99
2020-05-16 12:11:16.818 -0400,9523.814778166667,1.504852294921875,0.853515625,-0.515625,1,0.99
2020-05-16 12:11:16.888 -0400,9523.884604166667,1.252166748046875,0.7079925537109375,-0.400238037109375,1,0.99
2020-05-16 12:11:16.958 -0400,9523.954431166667,1.378250122070312,0.4554290771484375,-0.332550048828125,1,0.99
2020-05-16 12:11:17.027 -0400,9524.024259166667,1.677322387695312,0.29071044921875,-0.218536376953125,1,0.99
2020-05-16 12:11:17.097 -0400,9524.094086166668,1.186676025390625,0.25341796875,-0.234039306640625,1,0.99
2020-05-16 12:11:17.167 -0400,9524.163914166667,0.7485809326171875,0.2133941650390625,-0.0585784912109375,1,0.99
2020-05-16 12:11:17.237 -0400,9524.233744166668,0.485015869140625,0.174591064453125,0.0051727294921875,1,0.99
2020-05-16 12:11:17.307 -0400,9524.303573166668,0.35894775390625,0.147796630859375,0.03033447265625,1,0.99
2020-05-16 12:11:17.377 -0400,9524.373403166668,0.3970947265625,0.1805877685546875,-0.0126953125,1,0.99
2020-05-16 12:11:17.446 -0400,9524.443234166667,0.4037628173828125,0.118621826171875,0.13153076171875,1,0.99
2020-05-16 12:11:17.516 -0400,9524.513069166667,0.801300048828125,0.9015045166015625,-0.4142913818359375,1,0.99
2020-05-16 12:11:17.586 -0400,9524.582901166666,1.27288818359375,0.3533172607421875,-0.8461456298828125,1,0.99
2020-05-16 12:11:17.656 -0400,9524.652730166667,1.281417846679688,0.2435760498046875,-0.68780517578125,1,0.99
2020-05-16 12:11:17.726 -0400,9524.722561166667,0.9049072265625,0.730865478515625,-0.4181976318359375,1,0.99
2020-05-16 12:11:17.796 -0400,9524.792388166667,0.7130279541015625,0.6792144775390625,-0.2991790771484375,1,0.99
2020-05-16 12:11:17.865 -0400,9524.862215750001,0.67901611328125,0.51031494140625,-0.360809326171875,1,0.99
2020-05-16 12:11:17.935 -0400,9524.932043750001,0.318084716796875,0.53729248046875,-0.505279541015625,1,0.99
2020-05-16 12:11:18.005 -0400,9525.001877750001,0.40911865234375,1.191879272460938,-0.4362335205078125,1,0.99
2020-05-16 12:11:18.075 -0400,9525.071706750001,2.5802001953125,0.8305816650390625,0.0888824462890625,1,0.99
2020-05-16 12:11:18.145 -0400,9525.14153875,1.95977783203125,0.557830810546875,-0.4082489013671875,1,0.99
2020-05-16 12:11:18.214 -0400,9525.21136775,0.9976959228515625,0.2104034423828125,-0.030364990234375,1,0.99
2020-05-16 12:11:18.284 -0400,9525.28119575,0.722869873046875,0.334442138671875,-0.085174560546875,1,0.99
2020-05-16 12:11:18.354 -0400,9525.351027750001,0.5436248779296875,0.2631988525390625,-0.0634307861328125,1,0.99
2020-05-16 12:11:18.424 -0400,9525.420856750001,0.7399444580078125,0.168853759765625,-0.0192108154296875,1,0.99
2020-05-16 12:11:18.494 -0400,9525.49068375,0.7698211669921875,0.1509246826171875,0.0032501220703125,1,0.99
2020-05-16 12:11:18.564 -0400,9525.560514750001,0.7228546142578125,0.3722991943359375,0.0001983642578125,1,0.99
2020-05-16 12:11:18.634 -0400,9525.630347750001,0.561614990234375,0.884521484375,-0.4109039306640625,1,0.99
2020-05-16 12:11:18.703 -0400,9525.70018075,1.023971557617188,0.9773712158203125,-0.52874755859375,1,0.99
2020-05-16 12:11:18.773 -0400,9525.77001475,1.20111083984375,0.840667724609375,-0.6855316162109375,1,0.99
2020-05-16 12:11:18.843 -0400,9525.83984875,1.15283203125,0.91510009765625,-0.707061767578125,1,0.99
2020-05-16 12:11:18.913 -0400,9525.909680750001,0.8368988037109375,0.6486053466796875,-0.592803955078125,1,0.99
2020-05-16 12:11:18.983 -0400,9525.979514750001,0.73382568359375,0.6226654052734375,-0.85845947265625,1,0.99
2020-05-16 12:11:19.053 -0400,9526.049348750001,0.8361358642578125,0.227752685546875,-0.8727569580078125,1,0.99
2020-05-16 12:11:19.122 -0400,9526.11918175,1.759918212890625,0.44415283203125,-0.9309844970703125,1,0.99
2020-05-16 12:11:19.192 -0400,9526.18901575,2.644088745117188,0.4638519287109375,-0.1080322265625,1,0.99
2020-05-16 12:11:19.268 -0400,9526.258847750001,2.22735595703125,0.47607421875,-0.251312255859375,1,0.99
2020-05-16 12:11:19.332 -0400,9526.328681750001,1.665069580078125,0.2546234130859375,-0.1747283935546875,1,0.99
2020-05-16 12:11:19.402 -0400,9526.398514750001,1.180892944335938,0.1191864013671875,0.0060272216796875,1,0.99
2020-05-16 12:11:19.472 -0400,9526.46834675,0.49298095703125,0.008270263671875,0.131988525390625,1,0.99
2020-05-16 12:11:19.541 -0400,9526.538178750001,0.3438720703125,-0.1169586181640625,0.2809600830078125,1,0.99
2020-05-16 12:11:19.611 -0400,9526.608012750001,-0.0238800048828125,-0.22589111328125,0.2696075439453125,1,0.99
2020-05-16 12:11:19.681 -0400,9526.677852750001,0.0777587890625,0.3745269775390625,0.23382568359375,1,0.99
2020-05-16 12:11:19.751 -0400,9526.74768875,0.8824310302734375,0.8525543212890625,-0.53082275390625,1,0.99
2020-05-16 12:11:19.821 -0400,9526.817523791668,1.609161376953125,1.20220947265625,-0.687469482421875,1,0.99
2020-05-16 12:11:19.891 -0400,9526.887357791667,1.137100219726562,0.830841064453125,-0.4939727783203125,1,0.99
2020-05-16 12:11:19.960 -0400,9526.957194791667,0.7942047119140625,0.522491455078125,-0.3907012939453125,1,0.99
2020-05-16 12:11:20.030 -0400,9527.027024791667,0.7213592529296875,0.389801025390625,-0.4205169677734375,1,0.99
2020-05-16 12:11:20.100 -0400,9527.096859791667,0.955413818359375,0.39312744140625,-0.4821929931640625,1,0.99
2020-05-16 12:11:20.170 -0400,9527.166694791667,1.086044311523438,0.709869384765625,-0.444061279296875,1,0.99
2020-05-16 12:11:20.240 -0400,9527.236531791666,1.95147705078125,0.852294921875,-0.4563446044921875,1,0.99
2020-05-16 12:11:20.310 -0400,9527.306367791667,1.778823852539062,0.3199310302734375,-0.5261383056640625,1,0.99
2020-05-16 12:11:20.379 -0400,9527.376195791667,1.1966552734375,0.0235443115234375,-0.3020477294921875,1,0.99
2020-05-16 12:11:20.449 -0400,9527.446028791668,0.63507080078125,0.1663970947265625,-0.21002197265625,1,0.99
2020-05-16 12:11:20.519 -0400,9527.515864791667,0.5684814453125,0.222076416015625,-0.02899169921875,1,0.99
2020-05-16 12:11:20.589 -0400,9527.585705791667,0.6918792724609375,0.1778106689453125,0.1151580810546875,1,0.99
2020-05-16 12:11:20.659 -0400,9527.655545791667,0.923675537109375,0.337921142578125,0.0160675048828125,1,0.99
2020-05-16 12:11:20.729 -0400,9527.725383791667,0.8857879638671875,1.10675048828125,-0.4011688232421875,1,0.99
2020-05-16 12:11:20.798 -0400,9527.795222791667,1.018417358398438,0.8773651123046875,-0.78045654296875,1,0.99
2020-05-16 12:11:20.868 -0400,9527.865062000001,0.8470611572265625,0.457000732421875,-0.5644989013671875,1,0.99
2020-05-16 12:11:20.938 -0400,9527.934899,0.7627410888671875,0.8591766357421875,-0.616119384765625,1,0.99
2020-05-16 12:11:21.008 -0400,9528.004742000001,0.3642578125,0.62823486328125,-0.47882080078125,1,0.99
2020-05-16 12:11:21.078 -0400,9528.074585,-0.0281524658203125,0.7465057373046875,-0.3869476318359375,1,0.99
2020-05-16 12:11:21.148 -0400,9528.144423,0.4312744140625,1.222610473632812,-0.1531524658203125,1,0.99
2020-05-16 12:11:21.217 -0400,9528.214262000001,2.818496704101562,1.591812133789062,-0.1639862060546875,1,0.99
2020-05-16 12:11:21.287 -0400,9528.284100000001,2.03961181640625,0.1129302978515625,-0.4835357666015625,1,0.99
2020-05-16 12:11:21.357 -0400,9528.353939000001,1.276321411132812,0.1576995849609375,-0.370758056640625,1,0.99
2020-05-16 12:11:21.427 -0400,9528.423777,0.608795166015625,0.1717529296875,-0.1982879638671875,1,0.99
2020-05-16 12:11:21.497 -0400,9528.493622,0.3440399169921875,0.340179443359375,-0.0703887939453125,1,0.99
2020-05-16 12:11:21.567 -0400,9528.563465000001,0.3494415283203125,0.310791015625,-0.024627685546875,1,0.99
2020-05-16 12:11:21.636 -0400,9528.633303000001,0.7506103515625,0.2313385009765625,-0.0871429443359375,1,0.99
2020-05-16 12:11:21.706 -0400,9528.703140000001,1.136917114257812,-0.1202392578125,-0.0482635498046875,1,0.99
2020-05-16 12:11:21.776 -0400,9528.77298,1.24420166015625,0.6638641357421875,-0.6671600341796875,1,0.99
2020-05-16 12:11:21.846 -0400,9528.842817625,1.313247680664062,0.7520294189453125,-0.5255279541015625,1,0.99
2020-05-16 12:11:21.916 -0400,9528.912651625,1.17138671875,0.4799652099609375,-0.3891143798828125,1,0.99
2020-05-16 12:11:21.986 -0400,9528.982483625001,1.331192016601562,0.8277740478515625,-0.463531494140625,1,0.99
2020-05-16 12:11:22.056 -0400,9529.052315625,0.8831634521484375,0.9914703369140625,-0.431915283203125,1,0.99
2020-05-16 12:11:22.126 -0400,9529.122146625001,0.4794464111328125,0.618682861328125,-0.509521484375,1,0.99
2020-05-16 12:11:22.195 -0400,9529.191978625,0.224517822265625,0.5543670654296875,-0.474761962890625,1,0.99
2020-05-16 12:11:22.265 -0400,9529.261809625001,2.178756713867188,1.585372924804688,-1.333938598632812,1,0.99
2020-05-16 12:11:22.335 -0400,9529.331644625001,2.353103637695312,0.5751953125,-0.829376220703125,1,0.99
2020-05-16 12:11:22.405 -0400,9529.401479625001,2.757568359375,0.0159149169921875,-0.2346038818359375,1,0.99
2020-05-16 12:11:22.474 -0400,9529.471316625,1.464111328125,0.0864410400390625,-0.098876953125,1,0.99
2020-05-16 12:11:22.546 -0400,9529.541152625001,0.9251708984375,0.26165771484375,0.0575714111328125,1,0.99
2020-05-16 12:11:22.614 -0400,9529.610986625001,0.7361297607421875,-0.0309600830078125,0.1686553955078125,1,0.99
2020-05-16 12:11:22.684 -0400,9529.680823625,0.727325439453125,-0.080841064453125,0.145538330078125,1,0.99
2020-05-16 12:11:22.754 -0400,9529.750656625001,0.2329864501953125,0.12445068359375,0.08551025390625,1,0.99
2020-05-16 12:11:22.824 -0400,9529.820489166666,0.27703857421875,0.79107666015625,-0.9568023681640625,1,0.99
2020-05-16 12:11:22.894 -0400,9529.890323166666,0.6521453857421875,0.908721923828125,-0.8517303466796875,1,0.99
2020-05-16 12:11:22.963 -0400,9529.960158166667,0.87799072265625,0.29803466796875,-0.4423980712890625,1,0.99
2020-05-16 12:11:23.033 -0400,9530.029994166667,1.276153564453125,0.5480804443359375,-0.4460296630859375,1,0.99
2020-05-16 12:11:23.103 -0400,9530.099828166667,1.061019897460938,0.8143310546875,-0.5186920166015625,1,0.99
2020-05-16 12:11:23.173 -0400,9530.169664166668,0.7960052490234375,0.47479248046875,-0.4412994384765625,1,0.99
2020-05-16 12:11:23.243 -0400,9530.239499166668,0.5052642822265625,0.3685455322265625,-0.4688720703125,1,0.99
2020-05-16 12:11:23.312 -0400,9530.309337166667,0.453125,0.415374755859375,-0.2388916015625,1,0.99
2020-05-16 12:11:23.383 -0400,9530.379176166667,3.034439086914062,1.346084594726562,-0.280120849609375,1,0.99
2020-05-16 12:11:23.452 -0400,9530.449014166667,2.058609008789062,0.6221160888671875,-0.45050048828125,1,0.99
2020-05-16 12:11:23.522 -0400,9530.518853166668,1.348464965820312,0.1075897216796875,-0.26165771484375,1,0.99
2020-05-16 12:11:23.592 -0400,9530.588687166668,0.7854156494140625,0.2329864501953125,-0.136932373046875,1,0.99
2020-05-16 12:11:23.662 -0400,9530.658522166666,0.51031494140625,0.274444580078125,-0.080230712890625,1,0.99
2020-05-16 12:11:23.732 -0400,9530.728356166666,0.576019287109375,0.0424957275390625,0.0145263671875,1,0.99
2020-05-16 12:11:23.802 -0400,9530.798186166667,0.8900299072265625,0.1508026123046875,0.0919342041015625,1,0.99
2020-05-16 12:11:23.871 -0400,9530.868017041666,0.9151763916015625,0.93402099609375,-0.642303466796875,1,0.99
2020-05-16 12:11:23.941 -0400,9530.937846041666,1.076568603515625,1.007598876953125,-0.76910400390625,1,0.99
2020-05-16 12:11:24.011 -0400,9531.007677041667,1.20733642578125,0.5902099609375,-0.429351806640625,1,0.99
2020-05-16 12:11:24.081 -0400,9531.077510041667,1.13421630859375,0.8548431396484375,-0.3512420654296875,1,0.99
2020-05-16 12:11:24.151 -0400,9531.147346041667,0.7461700439453125,1.01397705078125,-0.4687652587890625,1,0.99
2020-05-16 12:11:24.220 -0400,9531.217181041668,0.71563720703125,0.806396484375,-0.45367431640625,1,0.99
2020-05-16 12:11:24.290 -0400,9531.287017041668,1.090896606445312,0.9567413330078125,-0.298614501953125,1,0.99
2020-05-16 12:11:24.364 -0400,9531.356855041668,1.6082763671875,0.777679443359375,-0.1779937744140625,1,0.99
2020-05-16 12:11:24.430 -0400,9531.426693041667,1.863250732421875,0.5016021728515625,-0.266326904296875,1,0.99
2020-05-16 12:11:24.500 -0400,9531.496530041668,1.666275024414062,0.2754669189453125,-0.073638916015625,1,0.99
2020-05-16 12:11:24.569 -0400,9531.566366041667,1.114044189453125,0.3531951904296875,-0.0886993408203125,1,0.99
2020-05-16 12:11:24.639 -0400,9531.636205041666,0.8285369873046875,0.25103759765625,-0.0090179443359375,1,0.99
2020-05-16 12:11:24.709 -0400,9531.706043041668,0.719940185546875,0.1945037841796875,0.0559234619140625,1,0.99
2020-05-16 12:11:24.779 -0400,9531.775879041666,0.413116455078125,0.1817779541015625,0.0467681884765625,1,0.99
2020-05-16 12:11:24.849 -0400,9531.845715375001,0.33111572265625,0.2701568603515625,-0.0606689453125,1,0.99
2020-05-16 12:11:24.919 -0400,9531.915550375001,0.716033935546875,0.577606201171875,-0.2529296875,1,0.99
2020-05-16 12:11:24.989 -0400,9531.985382375,0.7697601318359375,0.661346435546875,-0.665252685546875,1,0.99
2020-05-16 12:11:25.058 -0400,9532.055211375,1.490951538085938,0.502899169921875,-0.68408203125,1,0.99
2020-05-16 12:11:25.128 -0400,9532.125041375,0.9712066650390625,0.428070068359375,-0.4886322021484375,1,0.99
2020-05-16 12:11:25.198 -0400,9532.194873375001,0.797637939453125,0.49444580078125,-0.3302001953125,1,0.99
2020-05-16 12:11:25.268 -0400,9532.264704375,0.8391876220703125,0.5803070068359375,-0.2968902587890625,1,0.99
2020-05-16 12:11:25.338 -0400,9532.334537375,0.6987152099609375,0.6210174560546875,-0.4318695068359375,1,0.99
2020-05-16 12:11:25.408 -0400,9532.404367375,0.676055908203125,0.776275634765625,-0.533843994140625,1,0.99
2020-05-16 12:11:25.477 -0400,9532.474196375,0.8369903564453125,0.5283660888671875,-0.44439697265625,1,0.99
2020-05-16 12:11:25.547 -0400,9532.544029375,2.9129638671875,0.317901611328125,0.0385284423828125,1,0.99
2020-05-16 12:11:25.617 -0400,9532.613864375,1.360595703125,0.314208984375,-0.134033203125,1,0.99
2020-05-16 12:11:25.687 -0400,9532.683697375001,1.038314819335938,0.3306121826171875,-0.109100341796875,1,0.99
2020-05-16 12:11:25.757 -0400,9532.753531375001,0.6560516357421875,0.184417724609375,-0.062103271484375,1,0.99
2020-05-16 12:11:25.826 -0400,9532.823360541668,0.68426513671875,0.1701507568359375,-0.016754150390625,1,0.99
2020-05-16 12:11:25.897 -0400,9532.893190541667,1.050750732421875,0.1009521484375,0.151123046875,1,0.99
2020-05-16 12:11:25.966 -0400,9532.963023541668,1.072402954101562,0.53363037109375,-0.321044921875,1,0.99
2020-05-16 12:11:26.036 -0400,9533.032850541667,1.048507690429688,0.472076416015625,-0.7460479736328125,1,0.99
2020-05-16 12:11:26.106 -0400,9533.102679541667,0.738433837890625,0.302520751953125,-0.5203704833984375,1,0.99
2020-05-16 12:11:26.176 -0400,9533.172509541668,0.72064208984375,0.4997100830078125,-0.4337615966796875,1,0.99
2020-05-16 12:11:26.245 -0400,9533.242338541668,0.6929931640625,0.487396240234375,-0.4189910888671875,1,0.99
2020-05-16 12:11:26.316 -0400,9533.312169541667,0.8196868896484375,0.6264190673828125,-0.411376953125,1,0.99
2020-05-16 12:11:26.385 -0400,9533.381999541667,0.8780059814453125,0.7636260986328125,-0.27752685546875,1,0.99
2020-05-16 12:11:26.455 -0400,9533.451829541667,1.931732177734375,0.9801788330078125,-0.4912261962890625,1,0.99
2020-05-16 12:11:26.525 -0400,9533.521657541667,1.562347412109375,0.5045623779296875,-0.3243255615234375,1,0.99
2020-05-16 12:11:26.595 -0400,9533.591485541667,1.423904418945312,0.327911376953125,-0.0695648193359375,1,0.99
2020-05-16 12:11:26.664 -0400,9533.661312541668,0.840850830078125,0.29278564453125,-0.0750885009765625,1,0.99
2020-05-16 12:11:26.734 -0400,9533.731140541668,0.6799774169921875,0.27337646484375,0.0036163330078125,1,0.99
2020-05-16 12:11:26.804 -0400,9533.800971541667,0.66278076171875,0.2167816162109375,0.0771026611328125,1,0.99
2020-05-16 12:11:26.874 -0400,9533.870803041667,0.971343994140625,0.2082366943359375,0.1220703125,1,0.99
2020-05-16 12:11:26.944 -0400,9533.940633041668,0.5275421142578125,0.4732666015625,-0.0259552001953125,1,0.99
2020-05-16 12:11:27.014 -0400,9534.010466041667,1.468292236328125,1.180404663085938,-0.0794677734375,1,0.99
2020-05-16 12:11:27.083 -0400,9534.080298041667,0.379486083984375,1.206130981445312,-0.682281494140625,1,0.99
2020-05-16 12:11:27.153 -0400,9534.150130041668,0.2323150634765625,0.6813507080078125,-0.5395660400390625,1,0.99
2020-05-16 12:11:27.223 -0400,9534.219964041667,0.3341827392578125,0.64044189453125,-0.389007568359375,1,0.99
2020-05-16 12:11:27.293 -0400,9534.289795041666,0.44561767578125,0.6888580322265625,-0.4333953857421875,1,0.99
2020-05-16 12:11:27.363 -0400,9534.359629041668,1.113662719726562,0.7809906005859375,-0.4312591552734375,1,0.99
2020-05-16 12:11:27.432 -0400,9534.429461041667,1.249130249023438,0.480499267578125,-0.178802490234375,1,0.99
2020-05-16 12:11:27.503 -0400,9534.499294041667,1.191192626953125,0.563385009765625,-0.191192626953125,1,0.99
2020-05-16 12:11:27.572 -0400,9534.569128041667,1.438934326171875,0.5684051513671875,-0.3007659912109375,1,0.99
2020-05-16 12:11:27.642 -0400,9534.638960041668,1.065933227539062,0.2003631591796875,-0.16357421875,1,0.99
2020-05-16 12:11:27.712 -0400,9534.708790041666,0.6761016845703125,0.2832794189453125,-0.2146148681640625,1,0.99
2020-05-16 12:11:27.782 -0400,9534.778622041667,0.49774169921875,0.254974365234375,-0.1563873291015625,1,0.99
2020-05-16 12:11:27.851 -0400,9534.848453250001,0.4288787841796875,0.189178466796875,-0.0869598388671875,1,0.99
2020-05-16 12:11:27.921 -0400,9534.918288250001,0.478851318359375,0.1460113525390625,-0.0405731201171875,1,0.99
2020-05-16 12:11:27.991 -0400,9534.988123250001,1.112991333007812,0.615966796875,-0.20562744140625,1,0.99
2020-05-16 12:11:28.061 -0400,9535.05796425,1.4544677734375,0.849334716796875,-0.3753204345703125,1,0.99
2020-05-16 12:11:28.131 -0400,9535.12780525,1.0733642578125,0.8736114501953125,-0.8167572021484375,1,0.99
2020-05-16 12:11:28.201 -0400,9535.19764425,0.8817138671875,0.515045166015625,-0.3968658447265625,1,0.99
2020-05-16 12:11:28.271 -0400,9535.26748325,0.591827392578125,0.65625,-0.20849609375,1,0.99
2020-05-16 12:11:28.340 -0400,9535.337320250001,0.66021728515625,0.6597442626953125,-0.3389129638671875,1,0.99
2020-05-16 12:11:28.410 -0400,9535.40715725,0.9433441162109375,0.713348388671875,-0.3926239013671875,1,0.99
2020-05-16 12:11:28.480 -0400,9535.47699825,1.253097534179688,0.6180572509765625,-0.3702239990234375,1,0.99
2020-05-16 12:11:28.550 -0400,9535.54683725,1.895370483398438,0.4917144775390625,-0.296600341796875,1,0.99
2020-05-16 12:11:28.620 -0400,9535.61667725,2.0196533203125,0.349609375,-0.1617279052734375,1,0.99
2020-05-16 12:11:28.690 -0400,9535.686520250001,1.481170654296875,0.33526611328125,-0.1580047607421875,1,0.99
2020-05-16 12:11:28.760 -0400,9535.75636625,0.99139404296875,0.02642822265625,-0.024566650390625,1,0.99
2020-05-16 12:11:28.829 -0400,9535.8262135,0.7277984619140625,-0.0341033935546875,0.0244140625,1,0.99
2020-05-16 12:11:28.899 -0400,9535.896060500001,0.4104766845703125,-0.0836639404296875,-0.0020294189453125,1,0.99
2020-05-16 12:11:28.969 -0400,9535.9659015,0.2147369384765625,0.0526885986328125,-0.007904052734375,1,0.99
2020-05-16 12:11:29.039 -0400,9536.035743500001,0.0858917236328125,0.3641204833984375,-0.03790283203125,1,0.99
2020-05-16 12:11:29.109 -0400,9536.1055825,1.01312255859375,1.306304931640625,-0.345123291015625,1,0.99
2020-05-16 12:11:29.179 -0400,9536.1754225,1.367156982421875,0.626190185546875,-0.6940155029296875,1,0.99
2020-05-16 12:11:29.258 -0400,9536.245258500001,1.521453857421875,1.024642944335938,-0.98284912109375,1,0.99
2020-05-16 12:11:29.318 -0400,9536.315092500001,0.60137939453125,0.7727813720703125,-0.2814483642578125,1,0.99
2020-05-16 12:11:29.388 -0400,9536.384931500001,0.56744384765625,0.566497802734375,-0.2511444091796875,1,0.99
2020-05-16 12:11:29.458 -0400,9536.4547695,0.753143310546875,0.5869903564453125,-0.38482666015625,1,0.99
2020-05-16 12:11:29.528 -0400,9536.524612500001,0.9700927734375,0.7061767578125,-0.3438262939453125,1,0.99
2020-05-16 12:11:29.598 -0400,9536.5944535,1.407852172851562,0.7043914794921875,-0.31549072265625,1,0.99
2020-05-16 12:11:29.667 -0400,9536.6642945,1.6285400390625,0.3829345703125,-0.159820556640625,1,0.99
2020-05-16 12:11:29.737 -0400,9536.734135500001,1.71917724609375,0.3057098388671875,-0.10894775390625,1,0.99
2020-05-16 12:11:29.807 -0400,9536.803974500001,1.03057861328125,0.338348388671875,-0.10833740234375,1,0.99
2020-05-16 12:11:29.877 -0400,9536.873816000001,0.6764984130859375,0.376739501953125,-0.0788421630859375,1,0.99
2020-05-16 12:11:29.947 -0400,9536.943660000001,0.5738525390625,0.27032470703125,0.0155792236328125,1,0.99
2020-05-16 12:11:30.017 -0400,9537.013501000001,0.5634613037109375,0.1633453369140625,-0.0028076171875,1,0.99
2020-05-16 12:11:30.087 -0400,9537.083341000001,0.523101806640625,0.165985107421875,-0.074066162109375,1,0.99
2020-05-16 12:11:30.156 -0400,9537.153181,0.7367401123046875,0.50732421875,-0.4023284912109375,1,0.99
2020-05-16 12:11:30.226 -0400,9537.223020000001,1.279296875,0.601806640625,-0.61932373046875,1,0.99
2020-05-16 12:11:30.296 -0400,9537.292858000001,1.239974975585938,0.4233856201171875,-0.8921661376953125,1,0.99
2020-05-16 12:11:30.366 -0400,9537.362697,0.9314117431640625,0.59576416015625,-0.5406036376953125,1,0.99
2020-05-16 12:11:30.436 -0400,9537.432533000001,0.5296478271484375,0.4816131591796875,-0.3228607177734375,1,0.99
2020-05-16 12:11:30.505 -0400,9537.502368000001,0.6082916259765625,0.55377197265625,-0.2916259765625,1,0.99
2020-05-16 12:11:30.575 -0400,9537.572202000001,0.8750762939453125,0.654815673828125,-0.2914276123046875,1,0.99
2020-05-16 12:11:30.645 -0400,9537.642034,0.9380340576171875,0.7869873046875,-0.40728759765625,1,0.99
2020-05-16 12:11:30.715 -0400,9537.711871000001,1.917404174804688,1.02935791015625,-0.572601318359375,1,0.99
2020-05-16 12:11:30.785 -0400,9537.781710000001,1.432235717773438,0.41851806640625,-0.198822021484375,1,0.99
2020-05-16 12:11:30.855 -0400,9537.851543916668,1.603775024414062,0.4534454345703125,-0.16485595703125,1,0.99
2020-05-16 12:11:30.924 -0400,9537.921379916666,0.976837158203125,0.2885284423828125,-0.2693939208984375,1,0.99
2020-05-16 12:11:30.994 -0400,9537.991217916668,0.822296142578125,0.4033660888671875,-0.2951202392578125,1,0.99
2020-05-16 12:11:31.064 -0400,9538.061057916668,0.6460723876953125,0.3513641357421875,-0.37005615234375,1,0.99
2020-05-16 12:11:31.134 -0400,9538.130894916667,0.4929656982421875,0.07672119140625,-0.51568603515625,1,0.99
2020-05-16 12:11:31.204 -0400,9538.200732916668,0.2784423828125,-0.2415924072265625,-0.6952056884765625,1,0.99
2020-05-16 12:11:31.274 -0400,9538.270572916666,0.2180023193359375,-0.23565673828125,-1.019729614257812,1,0.99
2020-05-16 12:11:31.344 -0400,9538.340410916668,0.187286376953125,-0.1229095458984375,-1.09246826171875,1,0.99
2020-05-16 12:11:31.463 -0400,9538.460138916667,0.3326873779296875,-0.3773345947265625,-0.975494384765625,1,0.99
2020-05-16 12:11:31.583 -0400,9538.579862916667,-0.082855224609375,-0.208343505859375,-0.661956787109375,1,0.99
2020-05-16 12:11:31.703 -0400,9538.699584916667,0.0127410888671875,-0.224273681640625,-0.8781280517578125,1,0.99
2020-05-16 12:11:31.822 -0400,9538.81931225,-0.0223388671875,-0.212646484375,-1.195556640625,1,0.99
2020-05-16 12:11:31.942 -0400,9538.939039250001,0.0547637939453125,-0.0167236328125,-1.109771728515625,1,0.99
2020-05-16 12:11:32.062 -0400,9539.058767250001,-0.0159912109375,-0.11474609375,-0.963592529296875,1,0.99
2020-05-16 12:11:32.182 -0400,9539.178492250001,-0.035369873046875,-0.009124755859375,-0.9163360595703125,1,0.99
2020-05-16 12:11:32.302 -0400,9539.29822425,-0.0401611328125,-0.2052459716796875,-0.990234375,1,0.99
