loggingTime(txt),accelerometerTimestamp_sinceReboot(s),accelerometerAccelerationX(G),accelerometerAccelerationY(G),accelerometerAccelerationZ(G),batteryState,batteryLevel
2020-05-16 12:32:41.948 -0400,10498.73586566667,-0.126617431640625,0.3762969970703125,-1.357421875,1,0.97
2020-05-16 12:32:42.066 -0400,10498.85558866667,-0.0279388427734375,0.1718597412109375,-0.8354949951171875,1,0.97
2020-05-16 12:32:42.194 -0400,10498.975310375,-0.0347747802734375,-0.1074066162109375,-0.560943603515625,1,0.97
2020-05-16 12:32:42.305 -0400,10499.095035375,0.380889892578125,-0.048980712890625,-0.58795166015625,1,0.97
2020-05-16 12:32:42.425 -0400,10499.214754375,0.9562835693359375,0.76715087890625,-0.9622802734375,1,0.97
2020-05-16 12:32:42.545 -0400,10499.334478375,1.30096435546875,0.8302459716796875,-0.524261474609375,1,0.97
2020-05-16 12:32:42.665 -0400,10499.454191375,0.6100311279296875,0.587127685546875,-0.1195831298828125,1,0.97
2020-05-16 12:32:42.785 -0400,10499.573907375,0.7664031982421875,0.685516357421875,-0.101898193359375,1,0.97
2020-05-16 12:32:42.864 -0400,10499.653716375,1.096649169921875,0.7158660888671875,-0.16790771484375,1,0.97
2020-05-16 12:32:42.946 -0400,10499.723549375,1.601150512695312,1.102783203125,-0.406402587890625,1,0.97
2020-05-16 12:32:43.004 -0400,10499.793381375,1.375839233398438,0.8277587890625,-0.4065704345703125,1,0.97
2020-05-16 12:32:43.073 -0400,10499.863215,1.640518188476562,0.4238739013671875,-0.234405517578125,1,0.97
2020-05-16 12:32:43.143 -0400,10499.933045,0.969451904296875,0.230377197265625,-0.2892913818359375,1,0.97
2020-05-16 12:32:43.213 -0400,10500.002874,0.7043609619140625,0.342041015625,-0.170440673828125,1,0.97
2020-05-16 12:32:43.283 -0400,10500.072703,0.7712249755859375,0.256866455078125,-0.0857391357421875,1,0.97
2020-05-16 12:32:43.353 -0400,10500.142535,0.858856201171875,0.1766510009765625,-0.0760955810546875,1,0.97
2020-05-16 12:32:43.423 -0400,10500.212366,0.7189483642578125,0.2176513671875,-0.0589141845703125,1,0.97
2020-05-16 12:32:43.493 -0400,10500.282202,0.968963623046875,0.3388824462890625,-0.056488037109375,1,0.97
2020-05-16 12:32:43.562 -0400,10500.352032,1.5406494140625,0.59161376953125,-0.405548095703125,1,0.97
2020-05-16 12:32:43.632 -0400,10500.421864,1.216156005859375,0.5235595703125,-0.205963134765625,1,0.97
2020-05-16 12:32:43.702 -0400,10500.491695,0.774139404296875,0.2745513916015625,-0.2421112060546875,1,0.97
2020-05-16 12:32:43.772 -0400,10500.561527,0.86785888671875,0.441253662109375,-0.21148681640625,1,0.97
2020-05-16 12:32:43.842 -0400,10500.631356,1.103057861328125,0.8715667724609375,-0.3239288330078125,1,0.97
2020-05-16 12:32:43.911 -0400,10500.701185,1.117752075195312,0.8936309814453125,-0.530914306640625,1,0.97
2020-05-16 12:32:43.981 -0400,10500.771014,1.462875366210938,0.7931976318359375,-0.52471923828125,1,0.97
2020-05-16 12:32:44.051 -0400,10500.840842,1.390472412109375,0.573486328125,-0.3191070556640625,1,0.97
2020-05-16 12:32:44.121 -0400,10500.910672875,1.40936279296875,0.3224334716796875,-0.20697021484375,1,0.97
2020-05-16 12:32:44.191 -0400,10500.980501875,0.9108734130859375,0.26953125,-0.177032470703125,1,0.97
2020-05-16 12:32:44.261 -0400,10501.050333875,0.7798004150390625,0.3697357177734375,0.005645751953125,1,0.97
2020-05-16 12:32:44.332 -0400,10501.120169875,0.9759674072265625,0.3055572509765625,0.071502685546875,1,0.97
2020-05-16 12:32:44.401 -0400,10501.190009875,0.96636962890625,0.225799560546875,0.09783935546875,1,0.97
2020-05-16 12:32:44.470 -0400,10501.259847875,1.00762939453125,0.309417724609375,0.0299835205078125,1,0.97
2020-05-16 12:32:44.540 -0400,10501.329682875,0.9189605712890625,0.5288543701171875,-0.4384613037109375,1,0.97
2020-05-16 12:32:44.610 -0400,10501.399517875,1.391204833984375,0.29315185546875,-0.1792144775390625,1,0.97
2020-05-16 12:32:44.680 -0400,10501.469350875,0.84942626953125,0.12384033203125,-0.2682647705078125,1,0.97
2020-05-16 12:32:44.749 -0400,10501.539187875,0.7057342529296875,0.53631591796875,-0.36431884765625,1,0.97
2020-05-16 12:32:44.819 -0400,10501.609018875,0.71868896484375,0.8907318115234375,-0.2910614013671875,1,0.97
2020-05-16 12:32:44.889 -0400,10501.678851875,1.120819091796875,0.6430511474609375,-0.4201507568359375,1,0.97
2020-05-16 12:32:44.959 -0400,10501.748682875,1.2071533203125,0.7335052490234375,-0.4914398193359375,1,0.97
2020-05-16 12:32:45.029 -0400,10501.818521875,1.128616333007812,0.679534912109375,-0.39251708984375,1,0.97
2020-05-16 12:32:45.099 -0400,10501.888358375,1.46807861328125,0.651123046875,-0.32568359375,1,0.97
2020-05-16 12:32:45.194 -0400,10501.958194375,1.201187133789062,0.3367919921875,-0.1666107177734375,1,0.97
2020-05-16 12:32:45.239 -0400,10502.028028375,0.6835174560546875,0.292755126953125,-0.135955810546875,1,0.97
2020-05-16 12:32:45.308 -0400,10502.097863375,0.702911376953125,0.3963470458984375,-0.01513671875,1,0.97
2020-05-16 12:32:45.378 -0400,10502.167700375,1.133895874023438,0.33367919921875,-0.021331787109375,1,0.97
2020-05-16 12:32:45.448 -0400,10502.237535375,1.06640625,0.192047119140625,0.04541015625,1,0.97
2020-05-16 12:32:45.518 -0400,10502.307370375,1.052230834960938,0.3021240234375,-0.0911865234375,1,0.97
2020-05-16 12:32:45.587 -0400,10502.377206375,0.882781982421875,0.440032958984375,-0.261871337890625,1,0.97
2020-05-16 12:32:45.657 -0400,10502.447042375,1.25592041015625,0.4423370361328125,-0.4151153564453125,1,0.97
2020-05-16 12:32:45.727 -0400,10502.516877375,0.686187744140625,0.2093505859375,-0.314910888671875,1,0.97
2020-05-16 12:32:45.797 -0400,10502.586715375,0.6094512939453125,0.33551025390625,-0.2559356689453125,1,0.97
2020-05-16 12:32:45.867 -0400,10502.656553375,0.8142547607421875,0.5850677490234375,-0.364288330078125,1,0.97
2020-05-16 12:32:45.937 -0400,10502.726388375,0.98944091796875,0.670928955078125,-0.561279296875,1,0.97
2020-05-16 12:32:46.007 -0400,10502.796225375,1.419219970703125,0.7180633544921875,-0.4851837158203125,1,0.97
2020-05-16 12:32:46.076 -0400,10502.86606379167,1.295364379882812,0.51959228515625,-0.464508056640625,1,0.97
2020-05-16 12:32:46.146 -0400,10502.93590179167,1.474151611328125,0.435638427734375,-0.25885009765625,1,0.97
2020-05-16 12:32:46.216 -0400,10503.00573879167,1.096420288085938,0.24786376953125,-0.22088623046875,1,0.97
2020-05-16 12:32:46.286 -0400,10503.07557679167,0.6559906005859375,0.3314361572265625,-0.07830810546875,1,0.97
2020-05-16 12:32:46.356 -0400,10503.14541579167,0.698699951171875,0.35052490234375,0.0154571533203125,1,0.97
2020-05-16 12:32:46.426 -0400,10503.21525279167,0.9752960205078125,0.2466888427734375,0.040069580078125,1,0.97
2020-05-16 12:32:46.496 -0400,10503.28508879167,0.9721221923828125,0.2150726318359375,0.1407470703125,1,0.97
2020-05-16 12:32:46.565 -0400,10503.35492579167,1.068649291992188,0.40777587890625,0.001068115234375,1,0.97
2020-05-16 12:32:46.635 -0400,10503.42476179167,1.119186401367188,0.6561431884765625,-0.52252197265625,1,0.97
2020-05-16 12:32:46.705 -0400,10503.49459879167,1.268692016601562,0.369720458984375,-0.1824188232421875,1,0.97
2020-05-16 12:32:46.775 -0400,10503.56443379167,0.704132080078125,0.130615234375,-0.4322052001953125,1,0.97
2020-05-16 12:32:46.844 -0400,10503.63427179167,0.62066650390625,0.5338897705078125,-0.3733367919921875,1,0.97
2020-05-16 12:32:46.914 -0400,10503.70410979167,0.842803955078125,0.59771728515625,-0.451080322265625,1,0.97
2020-05-16 12:32:46.984 -0400,10503.77394879167,1.038131713867188,0.6004638671875,-0.5214080810546875,1,0.97
2020-05-16 12:32:47.054 -0400,10503.84378479167,1.426971435546875,0.6981201171875,-0.410430908203125,1,0.97
2020-05-16 12:32:47.124 -0400,10503.913621625,1.350173950195312,0.529083251953125,-0.4449615478515625,1,0.97
2020-05-16 12:32:47.194 -0400,10503.983453625,1.3468017578125,0.5247650146484375,-0.2234344482421875,1,0.97
2020-05-16 12:32:47.264 -0400,10504.053287625,0.9453125,0.2902374267578125,-0.1662139892578125,1,0.97
2020-05-16 12:32:47.333 -0400,10504.123123625,0.6653900146484375,0.3068084716796875,-0.0840911865234375,1,0.97
2020-05-16 12:32:47.403 -0400,10504.192960625,0.820037841796875,0.3625335693359375,-0.01031494140625,1,0.97
2020-05-16 12:32:47.473 -0400,10504.262793625,1.15338134765625,0.2663726806640625,0.0345916748046875,1,0.97
2020-05-16 12:32:47.543 -0400,10504.332631625,0.9195098876953125,0.2792816162109375,0.012176513671875,1,0.97
2020-05-16 12:32:47.613 -0400,10504.402468625,1.039413452148438,0.39276123046875,-0.1392669677734375,1,0.97
2020-05-16 12:32:47.683 -0400,10504.472307625,0.8384552001953125,0.410369873046875,-0.32861328125,1,0.97
2020-05-16 12:32:47.752 -0400,10504.542147625,1.308364868164062,0.489044189453125,-0.40972900390625,1,0.97
2020-05-16 12:32:47.822 -0400,10504.611984625,0.734375,0.3020782470703125,-0.39093017578125,1,0.97
2020-05-16 12:32:47.892 -0400,10504.681821625,0.69873046875,0.3575439453125,-0.3588104248046875,1,0.97
2020-05-16 12:32:47.962 -0400,10504.751659625,0.9156494140625,0.4855499267578125,-0.421875,1,0.97
2020-05-16 12:32:48.032 -0400,10504.821493625,1.025070190429688,0.563323974609375,-0.5757904052734375,1,0.97
2020-05-16 12:32:48.101 -0400,10504.891324,1.895782470703125,0.6617431640625,-0.6829681396484375,1,0.97
2020-05-16 12:32:48.171 -0400,10504.961154,1.176376342773438,0.256988525390625,-0.3656768798828125,1,0.97
2020-05-16 12:32:48.241 -0400,10505.030986,1.445144653320312,0.4639434814453125,-0.2608642578125,1,0.97
2020-05-16 12:32:48.311 -0400,10505.100819,0.8578033447265625,0.38543701171875,-0.1888580322265625,1,0.97
2020-05-16 12:32:48.381 -0400,10505.170657,0.56854248046875,0.3717041015625,-0.0223541259765625,1,0.97
2020-05-16 12:32:48.451 -0400,10505.240495,0.6529998779296875,0.3001251220703125,-0.021453857421875,1,0.97
2020-05-16 12:32:48.521 -0400,10505.310329,1.029312133789062,0.218994140625,-0.019256591796875,1,0.97
2020-05-16 12:32:48.591 -0400,10505.380166,1.079299926757812,0.2690887451171875,-0.030670166015625,1,0.97
2020-05-16 12:32:48.660 -0400,10505.45,0.925750732421875,0.4074859619140625,-0.0662994384765625,1,0.97
2020-05-16 12:32:48.730 -0400,10505.519834,1.36407470703125,0.5172271728515625,-0.477203369140625,1,0.97
2020-05-16 12:32:48.800 -0400,10505.589667,1.071701049804688,0.12017822265625,-0.293365478515625,1,0.97
2020-05-16 12:32:48.870 -0400,10505.659504,0.5361328125,0.4557647705078125,-0.3928375244140625,1,0.97
2020-05-16 12:32:48.940 -0400,10505.729341,0.506561279296875,0.5054473876953125,-0.252685546875,1,0.97
2020-05-16 12:32:49.009 -0400,10505.799177,0.9155426025390625,0.511932373046875,-0.3423614501953125,1,0.97
2020-05-16 12:32:49.079 -0400,10505.869011,1.129867553710938,0.5355224609375,-0.4300994873046875,1,0.97
2020-05-16 12:32:49.149 -0400,10505.93884425,1.717803955078125,0.6633148193359375,-0.4567413330078125,1,0.97
2020-05-16 12:32:49.219 -0400,10506.00867925,1.081985473632812,0.619537353515625,-0.3929443359375,1,0.97
2020-05-16 12:32:49.289 -0400,10506.07851225,1.259445190429688,0.4488983154296875,-0.2532958984375,1,0.97
2020-05-16 12:32:49.359 -0400,10506.14834425,0.821044921875,0.3105010986328125,-0.1976776123046875,1,0.97
2020-05-16 12:32:49.428 -0400,10506.21818225,0.53448486328125,0.3031005859375,-0.1050262451171875,1,0.97
2020-05-16 12:32:49.498 -0400,10506.28802125,0.564208984375,0.309539794921875,-0.10516357421875,1,0.97
2020-05-16 12:32:49.568 -0400,10506.35786025,1.0902099609375,0.291717529296875,-0.076568603515625,1,0.97
2020-05-16 12:32:49.638 -0400,10506.42769725,1.291717529296875,0.21484375,0.00738525390625,1,0.97
2020-05-16 12:32:49.708 -0400,10506.49753525,1.18011474609375,0.421173095703125,-0.0494232177734375,1,0.97
2020-05-16 12:32:49.778 -0400,10506.56737525,1.175262451171875,0.473052978515625,-0.315216064453125,1,0.97
2020-05-16 12:32:49.848 -0400,10506.63721425,1.124847412109375,0.236663818359375,-0.2248077392578125,1,0.97
2020-05-16 12:32:49.917 -0400,10506.70705325,0.64666748046875,0.269287109375,-0.338226318359375,1,0.97
2020-05-16 12:32:49.987 -0400,10506.77689225,0.4609527587890625,0.50506591796875,-0.312530517578125,1,0.97
2020-05-16 12:32:50.057 -0400,10506.84672925,0.5587615966796875,0.4448699951171875,-0.2943115234375,1,0.97
2020-05-16 12:32:50.127 -0400,10506.9165645,0.8753814697265625,0.5214385986328125,-0.3559112548828125,1,0.97
2020-05-16 12:32:50.197 -0400,10506.9863965,1.481201171875,0.641998291015625,-0.462432861328125,1,0.97
2020-05-16 12:32:50.266 -0400,10507.0562325,1.394210815429688,0.61016845703125,-0.455780029296875,1,0.97
2020-05-16 12:32:50.337 -0400,10507.1260695,1.282028198242188,0.34771728515625,-0.2811126708984375,1,0.97
2020-05-16 12:32:50.406 -0400,10507.1959095,1.3184814453125,0.3072662353515625,-0.085052490234375,1,0.97
2020-05-16 12:32:50.476 -0400,10507.2657465,0.7804718017578125,0.394012451171875,-0.014862060546875,1,0.97
2020-05-16 12:32:50.546 -0400,10507.3355815,0.6098175048828125,0.3704986572265625,0.0522308349609375,1,0.97
2020-05-16 12:32:50.616 -0400,10507.4054175,0.763397216796875,0.3095703125,0.0565948486328125,1,0.97
2020-05-16 12:32:50.686 -0400,10507.4752555,1.082046508789062,0.2859954833984375,0.0598297119140625,1,0.97
2020-05-16 12:32:50.755 -0400,10507.5450925,1.168853759765625,0.3008575439453125,-0.0581817626953125,1,0.97
2020-05-16 12:32:50.825 -0400,10507.6149275,1.012725830078125,0.308197021484375,-0.2450714111328125,1,0.97
2020-05-16 12:32:50.895 -0400,10507.6847645,1.130081176757812,0.2678070068359375,-0.346771240234375,1,0.97
2020-05-16 12:32:50.965 -0400,10507.7546035,0.7979888916015625,0.1938934326171875,-0.2112579345703125,1,0.97
2020-05-16 12:32:51.035 -0400,10507.8244415,0.567169189453125,0.4434814453125,-0.3470306396484375,1,0.97
2020-05-16 12:32:51.105 -0400,10507.894278875,0.6937713623046875,0.3895721435546875,-0.4049072265625,1,0.97
2020-05-16 12:32:51.174 -0400,10507.964115875,1.050323486328125,0.4684906005859375,-0.2080078125,1,0.97
2020-05-16 12:32:51.244 -0400,10508.033949875,1.194427490234375,0.658477783203125,-0.2752838134765625,1,0.97
2020-05-16 12:32:51.314 -0400,10508.103787875,1.5350341796875,0.67236328125,-0.283843994140625,1,0.97
2020-05-16 12:32:51.384 -0400,10508.173622875,1.037338256835938,0.6792449951171875,-0.3563079833984375,1,0.97
2020-05-16 12:32:51.454 -0400,10508.243458875,1.07000732421875,0.46588134765625,-0.312774658203125,1,0.97
2020-05-16 12:32:51.524 -0400,10508.313298875,0.9170684814453125,0.334075927734375,-0.187103271484375,1,0.97
2020-05-16 12:32:51.593 -0400,10508.383138875,0.5870208740234375,0.359588623046875,-0.1672821044921875,1,0.97
2020-05-16 12:32:51.663 -0400,10508.452976875,0.4870147705078125,0.3090972900390625,-0.1065521240234375,1,0.97
2020-05-16 12:32:51.733 -0400,10508.522813875,0.7041015625,0.3059539794921875,-0.0947418212890625,1,0.97
2020-05-16 12:32:51.803 -0400,10508.592656875,1.427444458007812,0.387939453125,-0.1223907470703125,1,0.97
2020-05-16 12:32:51.873 -0400,10508.662497875,1.401351928710938,0.2971649169921875,-0.158203125,1,0.97
2020-05-16 12:32:51.943 -0400,10508.732334875,0.8437652587890625,0.4785308837890625,-0.426971435546875,1,0.97
2020-05-16 12:32:52.012 -0400,10508.802171875,1.033355712890625,0.2762451171875,-0.252410888671875,1,0.97
2020-05-16 12:32:52.082 -0400,10508.872006875,0.8193206787109375,0.220794677734375,-0.349578857421875,1,0.97
2020-05-16 12:32:52.153 -0400,10508.94184175,0.4340362548828125,0.4765167236328125,-0.231719970703125,1,0.97
2020-05-16 12:32:52.222 -0400,10509.01167475,0.4995269775390625,0.4794921875,-0.1537322998046875,1,0.97
2020-05-16 12:32:52.292 -0400,10509.08151275,0.7664031982421875,0.48858642578125,-0.2563323974609375,1,0.97
2020-05-16 12:32:52.362 -0400,10509.15134675,1.060882568359375,0.650848388671875,-0.39691162109375,1,0.97
2020-05-16 12:32:52.432 -0400,10509.22117875,1.435897827148438,0.6309814453125,-0.421905517578125,1,0.97
2020-05-16 12:32:52.501 -0400,10509.29101075,1.15350341796875,0.4823760986328125,-0.4079132080078125,1,0.97
2020-05-16 12:32:52.571 -0400,10509.36084475,1.216217041015625,0.4265594482421875,-0.28314208984375,1,0.97
2020-05-16 12:32:52.641 -0400,10509.43067675,1.097991943359375,0.33062744140625,-0.119659423828125,1,0.97
2020-05-16 12:32:52.711 -0400,10509.50050875,0.7102813720703125,0.4029998779296875,-0.1502838134765625,1,0.97
2020-05-16 12:32:52.781 -0400,10509.57034675,0.6999053955078125,0.3968963623046875,-0.09698486328125,1,0.97
2020-05-16 12:32:52.850 -0400,10509.64018575,1.033050537109375,0.2581939697265625,-0.0438232421875,1,0.97
2020-05-16 12:32:52.920 -0400,10509.71002875,1.065475463867188,0.2244873046875,-0.03863525390625,1,0.97
2020-05-16 12:32:52.990 -0400,10509.77987175,1.082901000976562,0.37384033203125,-0.1346282958984375,1,0.97
2020-05-16 12:32:53.060 -0400,10509.84971275,0.8919219970703125,0.369476318359375,-0.2009735107421875,1,0.97
2020-05-16 12:32:53.130 -0400,10509.919551625,1.204757690429688,0.3771514892578125,-0.1861724853515625,1,0.97
2020-05-16 12:32:53.200 -0400,10509.989387625,0.9253997802734375,0.40771484375,-0.27239990234375,1,0.97
2020-05-16 12:32:53.272 -0400,10510.059224625,0.6228790283203125,0.4021148681640625,-0.227020263671875,1,0.97
2020-05-16 12:32:53.339 -0400,10510.129060625,0.7642059326171875,0.4423828125,-0.2056427001953125,1,0.97
2020-05-16 12:32:53.409 -0400,10510.198902625,1.000839233398438,0.5612640380859375,-0.2109527587890625,1,0.97
2020-05-16 12:32:53.479 -0400,10510.268745625,1.281143188476562,0.8581085205078125,-0.2887420654296875,1,0.97
2020-05-16 12:32:53.549 -0400,10510.338589625,1.066497802734375,0.566436767578125,-0.3916168212890625,1,0.97
2020-05-16 12:32:53.619 -0400,10510.408430625,1.203170776367188,0.8999786376953125,-0.418121337890625,1,0.97
2020-05-16 12:32:53.689 -0400,10510.478268625,1.284637451171875,0.32373046875,-0.2386322021484375,1,0.97
2020-05-16 12:32:53.758 -0400,10510.548106625,0.7908172607421875,0.291900634765625,-0.2590179443359375,1,0.97
2020-05-16 12:32:53.828 -0400,10510.617948625,0.66619873046875,0.4091949462890625,-0.1173095703125,1,0.97
2020-05-16 12:32:53.898 -0400,10510.687791625,0.735748291015625,0.272491455078125,-0.038238525390625,1,0.97
2020-05-16 12:32:53.968 -0400,10510.757631625,0.812164306640625,0.2362213134765625,0.0118560791015625,1,0.97
2020-05-16 12:32:54.038 -0400,10510.827468625,1.055755615234375,0.345916748046875,-0.0739288330078125,1,0.97
2020-05-16 12:32:54.108 -0400,10510.89730254167,1.049484252929688,0.4660186767578125,-0.25213623046875,1,0.97
2020-05-16 12:32:54.177 -0400,10510.96713954167,1.343521118164062,0.368255615234375,-0.2714080810546875,1,0.97
2020-05-16 12:32:54.247 -0400,10511.03697454167,0.72406005859375,0.2212677001953125,-0.26849365234375,1,0.97
2020-05-16 12:32:54.317 -0400,10511.10680854167,0.5341644287109375,0.431915283203125,-0.2318572998046875,1,0.97
2020-05-16 12:32:54.387 -0400,10511.17664454167,0.652191162109375,0.543365478515625,-0.2224273681640625,1,0.97
2020-05-16 12:32:54.457 -0400,10511.24648054167,1.012176513671875,0.6044158935546875,-0.3505706787109375,1,0.97
2020-05-16 12:32:54.527 -0400,10511.31631654167,1.227203369140625,0.658843994140625,-0.3130035400390625,1,0.97
2020-05-16 12:32:54.596 -0400,10511.38615454167,1.305389404296875,0.7337646484375,-0.441070556640625,1,0.97
2020-05-16 12:32:54.666 -0400,10511.45599254167,1.433990478515625,0.6157073974609375,-0.266021728515625,1,0.97
2020-05-16 12:32:54.736 -0400,10511.52582954167,1.00494384765625,0.273651123046875,-0.2156524658203125,1,0.97
2020-05-16 12:32:54.806 -0400,10511.59566654167,0.61981201171875,0.331573486328125,-0.165283203125,1,0.97
2020-05-16 12:32:54.876 -0400,10511.66550454167,0.6097412109375,0.27386474609375,-0.0768280029296875,1,0.97
2020-05-16 12:32:54.946 -0400,10511.73534354167,0.9651641845703125,0.2200469970703125,-0.0203094482421875,1,0.97
2020-05-16 12:32:55.016 -0400,10511.80517754167,1.1744384765625,0.3131561279296875,0.0522613525390625,1,0.97
2020-05-16 12:32:55.085 -0400,10511.87501354167,1.086044311523438,0.3902130126953125,-0.0501556396484375,1,0.97
2020-05-16 12:32:55.155 -0400,10511.94484929167,1.35955810546875,0.5757598876953125,-0.449554443359375,1,0.97
2020-05-16 12:32:55.225 -0400,10512.01468429167,1.256301879882812,0.2548675537109375,-0.2008819580078125,1,0.97
2020-05-16 12:32:55.295 -0400,10512.08451729167,0.65899658203125,0.1759185791015625,-0.4278717041015625,1,0.97
2020-05-16 12:32:55.365 -0400,10512.15435529167,0.432861328125,0.471771240234375,-0.333770751953125,1,0.97
2020-05-16 12:32:55.435 -0400,10512.22419529167,0.5267181396484375,0.4410400390625,-0.2927398681640625,1,0.97
2020-05-16 12:32:55.504 -0400,10512.29402829167,1.001663208007812,0.5077972412109375,-0.4085845947265625,1,0.97
2020-05-16 12:32:55.574 -0400,10512.36386529167,1.051559448242188,0.4945526123046875,-0.4704132080078125,1,0.97
2020-05-16 12:32:55.644 -0400,10512.43370129167,1.626251220703125,0.584625244140625,-0.42431640625,1,0.97
2020-05-16 12:32:55.714 -0400,10512.50353829167,1.036468505859375,0.3669891357421875,-0.2942962646484375,1,0.97
2020-05-16 12:32:55.784 -0400,10512.57337629167,1.360275268554688,0.45465087890625,-0.2642059326171875,1,0.97
2020-05-16 12:32:55.853 -0400,10512.64321129167,0.940185546875,0.297760009765625,-0.092498779296875,1,0.97
2020-05-16 12:32:55.923 -0400,10512.71305029167,0.4543914794921875,0.2840576171875,-0.06280517578125,1,0.97
2020-05-16 12:32:55.994 -0400,10512.78288629167,0.464141845703125,0.32757568359375,-0.04217529296875,1,0.97
2020-05-16 12:32:56.063 -0400,10512.85272129167,0.960784912109375,0.329742431640625,-0.05987548828125,1,0.97
2020-05-16 12:32:56.133 -0400,10512.922558875,1.291961669921875,0.2562255859375,-0.0814056396484375,1,0.97
2020-05-16 12:32:56.202 -0400,10512.992396875,1.321701049804688,0.3432769775390625,-0.10345458984375,1,0.97
2020-05-16 12:32:56.273 -0400,10513.062234875,1.076385498046875,0.6593017578125,-0.53436279296875,1,0.97
2020-05-16 12:32:56.342 -0400,10513.132073875,1.223831176757812,0.3723907470703125,-0.1655426025390625,1,0.97
2020-05-16 12:32:56.412 -0400,10513.201916875,0.7761993408203125,0.34832763671875,-0.4250946044921875,1,0.97
2020-05-16 12:32:56.482 -0400,10513.271759875,0.4169464111328125,0.436126708984375,-0.25970458984375,1,0.97
2020-05-16 12:32:56.552 -0400,10513.341600875,0.490203857421875,0.388763427734375,-0.22332763671875,1,0.97
2020-05-16 12:32:56.622 -0400,10513.411444875,0.8643951416015625,0.449951171875,-0.3316497802734375,1,0.97
2020-05-16 12:32:56.691 -0400,10513.481289875,1.311813354492188,0.5615386962890625,-0.450775146484375,1,0.97
2020-05-16 12:32:56.761 -0400,10513.551134875,1.614852905273438,0.5361480712890625,-0.5495758056640625,1,0.97
2020-05-16 12:32:56.831 -0400,10513.620976875,1.266159057617188,0.4622344970703125,-0.4224395751953125,1,0.97
2020-05-16 12:32:56.901 -0400,10513.690818875,1.190399169921875,0.2331390380859375,-0.211334228515625,1,0.97
2020-05-16 12:32:56.971 -0400,10513.760662875,0.6132659912109375,0.27679443359375,-0.1664581298828125,1,0.97
2020-05-16 12:32:57.041 -0400,10513.830506875,0.4520111083984375,0.352569580078125,-0.087371826171875,1,0.97
2020-05-16 12:32:57.111 -0400,10513.90034991667,0.592987060546875,0.274932861328125,-0.0603485107421875,1,0.97
2020-05-16 12:32:57.180 -0400,10513.97019091667,0.9427642822265625,0.241790771484375,-0.068145751953125,1,0.97
2020-05-16 12:32:57.250 -0400,10514.04003291667,0.87811279296875,0.270233154296875,-0.1649169921875,1,0.97
2020-05-16 12:32:57.320 -0400,10514.10986991667,1.151885986328125,0.469207763671875,-0.29998779296875,1,0.97
2020-05-16 12:32:57.390 -0400,10514.17970891667,1.534835815429688,0.5199127197265625,-0.63720703125,1,0.97
2020-05-16 12:32:57.460 -0400,10514.24954991667,1.136688232421875,0.2105255126953125,-0.268951416015625,1,0.97
2020-05-16 12:32:57.530 -0400,10514.31939391667,0.5427398681640625,0.32952880859375,-0.2904052734375,1,0.97
2020-05-16 12:32:57.599 -0400,10514.38923791667,0.3528900146484375,0.54217529296875,-0.2053680419921875,1,0.97
2020-05-16 12:32:57.669 -0400,10514.45908091667,0.481719970703125,0.543701171875,-0.361419677734375,1,0.97
2020-05-16 12:32:57.740 -0400,10514.52892391667,1.011474609375,0.636962890625,-0.4687347412109375,1,0.97
2020-05-16 12:32:57.809 -0400,10514.59876891667,1.55487060546875,0.5789337158203125,-0.3753814697265625,1,0.97
2020-05-16 12:32:57.879 -0400,10514.66861091667,1.494338989257812,0.69537353515625,-0.33892822265625,1,0.97
2020-05-16 12:32:57.949 -0400,10514.73845491667,1.561355590820312,0.4269866943359375,0.0416259765625,1,0.97
2020-05-16 12:32:58.018 -0400,10514.80829791667,0.8358306884765625,0.334259033203125,-0.1380462646484375,1,0.97
2020-05-16 12:32:58.088 -0400,10514.87813991667,0.589141845703125,0.3720245361328125,-0.0695648193359375,1,0.97
2020-05-16 12:32:58.158 -0400,10514.9479785,0.7005767822265625,0.272735595703125,-0.0598907470703125,1,0.97
2020-05-16 12:32:58.228 -0400,10515.0178185,0.9777679443359375,0.1982421875,-0.1070098876953125,1,0.97
2020-05-16 12:32:58.298 -0400,10515.0876585,1.03839111328125,0.179473876953125,-0.04656982421875,1,0.97
2020-05-16 12:32:58.368 -0400,10515.1575005,0.86822509765625,0.365509033203125,-0.2521514892578125,1,0.97
2020-05-16 12:32:58.438 -0400,10515.2273415,1.280044555664062,0.28472900390625,-0.3724822998046875,1,0.97
2020-05-16 12:32:58.507 -0400,10515.2971795,1.260757446289062,0.207275390625,-0.2316131591796875,1,0.97
2020-05-16 12:32:58.577 -0400,10515.3670185,0.719940185546875,0.5299530029296875,-0.357086181640625,1,0.97
2020-05-16 12:32:58.647 -0400,10515.4368565,0.5184173583984375,0.534942626953125,-0.200347900390625,1,0.97
2020-05-16 12:32:58.717 -0400,10515.5066975,0.5959320068359375,0.5051422119140625,-0.2362518310546875,1,0.97
2020-05-16 12:32:58.787 -0400,10515.5765355,0.7383575439453125,0.67218017578125,-0.27569580078125,1,0.97
2020-05-16 12:32:58.857 -0400,10515.6463765,1.452239990234375,0.8647308349609375,-0.393402099609375,1,0.97
2020-05-16 12:32:58.926 -0400,10515.7162185,1.660415649414062,0.4962158203125,-0.3670196533203125,1,0.97
2020-05-16 12:32:58.996 -0400,10515.7860615,1.705078125,0.507049560546875,-0.304412841796875,1,0.97
2020-05-16 12:32:59.066 -0400,10515.8559035,1.10833740234375,0.26141357421875,-0.1450958251953125,1,0.97
2020-05-16 12:32:59.136 -0400,10515.925746875,0.6922149658203125,0.279022216796875,-0.1862945556640625,1,0.97
2020-05-16 12:32:59.217 -0400,10515.995584875,0.5272216796875,0.1825103759765625,0.005584716796875,1,0.97
2020-05-16 12:32:59.276 -0400,10516.065422875,0.57757568359375,0.1026763916015625,0.0041961669921875,1,0.97
2020-05-16 12:32:59.345 -0400,10516.135258875,0.5615997314453125,0.2130279541015625,0.00128173828125,1,0.97
2020-05-16 12:32:59.415 -0400,10516.205097875,1.142059326171875,0.448699951171875,-0.216339111328125,1,0.97
2020-05-16 12:32:59.485 -0400,10516.274935875,1.8084716796875,0.8275299072265625,-0.5181732177734375,1,0.97
2020-05-16 12:32:59.555 -0400,10516.344774875,1.589157104492188,0.6259307861328125,-0.3315277099609375,1,0.97
2020-05-16 12:32:59.625 -0400,10516.414612875,0.7661285400390625,0.5820770263671875,-0.2469635009765625,1,0.97
2020-05-16 12:32:59.695 -0400,10516.484449875,0.48822021484375,0.569732666015625,-0.14373779296875,1,0.97
2020-05-16 12:32:59.765 -0400,10516.554285875,0.398406982421875,0.626739501953125,-0.0883941650390625,1,0.97
2020-05-16 12:32:59.834 -0400,10516.624122875,0.8021087646484375,0.8194122314453125,-0.1732177734375,1,0.97
2020-05-16 12:32:59.904 -0400,10516.693962875,0.9455413818359375,0.7055511474609375,-0.2186126708984375,1,0.97
2020-05-16 12:32:59.974 -0400,10516.763797875,1.482864379882812,1.01568603515625,-0.560150146484375,1,0.97
2020-05-16 12:33:00.044 -0400,10516.833637875,1.596160888671875,0.5253143310546875,-0.2937774658203125,1,0.97
2020-05-16 12:33:00.114 -0400,10516.903474625,1.268173217773438,0.4604644775390625,-0.285736083984375,1,0.97
2020-05-16 12:33:00.184 -0400,10516.973311625,0.7100982666015625,0.3706817626953125,-0.1715850830078125,1,0.97
2020-05-16 12:33:00.253 -0400,10517.043147625,0.6476898193359375,0.2308502197265625,-0.071868896484375,1,0.97
2020-05-16 12:33:00.323 -0400,10517.112984625,0.7018890380859375,0.1949615478515625,-0.0537567138671875,1,0.97
2020-05-16 12:33:00.393 -0400,10517.182821625,0.8557891845703125,0.4760589599609375,0.0168609619140625,1,0.97
2020-05-16 12:33:00.463 -0400,10517.252664625,0.663818359375,0.7141876220703125,-0.153350830078125,1,0.97
2020-05-16 12:33:00.533 -0400,10517.322507625,0.990447998046875,0.9010009765625,-0.113800048828125,1,0.97
2020-05-16 12:33:00.603 -0400,10517.392354625,0.852874755859375,0.9517822265625,-0.3128204345703125,1,0.97
2020-05-16 12:33:00.672 -0400,10517.462198625,0.40966796875,0.6988677978515625,-0.48516845703125,1,0.97
2020-05-16 12:33:00.742 -0400,10517.532043625,0.2224273681640625,0.5547332763671875,-0.1154327392578125,1,0.97
2020-05-16 12:33:00.812 -0400,10517.601889625,0.2557525634765625,0.8145599365234375,0.1840667724609375,1,0.97
2020-05-16 12:33:00.882 -0400,10517.671736625,0.742095947265625,0.8125457763671875,0.0512237548828125,1,0.97
2020-05-16 12:33:00.952 -0400,10517.741584625,1.136367797851562,1.092849731445312,-0.0321502685546875,1,0.97
2020-05-16 12:33:01.022 -0400,10517.811427625,0.9951934814453125,1.267410278320312,0.13433837890625,1,0.97
2020-05-16 12:33:01.091 -0400,10517.881269625,1.221893310546875,1.154571533203125,0.093414306640625,1,0.97
2020-05-16 12:33:01.162 -0400,10517.95111266667,0.6898345947265625,0.574676513671875,-0.2233734130859375,1,0.97
2020-05-16 12:33:01.231 -0400,10518.02095566667,0.2912139892578125,0.240692138671875,-0.1912384033203125,1,0.97
2020-05-16 12:33:01.301 -0400,10518.09079466667,0.1351776123046875,0.5212860107421875,-0.0525054931640625,1,0.97
2020-05-16 12:33:01.371 -0400,10518.16063366667,0.90936279296875,0.598541259765625,0.0016937255859375,1,0.97
2020-05-16 12:33:01.441 -0400,10518.23047366667,0.7442779541015625,0.5064849853515625,-0.136199951171875,1,0.97
2020-05-16 12:33:01.511 -0400,10518.30030866667,1.192886352539062,0.2020721435546875,0.122894287109375,1,0.97
2020-05-16 12:33:01.580 -0400,10518.37014666667,1.668807983398438,0.95111083984375,-0.132080078125,1,0.97
2020-05-16 12:33:01.650 -0400,10518.43998566667,0.943389892578125,0.4377288818359375,-0.0865020751953125,1,0.97
2020-05-16 12:33:01.720 -0400,10518.50982766667,0.724761962890625,0.4464111328125,-0.138214111328125,1,0.97
2020-05-16 12:33:01.790 -0400,10518.57966766667,0.5821380615234375,0.55560302734375,0.078704833984375,1,0.97
2020-05-16 12:33:01.860 -0400,10518.64950666667,0.902069091796875,0.70831298828125,-0.05645751953125,1,0.97
2020-05-16 12:33:01.930 -0400,10518.71934666667,1.389266967773438,1.356857299804688,0.051605224609375,1,0.97
2020-05-16 12:33:01.999 -0400,10518.78918766667,1.476593017578125,0.7721099853515625,-0.4629669189453125,1,0.97
2020-05-16 12:33:02.069 -0400,10518.85902966667,0.9968109130859375,1.017349243164062,-0.14495849609375,1,0.97
2020-05-16 12:33:02.139 -0400,10518.928873375,1.43304443359375,0.586395263671875,0.0223236083984375,1,0.97
2020-05-16 12:33:02.209 -0400,10518.998716375,0.9215545654296875,0.2931976318359375,-0.14520263671875,1,0.97
2020-05-16 12:33:02.279 -0400,10519.068557375,0.71575927734375,0.3865509033203125,-0.0504608154296875,1,0.97
2020-05-16 12:33:02.349 -0400,10519.138398375,0.9380340576171875,0.35107421875,-0.0263519287109375,1,0.97
2020-05-16 12:33:02.419 -0400,10519.208239375,1.218704223632812,0.2707977294921875,0.0652618408203125,1,0.97
2020-05-16 12:33:02.488 -0400,10519.278078375,0.9159393310546875,0.28460693359375,-0.104034423828125,1,0.97
2020-05-16 12:33:02.558 -0400,10519.347918375,0.79144287109375,0.3601226806640625,-0.12640380859375,1,0.97
2020-05-16 12:33:02.628 -0400,10519.417754375,1.193130493164062,0.4004974365234375,-0.369842529296875,1,0.97
2020-05-16 12:33:02.698 -0400,10519.487587375,0.91796875,0.3278045654296875,-0.300689697265625,1,0.97
2020-05-16 12:33:02.768 -0400,10519.557423375,0.5715789794921875,0.405242919921875,-0.2710723876953125,1,0.97
2020-05-16 12:33:02.838 -0400,10519.627259375,0.6382904052734375,0.5821380615234375,-0.2911834716796875,1,0.97
2020-05-16 12:33:02.907 -0400,10519.697092375,1.138031005859375,0.7138519287109375,-0.4208526611328125,1,0.97
2020-05-16 12:33:02.977 -0400,10519.766924375,1.18408203125,0.7311248779296875,-0.4596405029296875,1,0.97
2020-05-16 12:33:03.047 -0400,10519.836757375,1.548187255859375,0.7985382080078125,-0.4695281982421875,1,0.97
2020-05-16 12:33:03.117 -0400,10519.90659029167,1.31341552734375,0.5569915771484375,-0.3250579833984375,1,0.97
2020-05-16 12:33:03.187 -0400,10519.97642429167,1.365921020507812,0.38720703125,-0.2047882080078125,1,0.97
2020-05-16 12:33:03.257 -0400,10520.04626429167,0.785675048828125,0.3143157958984375,-0.147857666015625,1,0.97
2020-05-16 12:33:03.327 -0400,10520.11610229167,0.6129150390625,0.3581390380859375,-0.0592041015625,1,0.97
2020-05-16 12:33:03.396 -0400,10520.18594029167,0.6891021728515625,0.2775726318359375,-0.012298583984375,1,0.97
2020-05-16 12:33:03.466 -0400,10520.25577829167,0.99896240234375,0.244537353515625,0.007843017578125,1,0.97
2020-05-16 12:33:03.536 -0400,10520.32561729167,0.9676055908203125,0.2453460693359375,0.022369384765625,1,0.97
2020-05-16 12:33:03.606 -0400,10520.39545629167,1.035476684570312,0.44635009765625,-0.153167724609375,1,0.97
2020-05-16 12:33:03.676 -0400,10520.46529429167,1.253326416015625,0.4975128173828125,-0.4967041015625,1,0.97
2020-05-16 12:33:03.745 -0400,10520.53513329167,1.054367065429688,0.3031463623046875,-0.3023529052734375,1,0.97
2020-05-16 12:33:03.815 -0400,10520.60497729167,0.6475982666015625,0.316619873046875,-0.3115234375,1,0.97
2020-05-16 12:33:03.885 -0400,10520.67482029167,0.6804962158203125,0.6854095458984375,-0.3157196044921875,1,0.97
2020-05-16 12:33:03.955 -0400,10520.74466029167,1.09326171875,0.7791290283203125,-0.4395294189453125,1,0.97
2020-05-16 12:33:04.025 -0400,10520.81450329167,1.171417236328125,0.607147216796875,-0.4562835693359375,1,0.97
2020-05-16 12:33:04.095 -0400,10520.88434729167,1.420822143554688,0.6751708984375,-0.413116455078125,1,0.97
2020-05-16 12:33:04.164 -0400,10520.95418975,1.488006591796875,0.7797088623046875,-0.4060211181640625,1,0.97
2020-05-16 12:33:04.234 -0400,10521.02403375,1.504745483398438,0.5182952880859375,-0.186920166015625,1,0.97
2020-05-16 12:33:04.304 -0400,10521.09387775,0.9222869873046875,0.283355712890625,-0.1536865234375,1,0.97
2020-05-16 12:33:04.374 -0400,10521.16371775,0.71307373046875,0.3097076416015625,-0.0409088134765625,1,0.97
2020-05-16 12:33:04.444 -0400,10521.23356075,0.7752685546875,0.2634735107421875,-0.03326416015625,1,0.97
2020-05-16 12:33:04.514 -0400,10521.30340675,0.82025146484375,0.19598388671875,0.055999755859375,1,0.97
2020-05-16 12:33:04.584 -0400,10521.37325475,0.69989013671875,0.2561798095703125,-0.015594482421875,1,0.97
2020-05-16 12:33:04.653 -0400,10521.44309475,0.94866943359375,0.4194488525390625,-0.0897674560546875,1,0.97
2020-05-16 12:33:04.723 -0400,10521.51293475,1.65911865234375,0.60198974609375,-0.408111572265625,1,0.97
2020-05-16 12:33:04.793 -0400,10521.58277475,1.0281982421875,0.5290679931640625,-0.2701873779296875,1,0.97
2020-05-16 12:33:04.863 -0400,10521.65261775,0.580474853515625,0.260711669921875,-0.317596435546875,1,0.97
2020-05-16 12:33:04.933 -0400,10521.72245875,0.6998138427734375,0.4813690185546875,-0.283721923828125,1,0.97
2020-05-16 12:33:05.003 -0400,10521.79229975,1.02691650390625,0.7214202880859375,-0.497528076171875,1,0.97
2020-05-16 12:33:05.072 -0400,10521.86214275,1.243194580078125,0.584320068359375,-0.5584259033203125,1,0.97
2020-05-16 12:33:05.143 -0400,10521.931981875,1.405487060546875,0.4813690185546875,-0.42950439453125,1,0.97
2020-05-16 12:33:05.212 -0400,10522.001818875,1.364593505859375,0.7405242919921875,-0.427642822265625,1,0.97
2020-05-16 12:33:05.282 -0400,10522.071658875,1.296127319335938,-0.05596923828125,-0.1767578125,1,0.97
2020-05-16 12:33:05.352 -0400,10522.141499875,0.7087860107421875,0.5211334228515625,-0.04364013671875,1,0.97
2020-05-16 12:33:05.422 -0400,10522.211340875,0.6776123046875,0.409515380859375,0.0218353271484375,1,0.97
2020-05-16 12:33:05.492 -0400,10522.281184875,0.689544677734375,0.1739044189453125,0.04473876953125,1,0.97
2020-05-16 12:33:05.561 -0400,10522.351022875,0.8245086669921875,0.1437530517578125,0.0423126220703125,1,0.97
2020-05-16 12:33:05.631 -0400,10522.420858875,1.007797241210938,0.323150634765625,0.01177978515625,1,0.97
2020-05-16 12:33:05.701 -0400,10522.490695875,1.09002685546875,0.5570068359375,-0.2739410400390625,1,0.97
2020-05-16 12:33:05.771 -0400,10522.560535875,1.849838256835938,0.5738677978515625,-0.2684783935546875,1,0.97
2020-05-16 12:33:05.841 -0400,10522.630380875,0.914886474609375,0.43438720703125,-0.4024200439453125,1,0.97
2020-05-16 12:33:05.910 -0400,10522.700222875,0.590240478515625,0.2495880126953125,-0.3047332763671875,1,0.97
2020-05-16 12:33:05.980 -0400,10522.770063875,0.4852752685546875,0.4814910888671875,-0.1955413818359375,1,0.97
2020-05-16 12:33:06.050 -0400,10522.839907875,0.5973358154296875,0.662445068359375,-0.31927490234375,1,0.97
2020-05-16 12:33:06.120 -0400,10522.909749125,0.945892333984375,0.6109466552734375,-0.3931427001953125,1,0.97
2020-05-16 12:33:06.190 -0400,10522.979589125,1.630645751953125,0.56121826171875,-0.38818359375,1,0.97
2020-05-16 12:33:06.260 -0400,10523.049428125,1.6807861328125,0.570037841796875,-0.3627471923828125,1,0.97
2020-05-16 12:33:06.330 -0400,10523.119274125,1.649948120117188,0.4385833740234375,-0.281707763671875,1,0.97
2020-05-16 12:33:06.399 -0400,10523.189116125,0.8432769775390625,0.26373291015625,-0.2086334228515625,1,0.97
2020-05-16 12:33:06.469 -0400,10523.258956125,0.4569549560546875,0.1961212158203125,-0.1020355224609375,1,0.97
2020-05-16 12:33:06.539 -0400,10523.328801125,0.3432769775390625,0.1524810791015625,-0.0141754150390625,1,0.97
2020-05-16 12:33:06.609 -0400,10523.398645125,0.4771881103515625,0.1541595458984375,-0.001220703125,1,0.97
2020-05-16 12:33:06.679 -0400,10523.468487125,0.589019775390625,0.3153076171875,-0.0369720458984375,1,0.97
2020-05-16 12:33:06.749 -0400,10523.538322125,1.612686157226562,0.8331451416015625,-0.06500244140625,1,0.97
2020-05-16 12:33:06.818 -0400,10523.608161125,1.61737060546875,0.85430908203125,-0.7748260498046875,1,0.97
2020-05-16 12:33:06.888 -0400,10523.677997125,1.081253051757812,0.5577239990234375,-0.3409881591796875,1,0.97
2020-05-16 12:33:06.958 -0400,10523.747838125,0.485870361328125,0.1750335693359375,-0.3656768798828125,1,0.97
2020-05-16 12:33:07.028 -0400,10523.817678125,0.311370849609375,0.531494140625,-0.2735595703125,1,0.97
2020-05-16 12:33:07.098 -0400,10523.887517125,0.473480224609375,0.6336517333984375,-0.37249755859375,1,0.97
2020-05-16 12:33:07.168 -0400,10523.957354,1.169158935546875,0.8382415771484375,-0.450164794921875,1,0.97
2020-05-16 12:33:07.237 -0400,10524.027194,1.85894775390625,0.531005859375,-0.4094390869140625,1,0.97
2020-05-16 12:33:07.307 -0400,10524.097035,1.522293090820312,0.4933319091796875,-0.3626251220703125,1,0.97
2020-05-16 12:33:07.377 -0400,10524.166875,1.586669921875,0.5177459716796875,-0.162689208984375,1,0.97
2020-05-16 12:33:07.447 -0400,10524.236714,0.6605072021484375,0.3623504638671875,-0.2353363037109375,1,0.97
2020-05-16 12:33:07.517 -0400,10524.306552,0.434173583984375,0.3016510009765625,-0.0434722900390625,1,0.97
2020-05-16 12:33:07.587 -0400,10524.376389,0.519683837890625,0.2013397216796875,-4.57763671875e-05,1,0.97
2020-05-16 12:33:07.657 -0400,10524.446224,0.726348876953125,0.1798095703125,0.02215576171875,1,0.97
2020-05-16 12:33:07.726 -0400,10524.516065,0.757598876953125,0.244903564453125,0.05389404296875,1,0.97
2020-05-16 12:33:07.796 -0400,10524.585906,1.256683349609375,0.634185791015625,-0.1718902587890625,1,0.97
2020-05-16 12:33:07.866 -0400,10524.655746,1.855300903320312,0.7830047607421875,-0.5952301025390625,1,0.97
2020-05-16 12:33:07.940 -0400,10524.725588,1.092193603515625,0.2619171142578125,-0.3373260498046875,1,0.97
2020-05-16 12:33:08.004 -0400,10524.790554,0.6184234619140625,0.144683837890625,-0.36358642578125,1,0.97
2020-05-16 12:33:08.066 -0400,10524.855529,0.5293121337890625,0.4864044189453125,-0.233001708984375,1,0.97
2020-05-16 12:33:08.131 -0400,10524.92050425,0.54681396484375,0.7274322509765625,-0.3486785888671875,1,0.97
2020-05-16 12:33:08.196 -0400,10524.98547925,0.8029327392578125,0.8151702880859375,-0.54742431640625,1,0.97
2020-05-16 12:33:08.261 -0400,10525.05045425,1.743942260742188,0.722869873046875,-0.43084716796875,1,0.97
2020-05-16 12:33:08.326 -0400,10525.11542925,1.696212768554688,0.39703369140625,-0.404510498046875,1,0.97
2020-05-16 12:33:08.391 -0400,10525.18040525,1.542892456054688,0.6129913330078125,-0.1567840576171875,1,0.97
2020-05-16 12:33:08.456 -0400,10525.24538025,1.141815185546875,0.2645416259765625,-0.107757568359375,1,0.97
2020-05-16 12:33:08.521 -0400,10525.31035525,0.6899566650390625,0.1966094970703125,-0.06121826171875,1,0.97
2020-05-16 12:33:08.586 -0400,10525.37533025,0.7682952880859375,0.33502197265625,0.0051727294921875,1,0.97
2020-05-16 12:33:08.651 -0400,10525.44030625,0.8576507568359375,0.2200164794921875,0.0321044921875,1,0.97
2020-05-16 12:33:08.716 -0400,10525.50528125,0.83984375,0.14459228515625,0.0168304443359375,1,0.97
2020-05-16 12:33:08.781 -0400,10525.57025625,1.0472412109375,0.313446044921875,0.0837554931640625,1,0.97
2020-05-16 12:33:08.846 -0400,10525.63523225,1.144454956054688,0.755859375,-0.66986083984375,1,0.97
2020-05-16 12:33:08.911 -0400,10525.70020725,1.517379760742188,0.3440093994140625,-0.1332244873046875,1,0.97
2020-05-16 12:33:08.976 -0400,10525.76518225,1.112884521484375,0.34503173828125,-0.3423614501953125,1,0.97
2020-05-16 12:33:09.041 -0400,10525.83015825,0.8052825927734375,0.5698699951171875,-0.3597869873046875,1,0.97
2020-05-16 12:33:09.105 -0400,10525.8951335,0.6753997802734375,0.556182861328125,-0.29876708984375,1,0.97
2020-05-16 12:33:09.171 -0400,10525.9601085,0.6962890625,0.6231536865234375,-0.3004608154296875,1,0.97
2020-05-16 12:33:09.235 -0400,10526.0250845,0.9519805908203125,0.7995452880859375,-0.3163909912109375,1,0.97
2020-05-16 12:33:09.301 -0400,10526.0900595,1.8887939453125,1.23980712890625,-0.665985107421875,1,0.97
2020-05-16 12:33:09.365 -0400,10526.1550345,1.73883056640625,0.25,-0.3815765380859375,1,0.97
2020-05-16 12:33:09.431 -0400,10526.2200105,1.674346923828125,0.3740997314453125,-0.2731170654296875,1,0.97
2020-05-16 12:33:09.495 -0400,10526.2849855,0.9919281005859375,0.3017578125,-0.19683837890625,1,0.97
2020-05-16 12:33:09.561 -0400,10526.3499605,0.7011260986328125,0.2577362060546875,-0.043182373046875,1,0.97
2020-05-16 12:33:09.625 -0400,10526.4149355,0.595001220703125,0.1705322265625,0.0126190185546875,1,0.97
2020-05-16 12:33:09.690 -0400,10526.4799115,0.5879364013671875,0.1341094970703125,0.003692626953125,1,0.97
2020-05-16 12:33:09.755 -0400,10526.5448865,0.6097869873046875,0.1900177001953125,0.0153045654296875,1,0.97
2020-05-16 12:33:09.820 -0400,10526.6098615,1.071090698242188,0.6954345703125,-0.09283447265625,1,0.97
2020-05-16 12:33:09.885 -0400,10526.6748375,1.18463134765625,0.8556060791015625,-0.46044921875,1,0.97
2020-05-16 12:33:09.950 -0400,10526.7398125,1.454849243164062,0.6320037841796875,-0.406494140625,1,0.97
2020-05-16 12:33:10.015 -0400,10526.8047875,0.794525146484375,0.435699462890625,-0.3556060791015625,1,0.97
2020-05-16 12:33:10.080 -0400,10526.8697635,0.6207275390625,0.4460601806640625,-0.33514404296875,1,0.97
2020-05-16 12:33:10.145 -0400,10526.9347385,0.58087158203125,0.66143798828125,-0.438690185546875,1,0.97
2020-05-16 12:33:10.210 -0400,10526.9997135,0.8602447509765625,0.838104248046875,-0.5868682861328125,1,0.97
2020-05-16 12:33:10.282 -0400,10527.0646895,1.266067504882812,0.7377471923828125,-0.5446929931640625,1,0.97
2020-05-16 12:33:10.340 -0400,10527.1296645,1.638687133789062,0.410491943359375,-0.55792236328125,1,0.97
2020-05-16 12:33:10.405 -0400,10527.1946395,1.721145629882812,0.394866943359375,-0.25146484375,1,0.97
2020-05-16 12:33:10.470 -0400,10527.2596155,1.559707641601562,0.4060211181640625,-0.0944976806640625,1,0.97
2020-05-16 12:33:10.535 -0400,10527.3245905,0.760467529296875,0.3726654052734375,-0.1268463134765625,1,0.97
2020-05-16 12:33:10.600 -0400,10527.3895655,0.5519866943359375,0.3081207275390625,0.0400390625,1,0.97
2020-05-16 12:33:10.665 -0400,10527.4545415,0.5569000244140625,0.221038818359375,0.07110595703125,1,0.97
2020-05-16 12:33:10.730 -0400,10527.5195165,0.6211090087890625,0.1693267822265625,0.0762176513671875,1,0.97
2020-05-16 12:33:10.795 -0400,10527.5844915,0.802947998046875,0.22796630859375,0.0108184814453125,1,0.97
2020-05-16 12:33:10.860 -0400,10527.6494675,1.115692138671875,0.5547943115234375,-0.2145843505859375,1,0.97
2020-05-16 12:33:10.925 -0400,10527.7144425,1.107131958007812,0.669830322265625,-0.4647216796875,1,0.97
2020-05-16 12:33:10.990 -0400,10527.7794175,1.652725219726562,0.6323394775390625,-0.4229583740234375,1,0.97
2020-05-16 12:33:11.055 -0400,10527.8443935,0.961334228515625,0.3853302001953125,-0.485321044921875,1,0.97
2020-05-16 12:33:11.120 -0400,10527.90936866667,0.5357818603515625,0.34442138671875,-0.3314208984375,1,0.97
2020-05-16 12:33:11.185 -0400,10527.97434366667,0.5208740234375,0.53924560546875,-0.2563018798828125,1,0.97
2020-05-16 12:33:11.250 -0400,10528.03931966667,0.737579345703125,0.6714630126953125,-0.406982421875,1,0.97
2020-05-16 12:33:11.315 -0400,10528.10429466667,1.021881103515625,0.5955810546875,-0.4609527587890625,1,0.97
2020-05-16 12:33:11.380 -0400,10528.16926966667,1.67889404296875,0.5410919189453125,-0.422119140625,1,0.97
2020-05-16 12:33:11.445 -0400,10528.23424566667,1.332656860351562,0.4976043701171875,-0.4580535888671875,1,0.97
2020-05-16 12:33:11.510 -0400,10528.29922066667,1.624038696289062,0.3872528076171875,-0.18902587890625,1,0.97
2020-05-16 12:33:11.574 -0400,10528.36419566667,0.9303131103515625,0.301483154296875,-0.256500244140625,1,0.97
2020-05-16 12:33:11.640 -0400,10528.42917166667,0.578948974609375,0.29962158203125,-0.1499176025390625,1,0.97
2020-05-16 12:33:11.704 -0400,10528.49414666667,0.57757568359375,0.2817230224609375,-0.068206787109375,1,0.97
2020-05-16 12:33:11.770 -0400,10528.55912166667,0.632965087890625,0.1260223388671875,-0.039642333984375,1,0.97
2020-05-16 12:33:11.834 -0400,10528.62409766667,0.7935943603515625,0.1609344482421875,0.024566650390625,1,0.97
2020-05-16 12:33:11.900 -0400,10528.68907266667,1.264312744140625,0.332489013671875,-0.052825927734375,1,0.97
2020-05-16 12:33:11.964 -0400,10528.75404766667,1.476760864257812,0.760101318359375,-0.4525146484375,1,0.97
2020-05-16 12:33:12.030 -0400,10528.81902366667,1.514663696289062,0.3683319091796875,-0.305023193359375,1,0.97
2020-05-16 12:33:12.094 -0400,10528.88399866667,0.7325439453125,0.3775634765625,-0.3287811279296875,1,0.97
2020-05-16 12:33:12.159 -0400,10528.948973375,0.4848175048828125,0.383819580078125,-0.248931884765625,1,0.97
2020-05-16 12:33:12.224 -0400,10529.013949375,0.4144287109375,0.43218994140625,-0.278411865234375,1,0.97
2020-05-16 12:33:12.292 -0400,10529.078924375,0.72613525390625,0.672576904296875,-0.441253662109375,1,0.97
2020-05-16 12:33:12.354 -0400,10529.143899375,1.267852783203125,0.6527862548828125,-0.3768463134765625,1,0.97
2020-05-16 12:33:12.419 -0400,10529.208875375,1.620193481445312,0.5615386962890625,-0.5384979248046875,1,0.97
2020-05-16 12:33:12.484 -0400,10529.273850375,1.572509765625,0.65802001953125,-0.4331817626953125,1,0.97
2020-05-16 12:33:12.549 -0400,10529.338825375,1.698928833007812,0.3560943603515625,-0.1806182861328125,1,0.97
2020-05-16 12:33:12.614 -0400,10529.403801375,0.98126220703125,0.2270050048828125,-0.1274261474609375,1,0.97
2020-05-16 12:33:12.679 -0400,10529.468776375,0.60528564453125,0.30047607421875,-0.0770111083984375,1,0.97
2020-05-16 12:33:12.744 -0400,10529.533751375,0.4404144287109375,0.1593475341796875,0.0119476318359375,1,0.97
2020-05-16 12:33:12.809 -0400,10529.598726375,0.4903411865234375,0.0941162109375,0.019134521484375,1,0.97
2020-05-16 12:33:12.874 -0400,10529.663702375,0.540557861328125,0.18096923828125,0.0553436279296875,1,0.97
2020-05-16 12:33:12.939 -0400,10529.728677375,0.7042236328125,0.421630859375,-0.1826629638671875,1,0.97
2020-05-16 12:33:13.004 -0400,10529.793652375,1.518951416015625,0.687347412109375,-0.142425537109375,1,0.97
2020-05-16 12:33:13.069 -0400,10529.858628375,1.77044677734375,0.680328369140625,-0.5385589599609375,1,0.97
2020-05-16 12:33:13.134 -0400,10529.923603,0.9931793212890625,0.5992431640625,-0.421539306640625,1,0.97
2020-05-16 12:33:13.199 -0400,10529.988578,0.5334320068359375,0.2563018798828125,-0.4150543212890625,1,0.97
2020-05-16 12:33:13.264 -0400,10530.053554,0.4369354248046875,0.424102783203125,-0.26458740234375,1,0.97
2020-05-16 12:33:13.329 -0400,10530.118529,0.39715576171875,0.6417999267578125,-0.292236328125,1,0.97
2020-05-16 12:33:13.394 -0400,10530.183504,0.872711181640625,0.8326416015625,-0.4171905517578125,1,0.97
2020-05-16 12:33:13.459 -0400,10530.24848,2.243118286132812,0.84857177734375,-0.499969482421875,1,0.97
2020-05-16 12:33:13.524 -0400,10530.313455,1.816650390625,0.421356201171875,-0.2791748046875,1,0.97
2020-05-16 12:33:13.589 -0400,10530.37843,1.676040649414062,0.5517578125,-0.227386474609375,1,0.97
2020-05-16 12:33:13.654 -0400,10530.443406,0.8460235595703125,0.310028076171875,-0.182891845703125,1,0.97
2020-05-16 12:33:13.719 -0400,10530.508381,0.558929443359375,0.2630462646484375,-0.0258331298828125,1,0.97
2020-05-16 12:33:13.784 -0400,10530.573356,0.539886474609375,0.140960693359375,0.0288543701171875,1,0.97
2020-05-16 12:33:13.849 -0400,10530.638332,0.756011962890625,0.1144866943359375,0.0522308349609375,1,0.97
2020-05-16 12:33:13.914 -0400,10530.703307,0.7122650146484375,0.290313720703125,0.05169677734375,1,0.97
2020-05-16 12:33:13.979 -0400,10530.768282,1.003829956054688,0.6251220703125,-0.106597900390625,1,0.97
2020-05-16 12:33:14.044 -0400,10530.833258,1.612823486328125,0.5921173095703125,-0.50341796875,1,0.97
2020-05-16 12:33:14.109 -0400,10530.89823391667,1.302581787109375,0.682861328125,-0.378753662109375,1,0.97
2020-05-16 12:33:14.173 -0400,10530.96320891667,0.644012451171875,0.3873748779296875,-0.404815673828125,1,0.97
2020-05-16 12:33:14.239 -0400,10531.02818491667,0.5106353759765625,0.4653167724609375,-0.3708953857421875,1,0.97
2020-05-16 12:33:14.303 -0400,10531.09315991667,0.634979248046875,0.6219940185546875,-0.39984130859375,1,0.97
2020-05-16 12:33:14.369 -0400,10531.15813491667,1.1015625,0.87249755859375,-0.5853729248046875,1,0.97
2020-05-16 12:33:14.433 -0400,10531.22311091667,1.76953125,0.5783233642578125,-0.5249176025390625,1,0.97
2020-05-16 12:33:14.499 -0400,10531.28808591667,1.406982421875,0.38897705078125,-0.416015625,1,0.97
2020-05-16 12:33:14.563 -0400,10531.35306091667,1.643905639648438,0.4818572998046875,-0.2467498779296875,1,0.97
2020-05-16 12:33:14.629 -0400,10531.41803591667,1.076934814453125,0.37359619140625,-0.1894378662109375,1,0.97
2020-05-16 12:33:14.693 -0400,10531.48301191667,0.571044921875,0.237762451171875,-0.075836181640625,1,0.97
2020-05-16 12:33:14.758 -0400,10531.54798691667,0.513397216796875,0.280426025390625,-0.002532958984375,1,0.97
2020-05-16 12:33:14.823 -0400,10531.61296191667,0.5796661376953125,0.179656982421875,0.01885986328125,1,0.97
2020-05-16 12:33:14.888 -0400,10531.67793791667,0.83978271484375,0.2017822265625,0.046295166015625,1,0.97
2020-05-16 12:33:14.953 -0400,10531.74291291667,0.8934173583984375,0.31402587890625,-0.0856170654296875,1,0.97
2020-05-16 12:33:15.018 -0400,10531.80788791667,1.270050048828125,0.591705322265625,-0.2384185791015625,1,0.97
2020-05-16 12:33:15.083 -0400,10531.87286391667,1.647415161132812,0.5960540771484375,-0.563323974609375,1,0.97
2020-05-16 12:33:15.148 -0400,10531.937838125,1.064132690429688,0.4158172607421875,-0.4701385498046875,1,0.97
2020-05-16 12:33:15.213 -0400,10532.002813125,0.553192138671875,0.2630615234375,-0.3326416015625,1,0.97
2020-05-16 12:33:15.278 -0400,10532.067789125,0.4261932373046875,0.45721435546875,-0.258758544921875,1,0.97
2020-05-16 12:33:15.343 -0400,10532.132764125,0.607879638671875,0.7011566162109375,-0.368804931640625,1,0.97
2020-05-16 12:33:15.408 -0400,10532.197739125,1.023452758789062,0.7628631591796875,-0.4750823974609375,1,0.97
2020-05-16 12:33:15.473 -0400,10532.262715125,1.839691162109375,0.631744384765625,-0.457061767578125,1,0.97
2020-05-16 12:33:15.538 -0400,10532.327690125,1.304229736328125,0.3667755126953125,-0.435089111328125,1,0.97
2020-05-16 12:33:15.603 -0400,10532.392665125,1.642791748046875,0.4472503662109375,-0.267181396484375,1,0.97
2020-05-16 12:33:15.668 -0400,10532.457641125,1.09124755859375,0.4014129638671875,-0.320343017578125,1,0.97
2020-05-16 12:33:15.733 -0400,10532.522616125,0.5859375,0.2159576416015625,-0.18780517578125,1,0.97
2020-05-16 12:33:15.798 -0400,10532.587591125,0.41827392578125,0.20623779296875,-0.08270263671875,1,0.97
2020-05-16 12:33:15.863 -0400,10532.652566125,0.394256591796875,0.1462860107421875,-0.0494232177734375,1,0.97
2020-05-16 12:33:15.928 -0400,10532.717542125,0.5920867919921875,0.1703948974609375,-0.012969970703125,1,0.97
2020-05-16 12:33:15.993 -0400,10532.782517125,0.7657928466796875,0.30340576171875,-0.0421295166015625,1,0.97
2020-05-16 12:33:16.058 -0400,10532.847492125,1.386520385742188,0.525421142578125,-0.14263916015625,1,0.97
2020-05-16 12:33:16.123 -0400,10532.91246904167,1.609939575195312,0.780975341796875,-0.58599853515625,1,0.97
2020-05-16 12:33:16.188 -0400,10532.97744404167,1.648330688476562,0.5445709228515625,-0.430145263671875,1,0.97
2020-05-16 12:33:16.253 -0400,10533.04241904167,0.7148895263671875,0.2614288330078125,-0.42071533203125,1,0.97
2020-05-16 12:33:16.318 -0400,10533.10739504167,0.3704376220703125,0.29278564453125,-0.3545074462890625,1,0.97
2020-05-16 12:33:16.383 -0400,10533.17237004167,0.3514556884765625,0.592437744140625,-0.3249664306640625,1,0.97
2020-05-16 12:33:16.448 -0400,10533.23734504167,0.6266937255859375,0.7490386962890625,-0.4029083251953125,1,0.97
2020-05-16 12:33:16.513 -0400,10533.30232104167,1.071929931640625,0.58221435546875,-0.36724853515625,1,0.97
2020-05-16 12:33:16.578 -0400,10533.36729604167,1.888839721679688,0.692352294921875,-0.595458984375,1,0.97
2020-05-16 12:33:16.643 -0400,10533.43227104167,1.731521606445312,0.5319061279296875,-0.31182861328125,1,0.97
2020-05-16 12:33:16.708 -0400,10533.49724604167,1.7066650390625,0.3136749267578125,-0.23956298828125,1,0.97
2020-05-16 12:33:16.772 -0400,10533.56222204167,0.8471832275390625,0.3235931396484375,-0.2568359375,1,0.97
2020-05-16 12:33:16.838 -0400,10533.62719704167,0.587921142578125,0.2284088134765625,-0.121734619140625,1,0.97
2020-05-16 12:33:16.902 -0400,10533.69217204167,0.3790740966796875,0.082305908203125,-0.03338623046875,1,0.97
2020-05-16 12:33:16.968 -0400,10533.75714804167,0.4410552978515625,0.0494842529296875,-0.0166473388671875,1,0.97
2020-05-16 12:33:17.032 -0400,10533.82212304167,0.6503448486328125,0.2262725830078125,-0.0300445556640625,1,0.97
2020-05-16 12:33:17.098 -0400,10533.88709804167,0.9574737548828125,0.567962646484375,-0.182342529296875,1,0.97
2020-05-16 12:33:17.162 -0400,10533.95207325,1.630035400390625,0.741302490234375,-0.3641204833984375,1,0.97
2020-05-16 12:33:17.228 -0400,10534.01704825,1.70941162109375,0.8227691650390625,-0.59112548828125,1,0.97
2020-05-16 12:33:17.292 -0400,10534.08202325,0.7555389404296875,0.4028472900390625,-0.4103240966796875,1,0.97
2020-05-16 12:33:17.358 -0400,10534.14699925,0.526611328125,0.17181396484375,-0.3780364990234375,1,0.97
2020-05-16 12:33:17.422 -0400,10534.21197425,0.4323577880859375,0.5080718994140625,-0.259552001953125,1,0.97
2020-05-16 12:33:17.487 -0400,10534.27694925,0.6692657470703125,0.911224365234375,-0.34051513671875,1,0.97
2020-05-16 12:33:17.552 -0400,10534.34192525,1.118270874023438,0.8597869873046875,-0.3780059814453125,1,0.97
2020-05-16 12:33:17.618 -0400,10534.40690025,1.7294921875,0.5336151123046875,-0.6140899658203125,1,0.97
2020-05-16 12:33:17.682 -0400,10534.47187525,1.912643432617188,0.441864013671875,-0.2421112060546875,1,0.97
2020-05-16 12:33:17.747 -0400,10534.53685025,1.36962890625,0.4437408447265625,-0.3173980712890625,1,0.97
2020-05-16 12:33:17.812 -0400,10534.60182625,0.6507720947265625,0.2908782958984375,-0.238189697265625,1,0.97
2020-05-16 12:33:17.877 -0400,10534.66680125,0.5460205078125,0.2678070068359375,-0.075592041015625,1,0.97
2020-05-16 12:33:17.942 -0400,10534.73177625,0.4973602294921875,0.137725830078125,-0.0118255615234375,1,0.97
2020-05-16 12:33:18.007 -0400,10534.79675225,0.6095733642578125,0.13958740234375,-0.031829833984375,1,0.97
2020-05-16 12:33:18.072 -0400,10534.86172725,0.5494384765625,0.291595458984375,-0.022705078125,1,0.97
2020-05-16 12:33:18.137 -0400,10534.9267025,0.9771575927734375,0.691131591796875,-0.1016845703125,1,0.97
2020-05-16 12:33:18.202 -0400,10534.9916785,1.582931518554688,0.832275390625,-0.5649261474609375,1,0.97
2020-05-16 12:33:18.267 -0400,10535.0566535,1.424057006835938,0.8523712158203125,-0.5792083740234375,1,0.97
2020-05-16 12:33:18.332 -0400,10535.1216285,0.6389923095703125,0.286407470703125,-0.4136962890625,1,0.97
2020-05-16 12:33:18.397 -0400,10535.1866045,0.5774993896484375,0.192901611328125,-0.3311920166015625,1,0.97
2020-05-16 12:33:18.462 -0400,10535.2515795,0.7075347900390625,0.68096923828125,-0.3472137451171875,1,0.97
2020-05-16 12:33:18.527 -0400,10535.3165545,0.9686431884765625,0.9824371337890625,-0.5382537841796875,1,0.97
2020-05-16 12:33:18.592 -0400,10535.3815295,1.802642822265625,0.8191375732421875,-0.5502166748046875,1,0.97
2020-05-16 12:33:18.657 -0400,10535.4465055,1.575668334960938,0.42889404296875,-0.3017578125,1,0.97
2020-05-16 12:33:18.722 -0400,10535.5114805,1.6383056640625,0.3799285888671875,-0.3277435302734375,1,0.97
2020-05-16 12:33:18.787 -0400,10535.5764555,0.940765380859375,0.350433349609375,-0.2969818115234375,1,0.97
2020-05-16 12:33:18.852 -0400,10535.6414315,0.71954345703125,0.2301025390625,-0.077392578125,1,0.97
2020-05-16 12:33:18.917 -0400,10535.7064065,0.6405181884765625,0.2075042724609375,0.00701904296875,1,0.97
2020-05-16 12:33:18.982 -0400,10535.7713815,0.526611328125,0.114898681640625,0.060577392578125,1,0.97
2020-05-16 12:33:19.047 -0400,10535.8363575,0.6334381103515625,0.2039337158203125,0.1057281494140625,1,0.97
2020-05-16 12:33:19.112 -0400,10535.90133204167,0.8350830078125,0.457244873046875,-0.0943603515625,1,0.97
2020-05-16 12:33:19.177 -0400,10535.96630704167,1.184310913085938,0.6002044677734375,-0.2918701171875,1,0.97
2020-05-16 12:33:19.242 -0400,10536.03128304167,1.699188232421875,0.59222412109375,-0.60321044921875,1,0.97
2020-05-16 12:33:19.313 -0400,10536.09625804167,1.125839233398438,0.5086212158203125,-0.5336151123046875,1,0.97
2020-05-16 12:33:19.372 -0400,10536.16123304167,0.6186065673828125,0.3472137451171875,-0.3712921142578125,1,0.97
2020-05-16 12:33:19.437 -0400,10536.22620804167,0.5436553955078125,0.4425506591796875,-0.4268341064453125,1,0.97
2020-05-16 12:33:19.501 -0400,10536.29118404167,0.633575439453125,0.57220458984375,-0.4489593505859375,1,0.97
2020-05-16 12:33:19.567 -0400,10536.35615904167,1.076400756835938,0.6240386962890625,-0.5105133056640625,1,0.97
2020-05-16 12:33:19.631 -0400,10536.42113404167,1.746017456054688,0.6457977294921875,-0.5612335205078125,1,0.97
2020-05-16 12:33:19.697 -0400,10536.48611004167,1.633438110351562,0.49078369140625,-0.4576416015625,1,0.97
2020-05-16 12:33:19.762 -0400,10536.55108504167,1.726821899414062,0.3045654296875,-0.1517181396484375,1,0.97
2020-05-16 12:33:19.827 -0400,10536.61606004167,0.8784637451171875,0.292572021484375,-0.2195587158203125,1,0.97
2020-05-16 12:33:19.891 -0400,10536.68103604167,0.6256103515625,0.342132568359375,-0.0889739990234375,1,0.97
2020-05-16 12:33:19.956 -0400,10536.74601104167,0.6182098388671875,0.26165771484375,0.0156097412109375,1,0.97
2020-05-16 12:33:20.021 -0400,10536.81098604167,0.6853179931640625,0.1112060546875,0.0439300537109375,1,0.97
2020-05-16 12:33:20.086 -0400,10536.87596104167,0.662689208984375,0.1682891845703125,0.078460693359375,1,0.97
2020-05-16 12:33:20.151 -0400,10536.940937625,0.8138427734375,0.5298309326171875,-0.1276397705078125,1,0.97
2020-05-16 12:33:20.216 -0400,10537.005912625,1.219985961914062,0.916351318359375,-0.438507080078125,1,0.97
2020-05-16 12:33:20.281 -0400,10537.070887625,1.450668334960938,0.61773681640625,-0.527587890625,1,0.97
2020-05-16 12:33:20.346 -0400,10537.135863625,0.842132568359375,0.4918365478515625,-0.4230194091796875,1,0.97
2020-05-16 12:33:20.411 -0400,10537.200838625,0.532745361328125,0.4655914306640625,-0.452880859375,1,0.97
2020-05-16 12:33:20.476 -0400,10537.265813625,0.4537353515625,0.5081634521484375,-0.4135894775390625,1,0.97
2020-05-16 12:33:20.541 -0400,10537.330788625,0.624664306640625,0.750152587890625,-0.3792266845703125,1,0.97
2020-05-16 12:33:20.606 -0400,10537.395764625,1.01031494140625,0.8960113525390625,-0.453216552734375,1,0.97
2020-05-16 12:33:20.671 -0400,10537.460739625,1.983871459960938,0.7311553955078125,-0.59918212890625,1,0.97
2020-05-16 12:33:20.737 -0400,10537.525714625,1.9986572265625,0.47442626953125,-0.2713775634765625,1,0.97
2020-05-16 12:33:20.801 -0400,10537.590690625,1.5794677734375,0.4267425537109375,-0.2091522216796875,1,0.97
2020-05-16 12:33:20.866 -0400,10537.655665625,0.79217529296875,0.32391357421875,-0.200469970703125,1,0.97
2020-05-16 12:33:20.931 -0400,10537.720640625,0.4999847412109375,0.308197021484375,-0.0341949462890625,1,0.97
2020-05-16 12:33:20.996 -0400,10537.785616625,0.5344390869140625,0.19500732421875,0.0359649658203125,1,0.97
2020-05-16 12:33:21.061 -0400,10537.850591625,0.772735595703125,0.1399993896484375,0.0467529296875,1,0.97
2020-05-16 12:33:21.126 -0400,10537.915566375,0.68988037109375,0.205841064453125,0.0394744873046875,1,0.97
2020-05-16 12:33:21.191 -0400,10537.980541375,1.126052856445312,0.4490509033203125,-0.0052337646484375,1,0.97
2020-05-16 12:33:21.256 -0400,10538.045517375,1.424179077148438,0.8999481201171875,-0.4649658203125,1,0.97
2020-05-16 12:33:21.321 -0400,10538.110492375,1.47613525390625,0.7430419921875,-0.539520263671875,1,0.97
2020-05-16 12:33:21.386 -0400,10538.175467375,1.093780517578125,0.4916229248046875,-0.4435882568359375,1,0.97
2020-05-16 12:33:21.451 -0400,10538.240443375,0.8527679443359375,0.5439300537109375,-0.5537261962890625,1,0.97
2020-05-16 12:33:21.516 -0400,10538.305418375,0.668914794921875,0.751922607421875,-0.4894866943359375,1,0.97
2020-05-16 12:33:21.581 -0400,10538.370393375,0.772186279296875,1.268295288085938,-0.4562530517578125,1,0.97
2020-05-16 12:33:21.646 -0400,10538.435368375,1.561080932617188,1.402023315429688,-0.71905517578125,1,0.97
2020-05-16 12:33:21.711 -0400,10538.500344375,1.927871704101562,0.2213592529296875,-0.25811767578125,1,0.97
2020-05-16 12:33:21.776 -0400,10538.565319375,1.9818115234375,0.3347320556640625,-0.202423095703125,1,0.97
2020-05-16 12:33:21.841 -0400,10538.630294375,1.58843994140625,0.5459136962890625,-0.2056884765625,1,0.97
2020-05-16 12:33:21.906 -0400,10538.695270375,1.164138793945312,0.3776397705078125,-0.0450592041015625,1,0.97
2020-05-16 12:33:21.971 -0400,10538.760245375,0.95904541015625,0.2518157958984375,0.070343017578125,1,0.97
2020-05-16 12:33:22.036 -0400,10538.825220375,0.9061279296875,0.048553466796875,0.0706939697265625,1,0.97
2020-05-16 12:33:22.100 -0400,10538.890195375,0.7304229736328125,0.0652923583984375,0.0230865478515625,1,0.97
2020-05-16 12:33:22.166 -0400,10538.955171,0.619293212890625,0.213134765625,-0.02545166015625,1,0.97
2020-05-16 12:33:22.230 -0400,10539.020146,0.605499267578125,0.87823486328125,-0.3177032470703125,1,0.97
2020-05-16 12:33:22.296 -0400,10539.085121,1.008621215820312,0.9026336669921875,-0.3399658203125,1,0.97
2020-05-16 12:33:22.360 -0400,10539.150097,1.37359619140625,1.024398803710938,-0.6635589599609375,1,0.97
2020-05-16 12:33:22.426 -0400,10539.215072,1.056015014648438,1.317092895507812,-0.639862060546875,1,0.97
2020-05-16 12:33:22.490 -0400,10539.280047,0.9095611572265625,0.92767333984375,-0.67901611328125,1,0.97
2020-05-16 12:33:22.555 -0400,10539.345022,0.736236572265625,0.31842041015625,-0.7330474853515625,1,0.97
2020-05-16 12:33:22.620 -0400,10539.409998,0.586761474609375,0.6884613037109375,-0.503875732421875,1,0.97
2020-05-16 12:33:22.685 -0400,10539.474973,1.421783447265625,0.9100799560546875,-0.4615936279296875,1,0.97
2020-05-16 12:33:22.750 -0400,10539.539948,2.14129638671875,0.2758331298828125,-0.0914459228515625,1,0.97
2020-05-16 12:33:22.815 -0400,10539.604924,1.963455200195312,0.1794586181640625,-0.1416778564453125,1,0.97
2020-05-16 12:33:22.880 -0400,10539.669899,1.13616943359375,0.54718017578125,-0.097442626953125,1,0.97
2020-05-16 12:33:22.945 -0400,10539.734874,0.7791595458984375,0.345977783203125,-0.0096588134765625,1,0.97
2020-05-16 12:33:23.010 -0400,10539.799849,0.477813720703125,-0.064666748046875,0.102203369140625,1,0.97
2020-05-16 12:33:23.076 -0400,10539.864825,0.282867431640625,-0.0432586669921875,0.007354736328125,1,0.97
2020-05-16 12:33:23.140 -0400,10539.929800625,0.4031219482421875,0.2177886962890625,-0.045379638671875,1,0.97
2020-05-16 12:33:23.205 -0400,10539.994775625,0.6273345947265625,0.7124176025390625,-0.1432342529296875,1,0.97
2020-05-16 12:33:23.270 -0400,10540.059750625,0.6610260009765625,0.9765625,-0.4094696044921875,1,0.97
2020-05-16 12:33:23.335 -0400,10540.124726625,1.776504516601562,0.665496826171875,-0.716552734375,1,0.97
2020-05-16 12:33:23.400 -0400,10540.189701625,1.359146118164062,0.836273193359375,-0.2961578369140625,1,0.97
2020-05-16 12:33:23.465 -0400,10540.254676625,0.688690185546875,0.763092041015625,-0.372528076171875,1,0.97
2020-05-16 12:33:23.530 -0400,10540.319652625,0.638336181640625,0.600494384765625,-0.3274688720703125,1,0.97
2020-05-16 12:33:23.595 -0400,10540.384627625,0.7043609619140625,0.744720458984375,-0.3142242431640625,1,0.97
2020-05-16 12:33:23.660 -0400,10540.449602625,0.77691650390625,0.983154296875,-0.39141845703125,1,0.97
2020-05-16 12:33:23.725 -0400,10540.514577625,1.272918701171875,0.881256103515625,-0.4246978759765625,1,0.97
2020-05-16 12:33:23.790 -0400,10540.579553625,1.586593627929688,0.4597625732421875,-0.388275146484375,1,0.97
2020-05-16 12:33:23.855 -0400,10540.644528625,2.071304321289062,0.3979644775390625,-0.2117156982421875,1,0.97
2020-05-16 12:33:23.920 -0400,10540.709503625,1.469940185546875,0.397430419921875,-0.2057952880859375,1,0.97
2020-05-16 12:33:23.985 -0400,10540.774478625,0.827880859375,0.3608551025390625,-0.1267547607421875,1,0.97
2020-05-16 12:33:24.050 -0400,10540.839454625,0.6588592529296875,0.3369293212890625,-0.0112762451171875,1,0.97
2020-05-16 12:33:24.115 -0400,10540.904429625,0.7472381591796875,0.1895751953125,-0.00433349609375,1,0.97
2020-05-16 12:33:24.180 -0400,10540.9694045,0.6120758056640625,0.0908660888671875,-0.05621337890625,1,0.97
2020-05-16 12:33:24.245 -0400,10541.0343805,0.3018341064453125,0.075927734375,-0.198089599609375,1,0.97
2020-05-16 12:33:24.310 -0400,10541.0993555,0.92938232421875,0.432830810546875,-0.3390655517578125,1,0.97
2020-05-16 12:33:24.375 -0400,10541.1643305,1.432388305664062,0.711212158203125,-0.6503143310546875,1,0.97
2020-05-16 12:33:24.440 -0400,10541.2293055,1.657257080078125,0.4798736572265625,-0.6543731689453125,1,0.97
2020-05-16 12:33:24.505 -0400,10541.2942815,1.133956909179688,0.613800048828125,-0.388427734375,1,0.97
2020-05-16 12:33:24.570 -0400,10541.3592565,0.772430419921875,0.6390380859375,-0.35198974609375,1,0.97
2020-05-16 12:33:24.635 -0400,10541.4242315,0.609344482421875,0.8556060791015625,-0.399261474609375,1,0.97
2020-05-16 12:33:24.700 -0400,10541.4892065,0.7998504638671875,1.231170654296875,-0.4001617431640625,1,0.97
2020-05-16 12:33:24.765 -0400,10541.5541825,1.929611206054688,1.365036010742188,-0.6077728271484375,1,0.97
2020-05-16 12:33:24.829 -0400,10541.6191575,1.632354736328125,0.1893463134765625,-0.3382110595703125,1,0.97
2020-05-16 12:33:24.895 -0400,10541.6841325,1.823638916015625,0.4829559326171875,-0.2684783935546875,1,0.97
2020-05-16 12:33:24.959 -0400,10541.7491075,1.526687622070312,0.49267578125,-0.270111083984375,1,0.97
2020-05-16 12:33:25.025 -0400,10541.8140835,1.04742431640625,0.261474609375,-0.1902923583984375,1,0.97
2020-05-16 12:33:25.090 -0400,10541.8790585,0.7231597900390625,0.032562255859375,-0.0731048583984375,1,0.97
2020-05-16 12:33:25.155 -0400,10541.944033375,0.381195068359375,-0.113250732421875,-0.044281005859375,1,0.97
2020-05-16 12:33:25.223 -0400,10542.009009375,0.11181640625,-0.0242767333984375,-0.0412750244140625,1,0.97
2020-05-16 12:33:25.284 -0400,10542.073984375,0.10858154296875,0.08062744140625,-0.0690765380859375,1,0.97
2020-05-16 12:33:25.351 -0400,10542.138959375,0.431915283203125,0.3829498291015625,-0.361724853515625,1,0.97
2020-05-16 12:33:25.424 -0400,10542.213930375,2.21099853515625,0.7939300537109375,-0.1697998046875,1,0.97
2020-05-16 12:33:25.494 -0400,10542.283904375,2.225250244140625,0.8928070068359375,-0.9509429931640625,1,0.97
2020-05-16 12:33:25.564 -0400,10542.353877375,0.9985198974609375,0.646209716796875,-0.2222442626953125,1,0.97
2020-05-16 12:33:25.634 -0400,10542.423851375,0.5631561279296875,0.4973602294921875,-0.2031097412109375,1,0.97
2020-05-16 12:33:25.705 -0400,10542.493824375,0.268798828125,0.814697265625,-0.203399658203125,1,0.97
2020-05-16 12:33:25.774 -0400,10542.563797375,0.4299774169921875,0.90899658203125,-0.095672607421875,1,0.97
2020-05-16 12:33:25.877 -0400,10542.663759375,2.185638427734375,1.036514282226562,-0.314117431640625,1,0.97
2020-05-16 12:33:25.944 -0400,10542.728734375,2.035720825195312,0.7261962890625,-0.5523681640625,1,0.97
2020-05-16 12:33:26.004 -0400,10542.793710375,2.64044189453125,0.8343658447265625,-0.3307647705078125,1,0.97
2020-05-16 12:33:26.069 -0400,10542.858685375,1.479766845703125,0.1290283203125,-0.3771209716796875,1,0.97
2020-05-16 12:33:26.134 -0400,10542.923660625,0.789337158203125,-0.21258544921875,-0.103729248046875,1,0.97
2020-05-16 12:33:26.199 -0400,10542.988635625,0.3873748779296875,-0.1116790771484375,-0.112274169921875,1,0.97
2020-05-16 12:33:26.264 -0400,10543.053611625,0.3110809326171875,0.0545806884765625,-0.1322174072265625,1,0.97
2020-05-16 12:33:26.329 -0400,10543.118586625,0.2677764892578125,-0.0226287841796875,-0.0115509033203125,1,0.97
2020-05-16 12:33:26.394 -0400,10543.183561625,0.5718841552734375,0.593017578125,0.0208892822265625,1,0.97
2020-05-16 12:33:26.459 -0400,10543.248536625,1.169174194335938,1.272994995117188,-0.4996490478515625,1,0.97
2020-05-16 12:33:26.524 -0400,10543.313512625,1.819351196289062,0.598297119140625,-0.58941650390625,1,0.97
2020-05-16 12:33:26.589 -0400,10543.378487625,1.427703857421875,0.9688720703125,-0.1193084716796875,1,0.97
2020-05-16 12:33:26.654 -0400,10543.443462625,0.7114715576171875,0.582122802734375,-0.259765625,1,0.97
2020-05-16 12:33:26.719 -0400,10543.508438625,0.5796966552734375,0.3691864013671875,-0.3108367919921875,1,0.97
2020-05-16 12:33:26.784 -0400,10543.573413625,0.3193359375,0.537261962890625,-0.142669677734375,1,0.97
2020-05-16 12:33:26.849 -0400,10543.638388625,0.548431396484375,0.7175445556640625,-0.0293426513671875,1,0.97
2020-05-16 12:33:26.914 -0400,10543.703363625,0.883758544921875,0.9806976318359375,-0.175750732421875,1,0.97
2020-05-16 12:33:26.979 -0400,10543.768339625,2.288681030273438,1.31292724609375,-0.44708251953125,1,0.97
2020-05-16 12:33:27.044 -0400,10543.833314625,1.77801513671875,0.241607666015625,-0.431121826171875,1,0.97
2020-05-16 12:33:27.109 -0400,10543.898289625,1.653884887695312,0.671539306640625,-0.2418975830078125,1,0.97
2020-05-16 12:33:27.174 -0400,10543.963263875,0.9862213134765625,0.2546539306640625,-0.2607269287109375,1,0.97
2020-05-16 12:33:27.239 -0400,10544.028239875,0.7406768798828125,0.2200164794921875,-0.062225341796875,1,0.97
2020-05-16 12:33:27.304 -0400,10544.093214875,0.5530548095703125,0.086761474609375,0.014068603515625,1,0.97
2020-05-16 12:33:27.368 -0400,10544.158189875,0.5148773193359375,0.0887451171875,0.0102081298828125,1,0.97
2020-05-16 12:33:27.435 -0400,10544.223165875,0.465057373046875,0.31109619140625,-0.046600341796875,1,0.97
2020-05-16 12:33:27.498 -0400,10544.288140875,1.00714111328125,0.8986663818359375,-0.1908111572265625,1,0.97
2020-05-16 12:33:27.564 -0400,10544.353115875,1.458297729492188,0.590362548828125,-0.4612884521484375,1,0.97
2020-05-16 12:33:27.628 -0400,10544.418090875,1.383590698242188,0.820648193359375,-0.5776214599609375,1,0.97
2020-05-16 12:33:27.694 -0400,10544.483066875,0.9647369384765625,0.4988861083984375,-0.196258544921875,1,0.97
2020-05-16 12:33:27.758 -0400,10544.548041875,0.8136749267578125,0.4153594970703125,-0.3392486572265625,1,0.97
2020-05-16 12:33:27.824 -0400,10544.613016875,0.56878662109375,0.6641082763671875,-0.5703582763671875,1,0.97
2020-05-16 12:33:27.889 -0400,10544.677991875,0.4159698486328125,0.8539886474609375,-0.6656341552734375,1,0.97
2020-05-16 12:33:27.954 -0400,10544.742967875,0.5627593994140625,0.629669189453125,-0.67376708984375,1,0.97
2020-05-16 12:33:28.018 -0400,10544.807942875,2.479415893554688,1.086212158203125,-0.7423553466796875,1,0.97
2020-05-16 12:33:28.083 -0400,10544.872917875,2.23895263671875,0.2508392333984375,-0.1936798095703125,1,0.97
2020-05-16 12:33:28.148 -0400,10544.937894125,1.739410400390625,0.4943389892578125,-0.27130126953125,1,0.97
2020-05-16 12:33:28.224 -0400,10545.002869125,1.023086547851562,0.711883544921875,-0.0648040771484375,1,0.97
2020-05-16 12:33:28.278 -0400,10545.067844125,0.9219818115234375,0.35955810546875,0.0822601318359375,1,0.97
2020-05-16 12:33:28.343 -0400,10545.132819125,1.051971435546875,-0.0161590576171875,0.0919036865234375,1,0.97
2020-05-16 12:33:28.408 -0400,10545.197795125,0.6747283935546875,-0.0757598876953125,0.047271728515625,1,0.97
2020-05-16 12:33:28.473 -0400,10545.262770125,0.490875244140625,0.3319854736328125,-0.0574188232421875,1,0.97
2020-05-16 12:33:28.538 -0400,10545.327745125,0.3809814453125,0.8267059326171875,-0.503082275390625,1,0.97
2020-05-16 12:33:28.603 -0400,10545.392720125,1.109756469726562,0.6376953125,-0.566375732421875,1,0.97
2020-05-16 12:33:28.668 -0400,10545.457696125,1.09637451171875,0.7241058349609375,-0.7093963623046875,1,0.97
2020-05-16 12:33:28.733 -0400,10545.522671125,1.012054443359375,0.60455322265625,-0.3889312744140625,1,0.97
2020-05-16 12:33:28.798 -0400,10545.587646125,0.7496337890625,0.972381591796875,-0.4798431396484375,1,0.97
2020-05-16 12:33:28.863 -0400,10545.652622125,0.8030548095703125,0.8910675048828125,-0.3855438232421875,1,0.97
2020-05-16 12:33:28.928 -0400,10545.717597125,0.82586669921875,0.980316162109375,-0.38360595703125,1,0.97
2020-05-16 12:33:28.993 -0400,10545.782572125,1.790557861328125,1.277374267578125,-0.673553466796875,1,0.97
2020-05-16 12:33:29.058 -0400,10545.847547125,1.769287109375,0.353118896484375,-0.162994384765625,1,0.97
2020-05-16 12:33:29.123 -0400,10545.91252225,1.419113159179688,0.61138916015625,-0.2501220703125,1,0.97
2020-05-16 12:33:29.188 -0400,10545.97749725,1.100753784179688,0.6492919921875,-0.276092529296875,1,0.97
2020-05-16 12:33:29.253 -0400,10546.04247225,0.754791259765625,0.2595672607421875,-0.066131591796875,1,0.97
2020-05-16 12:33:29.318 -0400,10546.10744825,0.7281646728515625,0.078460693359375,0.0149383544921875,1,0.97
2020-05-16 12:33:29.383 -0400,10546.17242325,0.679443359375,0.104766845703125,-0.0254058837890625,1,0.97
2020-05-16 12:33:29.448 -0400,10546.23739825,0.52484130859375,0.2152862548828125,0.0663604736328125,1,0.97
2020-05-16 12:33:29.513 -0400,10546.30237425,0.609832763671875,0.3851776123046875,-0.011749267578125,1,0.97
2020-05-16 12:33:29.578 -0400,10546.36734925,1.4813232421875,0.97265625,-0.14385986328125,1,0.97
2020-05-16 12:33:29.643 -0400,10546.43232425,1.591415405273438,1.017593383789062,-0.4410858154296875,1,0.97
2020-05-16 12:33:29.708 -0400,10546.49729925,1.034652709960938,0.6602325439453125,-0.4634552001953125,1,0.97
2020-05-16 12:33:29.773 -0400,10546.56227525,0.6862030029296875,0.1123504638671875,-0.3344268798828125,1,0.97
2020-05-16 12:33:29.838 -0400,10546.62725025,0.587646484375,0.5908966064453125,-0.2481231689453125,1,0.97
2020-05-16 12:33:29.903 -0400,10546.69222525,0.656646728515625,0.8583526611328125,-0.2633514404296875,1,0.97
2020-05-16 12:33:29.968 -0400,10546.75720125,0.7704315185546875,1.200653076171875,-0.403839111328125,1,0.97
2020-05-16 12:33:30.033 -0400,10546.82217625,1.702651977539062,1.1986083984375,-0.722412109375,1,0.97
2020-05-16 12:33:30.097 -0400,10546.88715125,1.941650390625,0.2827301025390625,-0.1335296630859375,1,0.97
2020-05-16 12:33:30.163 -0400,10546.95212829167,1.8106689453125,0.3917083740234375,-0.2391357421875,1,0.97
2020-05-16 12:33:30.234 -0400,10547.01710329167,1.170486450195312,0.54913330078125,-0.34771728515625,1,0.97
2020-05-16 12:33:30.293 -0400,10547.08207829167,0.8908843994140625,0.413421630859375,-0.113128662109375,1,0.97
2020-05-16 12:33:30.357 -0400,10547.14705429167,0.6965789794921875,0.1708831787109375,0.0435638427734375,1,0.97
2020-05-16 12:33:30.422 -0400,10547.21202929167,0.5293731689453125,0.0037078857421875,0.0378265380859375,1,0.97
2020-05-16 12:33:30.487 -0400,10547.27700429167,0.371612548828125,0.1414642333984375,-0.0231781005859375,1,0.97
2020-05-16 12:33:30.552 -0400,10547.34198029167,0.2355499267578125,0.3708038330078125,-0.211090087890625,1,0.97
2020-05-16 12:33:30.617 -0400,10547.40695529167,0.9213714599609375,0.9336090087890625,-0.074798583984375,1,0.97
2020-05-16 12:33:30.683 -0400,10547.47193029167,1.036819458007812,0.9427642822265625,-0.5712738037109375,1,0.97
2020-05-16 12:33:30.747 -0400,10547.53690629167,1.389617919921875,1.064926147460938,-0.75628662109375,1,0.97
2020-05-16 12:33:30.815 -0400,10547.60188129167,1.08343505859375,0.6456146240234375,-0.37109375,1,0.97
2020-05-16 12:33:30.877 -0400,10547.66685629167,0.6710357666015625,0.537811279296875,-0.345733642578125,1,0.97
2020-05-16 12:33:30.942 -0400,10547.73183229167,0.61151123046875,0.6912841796875,-0.414520263671875,1,0.97
2020-05-16 12:33:31.008 -0400,10547.79680729167,0.728485107421875,1.035263061523438,-0.44171142578125,1,0.97
2020-05-16 12:33:31.072 -0400,10547.86178329167,1.163925170898438,0.9735260009765625,-0.53778076171875,1,0.97
2020-05-16 12:33:31.137 -0400,10547.92675816667,1.87921142578125,0.3744659423828125,-0.2996063232421875,1,0.97
2020-05-16 12:33:31.202 -0400,10547.99173316667,2.035430908203125,0.3404388427734375,-0.09918212890625,1,0.97
2020-05-16 12:33:31.267 -0400,10548.05670916667,1.7012939453125,0.689849853515625,-0.3737335205078125,1,0.97
2020-05-16 12:33:31.332 -0400,10548.12168416667,1.170684814453125,0.48760986328125,-0.2310638427734375,1,0.97
2020-05-16 12:33:31.397 -0400,10548.18665916667,0.9112701416015625,0.186614990234375,-0.016357421875,1,0.97
2020-05-16 12:33:31.462 -0400,10548.25163516667,0.50738525390625,-0.058746337890625,-0.0087127685546875,1,0.97
2020-05-16 12:33:31.527 -0400,10548.31661016667,0.33917236328125,-0.05755615234375,-0.0485687255859375,1,0.97
2020-05-16 12:33:31.592 -0400,10548.38158616667,0.224609375,-0.0081024169921875,0.0144805908203125,1,0.97
2020-05-16 12:33:31.657 -0400,10548.44656116667,0.1688690185546875,0.3125,-0.0860595703125,1,0.97
2020-05-16 12:33:31.722 -0400,10548.51153616667,1.173294067382812,1.39080810546875,-0.209930419921875,1,0.97
2020-05-16 12:33:31.787 -0400,10548.57651216667,1.788177490234375,1.09466552734375,-0.536529541015625,1,0.97
2020-05-16 12:33:31.852 -0400,10548.64148716667,1.217208862304688,0.9768524169921875,-0.288970947265625,1,0.97
2020-05-16 12:33:31.917 -0400,10548.70646216667,0.5987701416015625,0.877044677734375,-0.2479095458984375,1,0.97
2020-05-16 12:33:31.982 -0400,10548.77143816667,0.56024169921875,0.6483154296875,-0.24951171875,1,0.97
2020-05-16 12:33:32.047 -0400,10548.83641316667,0.677520751953125,0.8288421630859375,-0.40869140625,1,0.97
2020-05-16 12:33:32.112 -0400,10548.90138916667,0.9661102294921875,0.72698974609375,-0.297882080078125,1,0.97
2020-05-16 12:33:32.177 -0400,10548.96636466667,1.872940063476562,0.6801300048828125,-0.3541412353515625,1,0.97
2020-05-16 12:33:32.242 -0400,10549.03133966667,2.065078735351562,0.237884521484375,-0.2237701416015625,1,0.97
2020-05-16 12:33:32.307 -0400,10549.09631566667,1.442047119140625,0.6255950927734375,-0.2905120849609375,1,0.97
2020-05-16 12:33:32.372 -0400,10549.16129066667,1.006027221679688,0.4508209228515625,-0.1476898193359375,1,0.97
2020-05-16 12:33:32.437 -0400,10549.22626666667,0.779022216796875,0.2507781982421875,0.01934814453125,1,0.97
2020-05-16 12:33:32.502 -0400,10549.29124166667,0.59808349609375,0.060638427734375,0.02606201171875,1,0.97
2020-05-16 12:33:32.567 -0400,10549.35621666667,0.6141204833984375,0.0447235107421875,-0.0114593505859375,1,0.97
2020-05-16 12:33:32.632 -0400,10549.42119266667,0.4813995361328125,0.11199951171875,0.077423095703125,1,0.97
2020-05-16 12:33:32.696 -0400,10549.48616766667,0.577667236328125,0.5302886962890625,0.0369110107421875,1,0.97
2020-05-16 12:33:32.762 -0400,10549.55114366667,0.8122100830078125,1.17889404296875,-0.418731689453125,1,0.97
2020-05-16 12:33:32.827 -0400,10549.61611866667,1.501876831054688,0.8166046142578125,-0.615753173828125,1,0.97
2020-05-16 12:33:32.892 -0400,10549.68109466667,1.32098388671875,1.054336547851562,-0.5086212158203125,1,0.97
2020-05-16 12:33:32.956 -0400,10549.74606966667,0.7871856689453125,0.3937225341796875,-0.2985076904296875,1,0.97
2020-05-16 12:33:33.022 -0400,10549.81104466667,0.6346893310546875,0.260894775390625,-0.4986114501953125,1,0.97
2020-05-16 12:33:33.086 -0400,10549.87602066667,0.4805908203125,0.5293121337890625,-0.6827239990234375,1,0.97
2020-05-16 12:33:33.151 -0400,10549.940995125,0.735443115234375,0.675994873046875,-0.585052490234375,1,0.97
2020-05-16 12:33:33.216 -0400,10550.005971125,2.010879516601562,0.515045166015625,-0.604583740234375,1,0.97
2020-05-16 12:33:33.282 -0400,10550.070946125,1.8677978515625,0.4790802001953125,-0.23504638671875,1,0.97
2020-05-16 12:33:33.346 -0400,10550.135922125,1.526870727539062,0.3979339599609375,-0.529876708984375,1,0.97
2020-05-16 12:33:33.411 -0400,10550.200897125,0.8946075439453125,0.549468994140625,-0.222137451171875,1,0.97
2020-05-16 12:33:33.476 -0400,10550.265873125,0.638092041015625,0.17010498046875,-0.010986328125,1,0.97
2020-05-16 12:33:33.541 -0400,10550.330848125,0.4990386962890625,0.138214111328125,0.0199432373046875,1,0.97
2020-05-16 12:33:33.606 -0400,10550.395823125,0.6093902587890625,0.1829833984375,0.0125274658203125,1,0.97
2020-05-16 12:33:33.671 -0400,10550.460799125,0.7277069091796875,0.2135162353515625,0.0893402099609375,1,0.97
2020-05-16 12:33:33.736 -0400,10550.525774125,1.331924438476562,0.392578125,0.246185302734375,1,0.97
2020-05-16 12:33:33.801 -0400,10550.590750125,1.091400146484375,1.090484619140625,-0.762359619140625,1,0.97
2020-05-16 12:33:33.866 -0400,10550.655725125,1.647735595703125,0.6985321044921875,-0.4298248291015625,1,0.97
2020-05-16 12:33:33.931 -0400,10550.720701125,0.876129150390625,0.4522552490234375,-0.49652099609375,1,0.97
2020-05-16 12:33:33.996 -0400,10550.785676125,0.734832763671875,0.364776611328125,-0.3821563720703125,1,0.97
2020-05-16 12:33:34.061 -0400,10550.850652125,0.7011566162109375,0.506317138671875,-0.3950653076171875,1,0.97
2020-05-16 12:33:34.126 -0400,10550.91562775,0.837799072265625,0.8589935302734375,-0.4581756591796875,1,0.97
2020-05-16 12:33:34.191 -0400,10550.98060375,0.915863037109375,0.865936279296875,-0.4500579833984375,1,0.97
2020-05-16 12:33:34.256 -0400,10551.04557875,0.9520416259765625,0.5386962890625,-0.376953125,1,0.97
2020-05-16 12:33:34.321 -0400,10551.11055375,1.63311767578125,0.6621856689453125,-0.4566650390625,1,0.97
2020-05-16 12:33:34.386 -0400,10551.17552975,2.03411865234375,0.2714996337890625,-0.236724853515625,1,0.97
2020-05-16 12:33:34.451 -0400,10551.24050475,1.467239379882812,0.3977203369140625,-0.319580078125,1,0.97
2020-05-16 12:33:34.516 -0400,10551.30548075,0.923583984375,0.37823486328125,-0.13128662109375,1,0.97
2020-05-16 12:33:34.581 -0400,10551.37045575,0.7459564208984375,0.3115081787109375,-0.01812744140625,1,0.97
2020-05-16 12:33:34.646 -0400,10551.43543175,0.5293426513671875,0.1039886474609375,0.04058837890625,1,0.97
2020-05-16 12:33:34.711 -0400,10551.50040675,0.42181396484375,0.0691680908203125,0.0344390869140625,1,0.97
2020-05-16 12:33:34.776 -0400,10551.56538275,0.7456512451171875,0.334320068359375,0.0565643310546875,1,0.97
2020-05-16 12:33:34.841 -0400,10551.63035775,0.85693359375,0.9397735595703125,-0.2784271240234375,1,0.97
2020-05-16 12:33:34.906 -0400,10551.69533375,1.623519897460938,0.5664215087890625,-0.4760589599609375,1,0.97
2020-05-16 12:33:34.971 -0400,10551.76030875,1.380584716796875,0.792572021484375,-0.426422119140625,1,0.97
2020-05-16 12:33:35.036 -0400,10551.82528475,0.7815704345703125,0.3970947265625,-0.3350372314453125,1,0.97
2020-05-16 12:33:35.101 -0400,10551.89025975,0.7005615234375,0.281951904296875,-0.2869415283203125,1,0.97
2020-05-16 12:33:35.166 -0400,10551.95523516667,0.6581573486328125,0.6275787353515625,-0.424468994140625,1,0.97
2020-05-16 12:33:35.231 -0400,10552.02021016667,0.921905517578125,1.038909912109375,-0.37890625,1,0.97
2020-05-16 12:33:35.296 -0400,10552.08518616667,1.373611450195312,0.836700439453125,-0.69390869140625,1,0.97
2020-05-16 12:33:35.361 -0400,10552.15016116667,1.578506469726562,0.396240234375,-0.343048095703125,1,0.97
2020-05-16 12:33:35.426 -0400,10552.21513716667,1.665969848632812,0.5610809326171875,-0.15960693359375,1,0.97
2020-05-16 12:33:35.491 -0400,10552.28011216667,1.379104614257812,0.616851806640625,-0.3370513916015625,1,0.97
2020-05-16 12:33:35.555 -0400,10552.34508816667,0.81597900390625,0.2039031982421875,-0.06964111328125,1,0.97
2020-05-16 12:33:35.620 -0400,10552.41006316667,0.65997314453125,0.2562408447265625,0.0652008056640625,1,0.97
2020-05-16 12:33:35.685 -0400,10552.47503916667,0.6139068603515625,0.1632843017578125,0.0368499755859375,1,0.97
2020-05-16 12:33:35.751 -0400,10552.54001416667,0.7514190673828125,0.1963348388671875,0.0517578125,1,0.97
2020-05-16 12:33:35.815 -0400,10552.60499016667,0.8708953857421875,0.3427276611328125,0.08380126953125,1,0.97
2020-05-16 12:33:35.880 -0400,10552.66996516667,0.7720794677734375,0.8969268798828125,-0.4110260009765625,1,0.97
2020-05-16 12:33:35.945 -0400,10552.73494116667,1.661300659179688,0.659027099609375,-0.591552734375,1,0.97
2020-05-16 12:33:36.010 -0400,10552.79991616667,1.03472900390625,0.1580657958984375,-0.399688720703125,1,0.97
2020-05-16 12:33:36.075 -0400,10552.86489216667,0.6594390869140625,0.096771240234375,-0.318328857421875,1,0.97
2020-05-16 12:33:36.141 -0400,10552.92986754167,0.603057861328125,0.801513671875,-0.3264312744140625,1,0.97
2020-05-16 12:33:36.205 -0400,10552.99484354167,0.6851959228515625,0.7829437255859375,-0.3138427734375,1,0.97
2020-05-16 12:33:36.270 -0400,10553.05981854167,0.9685211181640625,0.8170166015625,-0.43701171875,1,0.97
2020-05-16 12:33:36.335 -0400,10553.12479454167,1.707687377929688,0.920501708984375,-0.4446258544921875,1,0.97
2020-05-16 12:33:36.400 -0400,10553.18976954167,1.425628662109375,0.35040283203125,-0.3362579345703125,1,0.97
2020-05-16 12:33:36.465 -0400,10553.25474554167,1.433700561523438,0.4820404052734375,-0.197296142578125,1,0.97
2020-05-16 12:33:36.530 -0400,10553.31972054167,1.08953857421875,0.4689788818359375,-0.19439697265625,1,0.97
2020-05-16 12:33:36.595 -0400,10553.38469654167,0.6683807373046875,0.430633544921875,-0.09027099609375,1,0.97
2020-05-16 12:33:36.660 -0400,10553.44967154167,0.650665283203125,0.364532470703125,0.053924560546875,1,0.97
2020-05-16 12:33:36.725 -0400,10553.51464754167,0.5973358154296875,0.2334747314453125,-0.0283355712890625,1,0.97
2020-05-16 12:33:36.790 -0400,10553.57962354167,0.7693328857421875,0.4726409912109375,-0.103668212890625,1,0.97
2020-05-16 12:33:36.855 -0400,10553.64459854167,1.054473876953125,0.7045440673828125,-0.4630584716796875,1,0.97
2020-05-16 12:33:36.920 -0400,10553.70957454167,0.6570587158203125,0.3775177001953125,-0.9200592041015625,1,0.97
2020-05-16 12:33:36.985 -0400,10553.77454954167,0.7869720458984375,0.2201995849609375,-1.061004638671875,1,0.97
2020-05-16 12:33:37.050 -0400,10553.83952554167,0.48529052734375,0.1457977294921875,-1.03216552734375,1,0.97
2020-05-16 12:33:37.115 -0400,10553.90450054167,0.1345367431640625,-0.0317230224609375,-0.7078704833984375,1,0.97
2020-05-16 12:33:37.180 -0400,10553.969475375,0.070953369140625,-0.12457275390625,-0.623565673828125,1,0.97
2020-05-16 12:33:37.246 -0400,10554.034450375,0.0394744873046875,-0.1128997802734375,-0.7366485595703125,1,0.97
2020-05-16 12:33:37.370 -0400,10554.159403375,0.0721588134765625,0.186370849609375,-1.159820556640625,1,0.97
2020-05-16 12:33:37.440 -0400,10554.229377375,0.2099609375,0.2963104248046875,-1.31781005859375,1,0.97
2020-05-16 12:33:37.510 -0400,10554.299351375,0.322418212890625,0.27484130859375,-1.208908081054688,1,0.97
2020-05-16 12:33:37.580 -0400,10554.369324375,0.2315673828125,0.061431884765625,-0.7696990966796875,1,0.97
2020-05-16 12:33:37.650 -0400,10554.439298375,0.135650634765625,-0.030029296875,-0.4806365966796875,1,0.97
2020-05-16 12:33:37.720 -0400,10554.509272375,0.1670379638671875,-0.0067291259765625,-0.3388214111328125,1,0.97
2020-05-16 12:33:37.790 -0400,10554.579245375,0.3955841064453125,0.34820556640625,-0.46051025390625,1,0.97
2020-05-16 12:33:37.860 -0400,10554.649219375,0.9319000244140625,0.8357391357421875,-0.5810546875,1,0.97
2020-05-16 12:33:37.930 -0400,10554.719193375,1.251022338867188,0.972259521484375,-0.2783966064453125,1,0.97
2020-05-16 12:33:38.000 -0400,10554.789166375,1.38348388671875,0.901885986328125,-0.295684814453125,1,0.97
2020-05-16 12:33:38.070 -0400,10554.859140375,1.274459838867188,0.706787109375,-0.1209869384765625,1,0.97
2020-05-16 12:33:38.140 -0400,10554.92911575,0.493804931640625,0.369110107421875,0.0361328125,1,0.97
2020-05-16 12:33:38.210 -0400,10554.99908875,0.3910064697265625,0.1975555419921875,-0.0782470703125,1,0.97
2020-05-16 12:33:38.283 -0400,10555.06906275,0.5700836181640625,0.4644317626953125,-0.09716796875,1,0.97
2020-05-16 12:33:38.350 -0400,10555.13903675,0.8931427001953125,0.6140594482421875,-0.1864013671875,1,0.97
2020-05-16 12:33:38.420 -0400,10555.20900975,1.726806640625,0.7604827880859375,-0.288848876953125,1,0.97
2020-05-16 12:33:38.490 -0400,10555.27898375,1.379287719726562,0.7348785400390625,-0.4133148193359375,1,0.97
2020-05-16 12:33:38.559 -0400,10555.34895775,1.290618896484375,0.37054443359375,-0.286865234375,1,0.97
2020-05-16 12:33:38.629 -0400,10555.41893075,1.010284423828125,0.236328125,-0.34185791015625,1,0.97
2020-05-16 12:33:38.699 -0400,10555.48890475,0.5199432373046875,0.224090576171875,-0.2244720458984375,1,0.97
2020-05-16 12:33:38.784 -0400,10555.57387275,0.3619537353515625,0.2378997802734375,-0.1013641357421875,1,0.97
2020-05-16 12:33:38.850 -0400,10555.63884875,0.5157470703125,0.2522735595703125,-0.08697509765625,1,0.97
2020-05-16 12:33:38.914 -0400,10555.70382375,1.015884399414062,0.281341552734375,-0.013824462890625,1,0.97
2020-05-16 12:33:38.983 -0400,10555.76879975,1.615203857421875,0.3714447021484375,0.0973968505859375,1,0.97
2020-05-16 12:33:39.044 -0400,10555.83377575,1.53179931640625,0.790618896484375,-0.5331573486328125,1,0.97
2020-05-16 12:33:39.109 -0400,10555.89875075,1.433441162109375,0.4642486572265625,-0.2049102783203125,1,0.97
2020-05-16 12:33:39.174 -0400,10555.96372654167,0.630279541015625,0.0173187255859375,-0.2895050048828125,1,0.97
2020-05-16 12:33:39.239 -0400,10556.02870154167,0.3757171630859375,0.2138824462890625,-0.176727294921875,1,0.97
2020-05-16 12:33:39.304 -0400,10556.09367754167,0.372955322265625,0.6070404052734375,-0.1510162353515625,1,0.97
2020-05-16 12:33:39.369 -0400,10556.15865354167,0.826904296875,0.735687255859375,-0.3063812255859375,1,0.97
2020-05-16 12:33:39.434 -0400,10556.22362854167,1.295989990234375,0.6512451171875,-0.404083251953125,1,0.97
2020-05-16 12:33:39.500 -0400,10556.28860454167,1.659500122070312,0.6274566650390625,-0.53997802734375,1,0.97
2020-05-16 12:33:39.564 -0400,10556.35357954167,1.30828857421875,0.60272216796875,-0.328704833984375,1,0.97
2020-05-16 12:33:39.629 -0400,10556.41855554167,1.4071044921875,0.4313201904296875,-0.2409515380859375,1,0.97
2020-05-16 12:33:39.694 -0400,10556.48353154167,0.8377532958984375,0.229522705078125,-0.266815185546875,1,0.97
2020-05-16 12:33:39.759 -0400,10556.54850654167,0.5367431640625,0.2794189453125,-0.1132354736328125,1,0.97
2020-05-16 12:33:39.824 -0400,10556.61348254167,0.6054840087890625,0.3481903076171875,-0.083709716796875,1,0.97
2020-05-16 12:33:39.889 -0400,10556.67845754167,0.980010986328125,0.243865966796875,-0.0821380615234375,1,0.97
2020-05-16 12:33:39.954 -0400,10556.74343354167,1.130661010742188,0.1473846435546875,0.0070953369140625,1,0.97
2020-05-16 12:33:40.019 -0400,10556.80840954167,1.038787841796875,0.30145263671875,-0.1066436767578125,1,0.97
2020-05-16 12:33:40.084 -0400,10556.87338454167,1.080902099609375,0.55242919921875,-0.322357177734375,1,0.97
2020-05-16 12:33:40.149 -0400,10556.93836025,1.413818359375,0.5096435546875,-0.4313507080078125,1,0.97
2020-05-16 12:33:40.225 -0400,10557.00333525,0.7747344970703125,0.2418975830078125,-0.3137359619140625,1,0.97
2020-05-16 12:33:40.279 -0400,10557.06831125,0.509429931640625,0.274871826171875,-0.255859375,1,0.97
2020-05-16 12:33:40.344 -0400,10557.13328725,0.4632568359375,0.562713623046875,-0.4164581298828125,1,0.97
2020-05-16 12:33:40.409 -0400,10557.19826225,0.758514404296875,0.61138916015625,-0.538543701171875,1,0.97
2020-05-16 12:33:40.473 -0400,10557.26323825,1.24835205078125,0.5962066650390625,-0.683349609375,1,0.97
2020-05-16 12:33:40.539 -0400,10557.32821425,1.8582763671875,0.5256805419921875,-0.69537353515625,1,0.97
2020-05-16 12:33:40.603 -0400,10557.39318925,1.694915771484375,0.33355712890625,-0.43597412109375,1,0.97
2020-05-16 12:33:40.669 -0400,10557.45816525,1.60760498046875,0.311248779296875,-0.1253204345703125,1,0.97
2020-05-16 12:33:40.734 -0400,10557.52314025,0.89239501953125,0.4630584716796875,-0.34613037109375,1,0.97
2020-05-16 12:33:40.799 -0400,10557.58811625,0.5045013427734375,0.32965087890625,-0.103424072265625,1,0.97
2020-05-16 12:33:40.863 -0400,10557.65309225,0.5545806884765625,0.288726806640625,-0.0211944580078125,1,0.97
2020-05-16 12:33:40.930 -0400,10557.71806725,0.87396240234375,0.2234344482421875,-0.0630950927734375,1,0.97
2020-05-16 12:33:40.994 -0400,10557.78304325,0.9012603759765625,0.063140869140625,0.0394134521484375,1,0.97
2020-05-16 12:33:41.059 -0400,10557.84801925,0.7723846435546875,0.234130859375,-0.0595550537109375,1,0.97
2020-05-16 12:33:41.123 -0400,10557.91299425,1.071365356445312,0.486785888671875,-0.1883544921875,1,0.97
2020-05-16 12:33:41.188 -0400,10557.97797016667,1.761444091796875,0.6445770263671875,-0.488250732421875,1,0.97
2020-05-16 12:33:41.253 -0400,10558.04294616667,1.303298950195312,0.4922943115234375,-0.37213134765625,1,0.97
2020-05-16 12:33:41.318 -0400,10558.10792116667,0.90191650390625,0.2424468994140625,-0.3009185791015625,1,0.97
2020-05-16 12:33:41.383 -0400,10558.17289716667,0.8978118896484375,0.5987396240234375,-0.3875274658203125,1,0.97
2020-05-16 12:33:41.448 -0400,10558.23787316667,0.824249267578125,0.7969970703125,-0.6071014404296875,1,0.97
2020-05-16 12:33:41.513 -0400,10558.30284816667,0.89508056640625,0.635528564453125,-0.74603271484375,1,0.97
2020-05-16 12:33:41.579 -0400,10558.36782416667,1.601364135742188,0.52264404296875,-0.5963287353515625,1,0.97
2020-05-16 12:33:41.643 -0400,10558.43280016667,1.721710205078125,0.2785491943359375,-0.3800506591796875,1,0.97
2020-05-16 12:33:41.708 -0400,10558.49777516667,1.888687133789062,0.4263916015625,-0.284942626953125,1,0.97
2020-05-16 12:33:41.773 -0400,10558.56275116667,1.138809204101562,0.49615478515625,-0.3284912109375,1,0.97
2020-05-16 12:33:41.838 -0400,10558.62772616667,0.5709075927734375,0.322418212890625,-0.050506591796875,1,0.97
2020-05-16 12:33:41.903 -0400,10558.69270216667,0.4934844970703125,0.2794647216796875,0.0166015625,1,0.97
2020-05-16 12:33:41.968 -0400,10558.75767816667,0.733245849609375,0.195526123046875,0.002777099609375,1,0.97
2020-05-16 12:33:42.033 -0400,10558.82265316667,0.9294586181640625,0.0941619873046875,0.110748291015625,1,0.97
2020-05-16 12:33:42.098 -0400,10558.88762916667,1.054229736328125,0.2477874755859375,0.0207672119140625,1,0.97
2020-05-16 12:33:42.163 -0400,10558.95260525,1.12384033203125,0.5422821044921875,-0.253936767578125,1,0.97
2020-05-16 12:33:42.228 -0400,10559.01758025,1.395172119140625,0.643402099609375,-0.5937042236328125,1,0.97
2020-05-16 12:33:42.293 -0400,10559.08255625,1.206893920898438,0.373443603515625,-0.2952728271484375,1,0.97
2020-05-16 12:33:42.358 -0400,10559.14753225,0.740997314453125,0.2244720458984375,-0.3621368408203125,1,0.97
2020-05-16 12:33:42.423 -0400,10559.21250725,0.71527099609375,0.6201019287109375,-0.4467620849609375,1,0.97
2020-05-16 12:33:42.488 -0400,10559.27748325,0.9721527099609375,0.8175048828125,-0.5444793701171875,1,0.97
2020-05-16 12:33:42.553 -0400,10559.34245925,1.09326171875,0.5529327392578125,-0.494659423828125,1,0.97
2020-05-16 12:33:42.618 -0400,10559.40743425,1.598312377929688,0.70697021484375,-0.559295654296875,1,0.97
2020-05-16 12:33:42.683 -0400,10559.47241025,1.537216186523438,0.4388885498046875,-0.33990478515625,1,0.97
2020-05-16 12:33:42.748 -0400,10559.53738625,1.479049682617188,0.2936553955078125,-0.122100830078125,1,0.97
2020-05-16 12:33:42.813 -0400,10559.60236125,1.05853271484375,0.36065673828125,-0.1591796875,1,0.97
2020-05-16 12:33:42.878 -0400,10559.66733725,0.6288604736328125,0.295867919921875,-0.0540008544921875,1,0.97
2020-05-16 12:33:42.944 -0400,10559.73231325,0.4062347412109375,0.2613983154296875,0.020050048828125,1,0.97
2020-05-16 12:33:43.008 -0400,10559.79728825,0.4591064453125,0.2207183837890625,0.027801513671875,1,0.97
2020-05-16 12:33:43.073 -0400,10559.86226425,0.96588134765625,0.3126983642578125,-0.004058837890625,1,0.97
2020-05-16 12:33:43.138 -0400,10559.927240625,1.006805419921875,0.236907958984375,-0.0225372314453125,1,0.97
2020-05-16 12:33:43.203 -0400,10559.992216625,1.21295166015625,0.409515380859375,-0.26300048828125,1,0.97
2020-05-16 12:33:43.268 -0400,10560.057191625,1.649765014648438,0.7660064697265625,-0.398712158203125,1,0.97
2020-05-16 12:33:43.332 -0400,10560.122167625,1.012100219726562,0.215057373046875,-0.25238037109375,1,0.97
2020-05-16 12:33:43.398 -0400,10560.187143625,0.6149444580078125,0.4552764892578125,-0.2441558837890625,1,0.97
2020-05-16 12:33:43.462 -0400,10560.252118625,0.531524658203125,0.5406646728515625,-0.2216339111328125,1,0.97
2020-05-16 12:33:43.528 -0400,10560.317094625,0.7097015380859375,0.587921142578125,-0.3494415283203125,1,0.97
2020-05-16 12:33:43.592 -0400,10560.382070625,1.2950439453125,0.5288238525390625,-0.3890533447265625,1,0.97
2020-05-16 12:33:43.658 -0400,10560.447045625,1.791229248046875,0.3131103515625,-0.3888092041015625,1,0.97
2020-05-16 12:33:43.722 -0400,10560.512021625,1.098617553710938,0.4891357421875,-0.3981170654296875,1,0.97
2020-05-16 12:33:43.788 -0400,10560.576997625,1.619171142578125,0.7533111572265625,-0.3088531494140625,1,0.97
2020-05-16 12:33:43.852 -0400,10560.641972625,1.199966430664062,0.073150634765625,-0.1089324951171875,1,0.97
2020-05-16 12:33:43.917 -0400,10560.706948625,0.598968505859375,0.1905517578125,-0.155059814453125,1,0.97
2020-05-16 12:33:43.983 -0400,10560.771924625,0.282501220703125,0.271820068359375,-0.04412841796875,1,0.97
2020-05-16 12:33:44.047 -0400,10560.836899625,0.3525390625,0.281280517578125,0.0330352783203125,1,0.97
2020-05-16 12:33:44.112 -0400,10560.901875625,0.98052978515625,0.2920074462890625,-0.0120086669921875,1,0.97
2020-05-16 12:33:44.177 -0400,10560.966851375,1.403030395507812,0.3541717529296875,-0.0363006591796875,1,0.97
2020-05-16 12:33:44.242 -0400,10561.031827375,1.438812255859375,0.3553619384765625,-0.052947998046875,1,0.97
2020-05-16 12:33:44.308 -0400,10561.096802375,1.496429443359375,0.5760040283203125,-0.434844970703125,1,0.97
2020-05-16 12:33:44.372 -0400,10561.161778375,1.061111450195312,0.285919189453125,-0.308197021484375,1,0.97
2020-05-16 12:33:44.437 -0400,10561.226754375,0.491607666015625,0.1533966064453125,-0.4402923583984375,1,0.97
2020-05-16 12:33:44.502 -0400,10561.291729375,0.3024444580078125,0.1255645751953125,-0.3427276611328125,1,0.97
2020-05-16 12:33:44.567 -0400,10561.356705375,0.377716064453125,0.5085296630859375,-0.3546295166015625,1,0.97
2020-05-16 12:33:44.632 -0400,10561.421681375,0.9609527587890625,0.5240325927734375,-0.5114288330078125,1,0.97
2020-05-16 12:33:44.697 -0400,10561.486656375,1.87054443359375,0.599456787109375,-0.678680419921875,1,0.97
2020-05-16 12:33:44.762 -0400,10561.551632375,1.476974487304688,0.2267608642578125,-0.52569580078125,1,0.97
2020-05-16 12:33:44.827 -0400,10561.616608375,1.001983642578125,0.3039398193359375,-0.339324951171875,1,0.97
2020-05-16 12:33:44.892 -0400,10561.681583375,1.174575805664062,0.3836669921875,-0.10980224609375,1,0.97
2020-05-16 12:33:44.957 -0400,10561.746559375,0.8752593994140625,0.2557220458984375,-0.1545257568359375,1,0.97
2020-05-16 12:33:45.022 -0400,10561.811535375,0.532806396484375,0.2655181884765625,-0.0519866943359375,1,0.97
2020-05-16 12:33:45.087 -0400,10561.876511375,0.56036376953125,0.4151153564453125,-0.0054168701171875,1,0.97
2020-05-16 12:33:45.152 -0400,10561.94148525,1.151901245117188,0.3942108154296875,-0.049102783203125,1,0.97
2020-05-16 12:33:45.218 -0400,10562.00646125,1.288421630859375,0.187652587890625,-0.0507049560546875,1,0.97
2020-05-16 12:33:45.282 -0400,10562.07143725,1.161514282226562,0.1938323974609375,-0.03717041015625,1,0.97
2020-05-16 12:33:45.347 -0400,10562.13641225,1.169845581054688,0.5780029296875,-0.3967437744140625,1,0.97
2020-05-16 12:33:45.412 -0400,10562.20138825,1.077362060546875,0.3720245361328125,-0.4000091552734375,1,0.97
2020-05-16 12:33:45.477 -0400,10562.26636425,0.939453125,0.0156402587890625,-0.296051025390625,1,0.97
2020-05-16 12:33:45.542 -0400,10562.33133925,0.6667022705078125,0.135223388671875,-0.3968658447265625,1,0.97
2020-05-16 12:33:45.607 -0400,10562.39631525,0.463226318359375,0.5263519287109375,-0.2785186767578125,1,0.97
2020-05-16 12:33:45.672 -0400,10562.46129125,0.6409912109375,0.4337921142578125,-0.263763427734375,1,0.97
2020-05-16 12:33:45.737 -0400,10562.52626725,1.129074096679688,0.48858642578125,-0.4007720947265625,1,0.97
2020-05-16 12:33:45.802 -0400,10562.59124225,1.718292236328125,0.51104736328125,-0.38897705078125,1,0.97
2020-05-16 12:33:45.867 -0400,10562.65621825,1.319686889648438,0.5173797607421875,-0.4129638671875,1,0.97
2020-05-16 12:33:45.932 -0400,10562.72119425,1.225784301757812,0.396484375,-0.2213592529296875,1,0.97
2020-05-16 12:33:45.997 -0400,10562.78616925,1.189422607421875,0.2740631103515625,-0.0999908447265625,1,0.97
2020-05-16 12:33:46.061 -0400,10562.85114525,0.74822998046875,0.24920654296875,-0.134368896484375,1,0.97
2020-05-16 12:33:46.127 -0400,10562.91612125,0.4799346923828125,0.2896728515625,-0.0152740478515625,1,0.97
2020-05-16 12:33:46.191 -0400,10562.981097875,0.4815521240234375,0.3086700439453125,0.008392333984375,1,0.97
2020-05-16 12:33:46.257 -0400,10563.046073875,0.9560699462890625,0.3785552978515625,-0.0579833984375,1,0.97
2020-05-16 12:33:46.321 -0400,10563.111049875,1.223541259765625,0.256103515625,-0.1218719482421875,1,0.97
2020-05-16 12:33:46.386 -0400,10563.176024875,1.353256225585938,0.26617431640625,-0.126220703125,1,0.97
2020-05-16 12:33:46.451 -0400,10563.241000875,1.501190185546875,0.5973968505859375,-0.5,1,0.97
2020-05-16 12:33:46.516 -0400,10563.305976875,1.180465698242188,0.2529449462890625,-0.15411376953125,1,0.97
2020-05-16 12:33:46.581 -0400,10563.370951875,0.8961181640625,0.2055206298828125,-0.2486419677734375,1,0.97
2020-05-16 12:33:46.646 -0400,10563.435927875,0.550933837890625,0.37603759765625,-0.1833038330078125,1,0.97
2020-05-16 12:33:46.711 -0400,10563.500903875,0.3820037841796875,0.4351654052734375,-0.0735321044921875,1,0.97
2020-05-16 12:33:46.776 -0400,10563.565878875,0.571746826171875,0.4229583740234375,-0.07965087890625,1,0.97
2020-05-16 12:33:46.841 -0400,10563.630854875,0.9968109130859375,0.5823822021484375,-0.2946929931640625,1,0.97
2020-05-16 12:33:46.907 -0400,10563.695830875,1.253707885742188,0.5889892578125,-0.2537384033203125,1,0.97
2020-05-16 12:33:46.971 -0400,10563.760805875,1.408859252929688,0.8287811279296875,-0.688446044921875,1,0.97
2020-05-16 12:33:47.036 -0400,10563.825781875,1.781692504882812,0.515045166015625,-0.4930572509765625,1,0.97
2020-05-16 12:33:47.101 -0400,10563.890756875,1.594390869140625,-0.068572998046875,-0.0645294189453125,1,0.97
2020-05-16 12:33:47.166 -0400,10563.95573254167,0.689056396484375,0.0545196533203125,-0.3006744384765625,1,0.97
2020-05-16 12:33:47.231 -0400,10564.02070854167,0.405120849609375,0.396270751953125,-0.1265411376953125,1,0.97
2020-05-16 12:33:47.296 -0400,10564.08568354167,0.524200439453125,0.3343505859375,0.055145263671875,1,0.97
2020-05-16 12:33:47.370 -0400,10564.15065954167,1.182357788085938,0.3762969970703125,0.0385284423828125,1,0.97
2020-05-16 12:33:47.426 -0400,10564.21563554167,1.300338745117188,0.2315673828125,0.0489959716796875,1,0.97
2020-05-16 12:33:47.491 -0400,10564.28061054167,1.230743408203125,0.250091552734375,-0.0349578857421875,1,0.97
2020-05-16 12:33:47.556 -0400,10564.34558654167,1.6085205078125,0.5813140869140625,-0.274688720703125,1,0.97
2020-05-16 12:33:47.621 -0400,10564.41056154167,1.233596801757812,0.32659912109375,-0.106689453125,1,0.97
2020-05-16 12:33:47.686 -0400,10564.47553754167,0.8954315185546875,0.3289642333984375,-0.3427276611328125,1,0.97
2020-05-16 12:33:47.751 -0400,10564.54051354167,0.660736083984375,0.4403839111328125,-0.3842315673828125,1,0.97
2020-05-16 12:33:47.816 -0400,10564.60548854167,0.603546142578125,0.4894256591796875,-0.4954376220703125,1,0.97
2020-05-16 12:33:47.881 -0400,10564.67046454167,0.8374786376953125,0.6299285888671875,-0.7950592041015625,1,0.97
2020-05-16 12:33:47.946 -0400,10564.73543954167,1.296005249023438,0.7331390380859375,-0.799407958984375,1,0.97
2020-05-16 12:33:48.011 -0400,10564.80041554167,1.616867065429688,0.49981689453125,-0.6723785400390625,1,0.97
2020-05-16 12:33:48.076 -0400,10564.86539154167,1.874862670898438,0.090087890625,-0.230743408203125,1,0.97
2020-05-16 12:33:48.141 -0400,10564.93036625,1.75677490234375,0.3914337158203125,-0.2185821533203125,1,0.97
2020-05-16 12:33:48.206 -0400,10564.99534225,1.019622802734375,0.37890625,-0.085418701171875,1,0.97
2020-05-16 12:33:48.271 -0400,10565.06031725,0.7227325439453125,0.40350341796875,0.093658447265625,1,0.97
2020-05-16 12:33:48.336 -0400,10565.12529325,0.9136505126953125,0.32196044921875,0.14208984375,1,0.97
2020-05-16 12:33:48.401 -0400,10565.19026925,0.950164794921875,0.213623046875,0.1625823974609375,1,0.97
2020-05-16 12:33:48.466 -0400,10565.25524425,0.594818115234375,0.1457977294921875,0.0764617919921875,1,0.97
2020-05-16 12:33:48.531 -0400,10565.32022025,0.735748291015625,0.28759765625,0.010009765625,1,0.97
2020-05-16 12:33:48.595 -0400,10565.38519525,0.870574951171875,0.5767364501953125,-0.5602264404296875,1,0.97
2020-05-16 12:33:48.661 -0400,10565.45017125,1.820220947265625,0.5186920166015625,-0.46197509765625,1,0.97
2020-05-16 12:33:48.725 -0400,10565.51514725,1.445632934570312,0.003509521484375,-0.2984771728515625,1,0.97
2020-05-16 12:33:48.790 -0400,10565.58012225,1.034469604492188,0.2617034912109375,-0.57843017578125,1,0.97
2020-05-16 12:33:48.856 -0400,10565.64509825,0.70953369140625,0.658355712890625,-0.4877166748046875,1,0.97
2020-05-16 12:33:48.920 -0400,10565.71007325,0.6817779541015625,0.6982574462890625,-0.5256500244140625,1,0.97
2020-05-16 12:33:48.985 -0400,10565.77504925,0.9101409912109375,0.6961212158203125,-0.758514404296875,1,0.97
2020-05-16 12:33:49.050 -0400,10565.84002425,1.398208618164062,0.562835693359375,-0.5483856201171875,1,0.97
2020-05-16 12:33:49.115 -0400,10565.90500025,1.817123413085938,0.2926025390625,-0.412506103515625,1,0.97
2020-05-16 12:33:49.180 -0400,10565.969975,1.81427001953125,0.1646728515625,-0.1326751708984375,1,0.97
2020-05-16 12:33:49.245 -0400,10566.034951,1.355224609375,0.53265380859375,-0.1339874267578125,1,0.97
2020-05-16 12:33:49.313 -0400,10566.099927,0.76861572265625,0.429412841796875,-0.0348663330078125,1,0.97
2020-05-16 12:33:49.375 -0400,10566.164902,0.552459716796875,0.3753204345703125,0.117462158203125,1,0.97
2020-05-16 12:33:49.440 -0400,10566.229878,0.6737213134765625,0.270965576171875,0.0898284912109375,1,0.97
2020-05-16 12:33:49.505 -0400,10566.294853,0.9766693115234375,0.243499755859375,0.070465087890625,1,0.97
2020-05-16 12:33:49.570 -0400,10566.359829,0.737060546875,0.1079559326171875,-0.018646240234375,1,0.97
2020-05-16 12:33:49.635 -0400,10566.424804,0.8431243896484375,0.2520904541015625,-0.2383270263671875,1,0.97
2020-05-16 12:33:49.700 -0400,10566.48978,1.13470458984375,0.416717529296875,-0.4030303955078125,1,0.97
2020-05-16 12:33:49.765 -0400,10566.554755,1.821014404296875,0.4281158447265625,-0.5057220458984375,1,0.97
2020-05-16 12:33:49.830 -0400,10566.619731,1.186553955078125,0.472015380859375,-0.5891876220703125,1,0.97
2020-05-16 12:33:49.895 -0400,10566.684706,0.96209716796875,0.3824920654296875,-0.4356536865234375,1,0.97
2020-05-16 12:33:49.960 -0400,10566.749682,0.966400146484375,0.5948333740234375,-0.3541412353515625,1,0.97
2020-05-16 12:33:50.025 -0400,10566.814657,0.8216094970703125,0.857574462890625,-0.4843902587890625,1,0.97
2020-05-16 12:33:50.090 -0400,10566.879633,1.093826293945312,0.8987579345703125,-0.4573211669921875,1,0.97
2020-05-16 12:33:50.155 -0400,10566.94460966667,1.384109497070312,0.6740875244140625,-0.544708251953125,1,0.97
2020-05-16 12:33:50.220 -0400,10567.00958466667,1.619796752929688,0.5435333251953125,-0.5103759765625,1,0.97
2020-05-16 12:33:50.285 -0400,10567.07456066667,1.771865844726562,0.3162689208984375,-0.176666259765625,1,0.97
2020-05-16 12:33:50.350 -0400,10567.13953566667,1.035903930664062,0.1536407470703125,-0.1894989013671875,1,0.97
2020-05-16 12:33:50.415 -0400,10567.20451166667,0.6330413818359375,0.3296661376953125,-0.07373046875,1,0.97
2020-05-16 12:33:50.480 -0400,10567.26948666667,0.6858673095703125,0.371490478515625,0.0064697265625,1,0.97
2020-05-16 12:33:50.545 -0400,10567.33446266667,0.8432159423828125,0.2310028076171875,0.04541015625,1,0.97
2020-05-16 12:33:50.610 -0400,10567.39943766667,0.7568817138671875,0.0980987548828125,0.0434112548828125,1,0.97
2020-05-16 12:33:50.675 -0400,10567.46441366667,0.9306793212890625,0.3971099853515625,-0.1815185546875,1,0.97
2020-05-16 12:33:50.740 -0400,10567.52938866667,1.367355346679688,0.5648956298828125,-0.5588226318359375,1,0.97
2020-05-16 12:33:50.805 -0400,10567.59436466667,1.48419189453125,0.2409210205078125,-0.30267333984375,1,0.97
2020-05-16 12:33:50.870 -0400,10567.65933966667,1.138992309570312,0.1586761474609375,-0.461517333984375,1,0.97
2020-05-16 12:33:50.935 -0400,10567.72431566667,1.030059814453125,0.571319580078125,-0.3316192626953125,1,0.97
2020-05-16 12:33:51.000 -0400,10567.78929066667,0.877288818359375,0.843536376953125,-0.410369873046875,1,0.97
2020-05-16 12:33:51.065 -0400,10567.85426666667,0.9319610595703125,1.045303344726562,-0.49102783203125,1,0.97
2020-05-16 12:33:51.130 -0400,10567.91924166667,1.932815551757812,1.426559448242188,-0.6554107666015625,1,0.97
2020-05-16 12:33:51.195 -0400,10567.984217625,1.470245361328125,0.3069000244140625,-0.3546600341796875,1,0.97
2020-05-16 12:33:51.263 -0400,10568.049192625,1.626632690429688,0.4755859375,-0.158050537109375,1,0.97
2020-05-16 12:33:51.325 -0400,10568.114168625,1.306167602539062,0.471649169921875,-0.3172149658203125,1,0.97
2020-05-16 12:33:51.389 -0400,10568.179143625,0.8362884521484375,0.338897705078125,-0.0455169677734375,1,0.97
2020-05-16 12:33:51.455 -0400,10568.244118625,0.860687255859375,0.3376312255859375,0.0118408203125,1,0.97
2020-05-16 12:33:51.519 -0400,10568.309094625,1.176834106445312,0.2648162841796875,-0.0160064697265625,1,0.97
2020-05-16 12:33:51.584 -0400,10568.374069625,1.0120849609375,0.088104248046875,0.089630126953125,1,0.97
2020-05-16 12:33:51.649 -0400,10568.439045625,0.80047607421875,0.15826416015625,0.06329345703125,1,0.97
2020-05-16 12:33:51.714 -0400,10568.504020625,0.6741943359375,0.44580078125,-0.035675048828125,1,0.97
2020-05-16 12:33:51.779 -0400,10568.568996625,1.052536010742188,0.5259857177734375,-0.4238433837890625,1,0.97
2020-05-16 12:33:51.844 -0400,10568.633971625,1.412109375,0.8230438232421875,-0.631622314453125,1,0.97
2020-05-16 12:33:51.909 -0400,10568.698947625,0.956085205078125,0.538055419921875,-0.4763336181640625,1,0.97
2020-05-16 12:33:51.974 -0400,10568.763922625,0.992523193359375,0.036346435546875,-0.4887237548828125,1,0.97
2020-05-16 12:33:52.039 -0400,10568.828898625,0.8961944580078125,0.60565185546875,-0.6306304931640625,1,0.97
2020-05-16 12:33:52.104 -0400,10568.893873625,0.9826812744140625,0.845367431640625,-0.638885498046875,1,0.97
2020-05-16 12:33:52.169 -0400,10568.958849375,1.73468017578125,0.8416900634765625,-0.796539306640625,1,0.97
2020-05-16 12:33:52.234 -0400,10569.023824375,1.832138061523438,0.6023712158203125,-0.3230438232421875,1,0.97
2020-05-16 12:33:52.299 -0400,10569.088800375,1.775115966796875,0.047088623046875,-0.1762542724609375,1,0.97
2020-05-16 12:33:52.364 -0400,10569.153775375,0.9800262451171875,0.164306640625,-0.1712493896484375,1,0.97
2020-05-16 12:33:52.429 -0400,10569.218750375,0.705047607421875,0.451568603515625,-0.0497283935546875,1,0.97
2020-05-16 12:33:52.494 -0400,10569.283726375,0.8029022216796875,0.356109619140625,0.02825927734375,1,0.97
2020-05-16 12:33:52.559 -0400,10569.348701375,0.7205657958984375,0.0973358154296875,0.1251068115234375,1,0.97
2020-05-16 12:33:52.624 -0400,10569.413677375,0.4675750732421875,0.1032257080078125,0.0768585205078125,1,0.97
2020-05-16 12:33:52.689 -0400,10569.478652375,0.648712158203125,0.3341217041015625,-0.0825653076171875,1,0.97
2020-05-16 12:33:52.754 -0400,10569.543628375,0.840057373046875,0.6090087890625,-0.5315399169921875,1,0.97
2020-05-16 12:33:52.819 -0400,10569.608603375,1.944351196289062,0.600128173828125,-0.541290283203125,1,0.97
2020-05-16 12:33:52.884 -0400,10569.673578375,1.131942749023438,0.1088714599609375,-0.236328125,1,0.97
2020-05-16 12:33:52.949 -0400,10569.738554375,0.9143524169921875,0.1372528076171875,-0.402618408203125,1,0.97
2020-05-16 12:33:53.014 -0400,10569.803529375,0.9329986572265625,0.8084716796875,-0.33184814453125,1,0.97
2020-05-16 12:33:53.079 -0400,10569.868505375,0.7417755126953125,0.9890594482421875,-0.444244384765625,1,0.97
2020-05-16 12:33:53.144 -0400,10569.933480375,1.017501831054688,0.8159027099609375,-0.500030517578125,1,0.97
2020-05-16 12:33:53.209 -0400,10569.99845675,1.441696166992188,0.7100677490234375,-0.429229736328125,1,0.97
2020-05-16 12:33:53.274 -0400,10570.06343175,1.728729248046875,0.186859130859375,-0.3489837646484375,1,0.97
2020-05-16 12:33:53.339 -0400,10570.12840675,1.689239501953125,0.525634765625,-0.2776641845703125,1,0.97
2020-05-16 12:33:53.404 -0400,10570.19338275,0.963714599609375,0.2867279052734375,-0.1817169189453125,1,0.97
2020-05-16 12:33:53.469 -0400,10570.25835775,0.60357666015625,0.3421478271484375,0.0028839111328125,1,0.97
2020-05-16 12:33:53.534 -0400,10570.32333375,0.55035400390625,0.2859039306640625,0.0648345947265625,1,0.97
2020-05-16 12:33:53.599 -0400,10570.38830875,0.7023468017578125,0.2583465576171875,0.06536865234375,1,0.97
2020-05-16 12:33:53.664 -0400,10570.45328475,0.8998260498046875,0.2433013916015625,0.0664520263671875,1,0.97
2020-05-16 12:33:53.729 -0400,10570.51825975,0.9461822509765625,0.2517547607421875,-0.0107269287109375,1,0.97
2020-05-16 12:33:53.794 -0400,10570.58323475,0.9841766357421875,0.406707763671875,-0.20086669921875,1,0.97
2020-05-16 12:33:53.859 -0400,10570.64821075,1.476364135742188,0.6090240478515625,-0.514129638671875,1,0.97
2020-05-16 12:33:53.924 -0400,10570.71318575,1.611236572265625,0.4925537109375,-0.3329620361328125,1,0.97
2020-05-16 12:33:53.988 -0400,10570.77816175,0.88616943359375,0.12335205078125,-0.5467071533203125,1,0.97
2020-05-16 12:33:54.054 -0400,10570.84313675,0.673675537109375,0.5027313232421875,-0.390472412109375,1,0.97
2020-05-16 12:33:54.118 -0400,10570.90811175,0.6642608642578125,0.766632080078125,-0.4261627197265625,1,0.97
2020-05-16 12:33:54.184 -0400,10570.973087875,0.7229766845703125,0.697052001953125,-0.6631622314453125,1,0.97
2020-05-16 12:33:54.248 -0400,10571.038062875,1.106430053710938,0.6848297119140625,-0.5843505859375,1,0.97
2020-05-16 12:33:54.314 -0400,10571.103038875,1.712753295898438,0.54815673828125,-0.5400543212890625,1,0.97
2020-05-16 12:33:54.378 -0400,10571.168013875,1.820693969726562,0.260162353515625,-0.297760009765625,1,0.97
2020-05-16 12:33:54.443 -0400,10571.232988875,1.734909057617188,0.4875030517578125,-0.189666748046875,1,0.97
2020-05-16 12:33:54.508 -0400,10571.297964875,1.056564331054688,0.4201202392578125,-0.12322998046875,1,0.97
2020-05-16 12:33:54.573 -0400,10571.362939875,0.662017822265625,0.3766021728515625,0.0193328857421875,1,0.97
2020-05-16 12:33:54.639 -0400,10571.427915875,0.7415618896484375,0.3636627197265625,0.022430419921875,1,0.97
2020-05-16 12:33:54.704 -0400,10571.492890875,0.4161529541015625,0.218780517578125,-0.0637359619140625,1,0.97
2020-05-16 12:33:54.768 -0400,10571.557865875,0.3579254150390625,-0.01007080078125,0.0772247314453125,1,0.97
2020-05-16 12:33:54.833 -0400,10571.622841875,0.7221832275390625,0.203765869140625,0.2304840087890625,1,0.97
2020-05-16 12:33:54.898 -0400,10571.687816875,0.6885528564453125,0.393218994140625,-0.2198333740234375,1,0.97
2020-05-16 12:33:54.963 -0400,10571.752791875,1.415924072265625,0.033905029296875,0.3440093994140625,1,0.97
2020-05-16 12:33:55.028 -0400,10571.817767875,2.47637939453125,0.6124114990234375,-0.3153228759765625,1,0.97
2020-05-16 12:33:55.093 -0400,10571.882742875,2.13775634765625,1.178573608398438,-1.153244018554688,1,0.97
2020-05-16 12:33:55.158 -0400,10571.947719125,1.775482177734375,0.39520263671875,-0.1132049560546875,1,0.97
2020-05-16 12:33:55.223 -0400,10572.012694125,0.4034576416015625,0.814910888671875,-0.175048828125,1,0.97
2020-05-16 12:33:55.288 -0400,10572.077669125,-0.2239990234375,0.9600982666015625,0.1184539794921875,1,0.97
2020-05-16 12:33:55.353 -0400,10572.142645125,-0.115203857421875,0.7327728271484375,-0.0635833740234375,1,0.97
2020-05-16 12:33:55.418 -0400,10572.207620125,0.330291748046875,0.3607025146484375,0.059234619140625,1,0.97
2020-05-16 12:33:55.483 -0400,10572.272595125,2.473678588867188,1.061004638671875,0.9437408447265625,1,0.97
2020-05-16 12:33:55.548 -0400,10572.337571125,2.02532958984375,0.217926025390625,-0.940673828125,1,0.97
2020-05-16 12:33:55.613 -0400,10572.402546125,1.420181274414062,0.6439208984375,0.13116455078125,1,0.97
2020-05-16 12:33:55.678 -0400,10572.467521125,1.344757080078125,0.300811767578125,0.0106964111328125,1,0.97
2020-05-16 12:33:55.743 -0400,10572.532497125,0.9986572265625,0.0289306640625,0.00238037109375,1,0.97
2020-05-16 12:33:55.808 -0400,10572.597472125,0.781707763671875,-0.00750732421875,-0.003692626953125,1,0.97
2020-05-16 12:33:55.873 -0400,10572.662447125,0.5269927978515625,0.1349639892578125,-0.0876922607421875,1,0.97
2020-05-16 12:33:55.938 -0400,10572.727423125,0.7400665283203125,0.394439697265625,0.1236114501953125,1,0.97
2020-05-16 12:33:56.003 -0400,10572.792398125,0.930633544921875,1.105850219726562,-0.6449127197265625,1,0.97
2020-05-16 12:33:56.067 -0400,10572.857374125,1.203842163085938,0.439544677734375,-0.329833984375,1,0.97
2020-05-16 12:33:56.133 -0400,10572.922349125,1.197830200195312,0.785003662109375,-0.4512939453125,1,0.97
2020-05-16 12:33:56.198 -0400,10572.987323375,0.887664794921875,0.724334716796875,-0.292816162109375,1,0.97
2020-05-16 12:33:56.263 -0400,10573.052299375,1.006439208984375,0.8698883056640625,-0.68701171875,1,0.97
2020-05-16 12:33:56.328 -0400,10573.117274375,0.800506591796875,0.479522705078125,-0.6268310546875,1,0.97
2020-05-16 12:33:56.393 -0400,10573.182249375,0.948486328125,0.65618896484375,-0.6007232666015625,1,0.97
2020-05-16 12:33:56.458 -0400,10573.247225375,1.902557373046875,0.7319183349609375,-0.7938690185546875,1,0.97
2020-05-16 12:33:56.523 -0400,10573.312200375,1.985076904296875,0.4487457275390625,-0.3031768798828125,1,0.97
