loggingTime(txt),accelerometerTimestamp_sinceReboot(s),accelerometerAccelerationX(G),accelerometerAccelerationY(G),accelerometerAccelerationZ(G),batteryState,batteryLevel
2020-05-16 12:48:32.991 -0400,11441.13358479167,-0.0682220458984375,-0.1775054931640625,-0.852874755859375,1,0.95
2020-05-16 12:48:33.110 -0400,11441.25329779167,-0.2043609619140625,-0.05560302734375,-1.168533325195312,1,0.95
2020-05-16 12:48:33.230 -0400,11441.37300779167,0.1095428466796875,0.2019805908203125,-1.127593994140625,1,0.95
2020-05-16 12:48:33.350 -0400,11441.49272279167,0.166748046875,0.20556640625,-0.7591400146484375,1,0.95
2020-05-16 12:48:33.469 -0400,11441.61243479167,0.11236572265625,0.11834716796875,-0.6066436767578125,1,0.95
2020-05-16 12:48:33.589 -0400,11441.73215579167,0.3968963623046875,0.2603912353515625,-0.684051513671875,1,0.95
2020-05-16 12:48:33.709 -0400,11441.85187825,1.367507934570312,0.453033447265625,-0.6638641357421875,1,0.95
2020-05-16 12:48:33.829 -0400,11441.97158925,1.315139770507812,0.4402923583984375,-0.4857940673828125,1,0.95
2020-05-16 12:48:33.948 -0400,11442.09130025,1.032333374023438,0.4324798583984375,-0.168212890625,1,0.95
2020-05-16 12:48:34.068 -0400,11442.21101425,0.387054443359375,0.420013427734375,-0.205322265625,1,0.95
2020-05-16 12:48:34.198 -0400,11442.33073425,0.4493255615234375,0.3197021484375,-0.27496337890625,1,0.95
2020-05-16 12:48:34.321 -0400,11442.45044925,1.216567993164062,0.602935791015625,-0.4196319580078125,1,0.95
2020-05-16 12:48:34.427 -0400,11442.57016425,1.428680419921875,0.4239349365234375,-0.5052490234375,1,0.95
2020-05-16 12:48:34.547 -0400,11442.68987825,1.274993896484375,0.02667236328125,-0.0926971435546875,1,0.95
2020-05-16 12:48:34.666 -0400,11442.80959325,0.59967041015625,0.3964080810546875,-0.131805419921875,1,0.95
2020-05-16 12:48:34.786 -0400,11442.92930666667,0.3834381103515625,0.256256103515625,-0.047637939453125,1,0.95
2020-05-16 12:48:34.906 -0400,11443.04901566667,1.016357421875,0.3682861328125,-0.1697540283203125,1,0.95
2020-05-16 12:48:35.026 -0400,11443.16872766667,1.2340087890625,0.4352569580078125,-0.3763580322265625,1,0.95
2020-05-16 12:48:35.145 -0400,11443.28843966667,1.157241821289062,0.158355712890625,-0.295074462890625,1,0.95
2020-05-16 12:48:35.265 -0400,11443.40814666667,0.3259735107421875,0.4595489501953125,-0.2004852294921875,1,0.95
2020-05-16 12:48:35.385 -0400,11443.52785266667,0.572021484375,0.5965728759765625,-0.369964599609375,1,0.95
2020-05-16 12:48:35.505 -0400,11443.64755466667,1.527450561523438,0.3368682861328125,-0.385162353515625,1,0.95
2020-05-16 12:48:35.624 -0400,11443.76725766667,0.94580078125,0.533355712890625,-0.4337921142578125,1,0.95
2020-05-16 12:48:35.744 -0400,11443.8869615,1.261383056640625,0.54620361328125,-0.1926422119140625,1,0.95
2020-05-16 12:48:35.864 -0400,11444.0066695,0.753082275390625,0.2972564697265625,-0.104827880859375,1,0.95
2020-05-16 12:48:35.983 -0400,11444.1263765,0.6623382568359375,0.300018310546875,-0.0361328125,1,0.95
2020-05-16 12:48:36.103 -0400,11444.2460905,0.8805389404296875,0.4046173095703125,-0.192108154296875,1,0.95
2020-05-16 12:48:36.223 -0400,11444.3657975,0.703369140625,0.661651611328125,-0.567352294921875,1,0.95
2020-05-16 12:48:36.343 -0400,11444.4854995,0.9716033935546875,0.5411224365234375,-0.576263427734375,1,0.95
2020-05-16 12:48:36.462 -0400,11444.6052045,0.182952880859375,0.695709228515625,-0.4835968017578125,1,0.95
2020-05-16 12:48:36.582 -0400,11444.7249065,-0.055145263671875,1.044113159179688,-0.4705963134765625,1,0.95
2020-05-16 12:48:36.702 -0400,11444.844613875,0.0426177978515625,1.1644287109375,-0.3739776611328125,1,0.95
2020-05-16 12:48:36.821 -0400,11444.964318875,1.06182861328125,0.738037109375,-0.327728271484375,1,0.95
2020-05-16 12:48:36.941 -0400,11445.084023875,0.2325592041015625,0.95257568359375,0.3148651123046875,1,0.95
2020-05-16 12:48:37.061 -0400,11445.203738875,-0.4340667724609375,1.084197998046875,-0.0957489013671875,1,0.95
2020-05-16 12:48:37.180 -0400,11445.323456875,-0.3267669677734375,0.4209136962890625,-0.0399932861328125,1,0.95
2020-05-16 12:48:37.301 -0400,11445.443165875,0.0538330078125,0.7177734375,-0.3196258544921875,1,0.95
2020-05-16 12:48:37.420 -0400,11445.562868875,0.5592803955078125,0.834930419921875,-0.2421112060546875,1,0.95
2020-05-16 12:48:37.540 -0400,11445.682584875,0.5175323486328125,0.810150146484375,-0.1262054443359375,1,0.95
2020-05-16 12:48:37.659 -0400,11445.802295875,0.2439727783203125,0.674713134765625,-0.224029541015625,1,0.95
2020-05-16 12:48:37.779 -0400,11445.92201275,0.32562255859375,1.003250122070312,-0.324951171875,1,0.95
2020-05-16 12:48:37.899 -0400,11446.04172775,0.3064117431640625,1.086212158203125,-0.44866943359375,1,0.95
2020-05-16 12:48:38.018 -0400,11446.16144075,0.520538330078125,1.358108520507812,-0.5135345458984375,1,0.95
2020-05-16 12:48:38.138 -0400,11446.28115975,0.803436279296875,1.198699951171875,-0.3979949951171875,1,0.95
2020-05-16 12:48:38.258 -0400,11446.40088275,0.1180267333984375,0.5166015625,-0.2888031005859375,1,0.95
2020-05-16 12:48:38.377 -0400,11446.52059875,0.1180419921875,0.4867095947265625,-0.2817230224609375,1,0.95
2020-05-16 12:48:38.497 -0400,11446.64030475,0.291778564453125,0.667144775390625,-0.3700408935546875,1,0.95
2020-05-16 12:48:38.617 -0400,11446.76001275,0.4749603271484375,0.8940887451171875,-0.5597381591796875,1,0.95
2020-05-16 12:48:38.737 -0400,11446.87971675,0.5406951904296875,1.163421630859375,-0.3855438232421875,1,0.95
2020-05-16 12:48:38.856 -0400,11446.99942875,0.3159942626953125,0.6805572509765625,-0.8243255615234375,1,0.95
2020-05-16 12:48:38.976 -0400,11447.11913675,0.0798797607421875,0.7400360107421875,-0.55853271484375,1,0.95
2020-05-16 12:48:39.096 -0400,11447.23884775,0.31512451171875,0.75714111328125,-0.58123779296875,1,0.95
2020-05-16 12:48:39.215 -0400,11447.35856175,0.8698883056640625,1.279342651367188,-0.69677734375,1,0.95
2020-05-16 12:48:39.335 -0400,11447.47827675,0.688232421875,0.97418212890625,-0.4555206298828125,1,0.95
2020-05-16 12:48:39.455 -0400,11447.59799275,0.4028472900390625,0.6229400634765625,-0.2700653076171875,1,0.95
2020-05-16 12:48:39.575 -0400,11447.71770375,0.3447418212890625,0.631378173828125,-0.304229736328125,1,0.95
2020-05-16 12:48:39.694 -0400,11447.83742004167,0.57489013671875,0.85479736328125,-0.3914947509765625,1,0.95
2020-05-16 12:48:39.814 -0400,11447.95712904167,0.50244140625,1.0224609375,-0.414306640625,1,0.95
2020-05-16 12:48:39.934 -0400,11448.07684604167,0.7169036865234375,0.5489501953125,-0.365020751953125,1,0.95
2020-05-16 12:48:40.053 -0400,11448.19655704167,0.43536376953125,0.419219970703125,-0.2311553955078125,1,0.95
2020-05-16 12:48:40.173 -0400,11448.31626804167,0.38079833984375,0.41815185546875,-0.39111328125,1,0.95
2020-05-16 12:48:40.294 -0400,11448.43598604167,0.7964630126953125,0.96051025390625,-0.48052978515625,1,0.95
2020-05-16 12:48:40.413 -0400,11448.55570204167,0.8829498291015625,1.009368896484375,-0.47369384765625,1,0.95
2020-05-16 12:48:40.532 -0400,11448.67541704167,1.07830810546875,0.8441925048828125,-0.247314453125,1,0.95
2020-05-16 12:48:40.652 -0400,11448.79513504167,0.522216796875,0.506256103515625,-0.1546630859375,1,0.95
2020-05-16 12:48:40.772 -0400,11448.914855375,0.5919189453125,0.701873779296875,-0.096588134765625,1,0.95
2020-05-16 12:48:40.892 -0400,11449.034569375,0.6548919677734375,0.74151611328125,-0.20458984375,1,0.95
2020-05-16 12:48:41.012 -0400,11449.154287375,0.457122802734375,0.965545654296875,-0.1905364990234375,1,0.95
2020-05-16 12:48:41.131 -0400,11449.273995375,0.6358184814453125,0.4712677001953125,-0.287017822265625,1,0.95
2020-05-16 12:48:41.251 -0400,11449.393699375,0.44781494140625,0.357696533203125,-0.1851959228515625,1,0.95
2020-05-16 12:48:41.370 -0400,11449.513403375,0.981109619140625,0.8248291015625,-0.3828582763671875,1,0.95
2020-05-16 12:48:41.490 -0400,11449.633116375,0.95684814453125,0.755859375,-0.530914306640625,1,0.95
2020-05-16 12:48:41.610 -0400,11449.752833375,0.8847808837890625,0.9503936767578125,-0.64178466796875,1,0.95
2020-05-16 12:48:41.729 -0400,11449.87255654167,1.025924682617188,0.7178192138671875,-0.3790435791015625,1,0.95
2020-05-16 12:48:41.849 -0400,11449.99228354167,0.58502197265625,0.1069793701171875,-0.0773162841796875,1,0.95
2020-05-16 12:48:41.969 -0400,11450.11200854167,0.3829345703125,0.506378173828125,-0.14178466796875,1,0.95
2020-05-16 12:48:42.089 -0400,11450.23173754167,0.4883575439453125,0.744293212890625,-0.1380767822265625,1,0.95
2020-05-16 12:48:42.210 -0400,11450.35146654167,1.0260009765625,0.9818115234375,-0.3529052734375,1,0.95
2020-05-16 12:48:42.328 -0400,11450.47119654167,0.6112518310546875,0.4838104248046875,-0.4155426025390625,1,0.95
2020-05-16 12:48:42.448 -0400,11450.59093054167,0.569061279296875,0.5664825439453125,-0.289947509765625,1,0.95
2020-05-16 12:48:42.568 -0400,11450.71065854167,0.77972412109375,0.9847412109375,-0.2328033447265625,1,0.95
2020-05-16 12:48:42.687 -0400,11450.83038454167,1.355758666992188,0.67120361328125,-0.4277191162109375,1,0.95
2020-05-16 12:48:42.807 -0400,11450.950106375,1.18109130859375,0.500946044921875,-0.1962738037109375,1,0.95
2020-05-16 12:48:42.927 -0400,11451.069831375,0.466156005859375,0.1977691650390625,-0.060577392578125,1,0.95
2020-05-16 12:48:43.047 -0400,11451.189539375,0.5812835693359375,0.4077301025390625,-0.0614013671875,1,0.95
2020-05-16 12:48:43.166 -0400,11451.309255375,1.008529663085938,0.69189453125,-0.04754638671875,1,0.95
2020-05-16 12:48:43.292 -0400,11451.428968375,0.9913482666015625,0.7353363037109375,-0.18780517578125,1,0.95
2020-05-16 12:48:43.406 -0400,11451.548687375,0.98828125,0.4318389892578125,-0.162109375,1,0.95
2020-05-16 12:48:43.525 -0400,11451.668406375,0.335906982421875,0.3061065673828125,-0.2172088623046875,1,0.95
2020-05-16 12:48:43.645 -0400,11451.788128375,0.7146759033203125,0.4580230712890625,-0.2967681884765625,1,0.95
2020-05-16 12:48:43.765 -0400,11451.907849375,0.9778594970703125,0.6510009765625,-0.3276824951171875,1,0.95
2020-05-16 12:48:43.885 -0400,11452.027569375,1.309814453125,0.6846466064453125,-0.289459228515625,1,0.95
2020-05-16 12:48:44.004 -0400,11452.147291375,1.201156616210938,0.441680908203125,-0.07989501953125,1,0.95
2020-05-16 12:48:44.124 -0400,11452.267019375,0.3951416015625,0.39935302734375,-0.10467529296875,1,0.95
2020-05-16 12:48:44.244 -0400,11452.386757375,0.4097747802734375,0.4497833251953125,-0.0945892333984375,1,0.95
2020-05-16 12:48:44.363 -0400,11452.506489375,0.98223876953125,0.7102203369140625,-0.162750244140625,1,0.95
2020-05-16 12:48:44.484 -0400,11452.626222375,0.8427276611328125,0.8722686767578125,-0.3274688720703125,1,0.95
2020-05-16 12:48:44.603 -0400,11452.745952375,0.895599365234375,0.5258636474609375,-0.2747039794921875,1,0.95
2020-05-16 12:48:44.723 -0400,11452.865685875,0.38330078125,0.364532470703125,-0.2596435546875,1,0.95
2020-05-16 12:48:44.842 -0400,11452.985417875,0.5423736572265625,0.438568115234375,-0.287567138671875,1,0.95
2020-05-16 12:48:44.962 -0400,11453.105148875,1.258102416992188,0.5842132568359375,-0.245635986328125,1,0.95
2020-05-16 12:48:45.082 -0400,11453.224882875,1.308029174804688,0.6036834716796875,-0.39093017578125,1,0.95
2020-05-16 12:48:45.202 -0400,11453.344611875,0.9072265625,0.4356689453125,-0.2030029296875,1,0.95
2020-05-16 12:48:45.321 -0400,11453.464334875,0.4354705810546875,0.25323486328125,-0.1104736328125,1,0.95
2020-05-16 12:48:45.441 -0400,11453.584061875,0.80364990234375,0.3890228271484375,-0.0841522216796875,1,0.95
2020-05-16 12:48:45.561 -0400,11453.703788875,0.795501708984375,-0.2707061767578125,-0.0917205810546875,1,0.95
2020-05-16 12:48:45.680 -0400,11453.823507875,1.115966796875,0.6240081787109375,-0.3468017578125,1,0.95
2020-05-16 12:48:45.800 -0400,11453.943228375,0.387939453125,0.2821197509765625,-0.341033935546875,1,0.95
2020-05-16 12:48:45.920 -0400,11454.062950375,0.6595458984375,0.3856201171875,-0.2843780517578125,1,0.95
2020-05-16 12:48:46.040 -0400,11454.182674375,1.173660278320312,0.5923919677734375,-0.3838043212890625,1,0.95
2020-05-16 12:48:46.159 -0400,11454.302397375,1.053558349609375,0.6456298828125,-0.312744140625,1,0.95
2020-05-16 12:48:46.290 -0400,11454.422121375,1.000259399414062,0.54351806640625,-0.14849853515625,1,0.95
2020-05-16 12:48:46.399 -0400,11454.541839375,0.564422607421875,0.457244873046875,-0.1076812744140625,1,0.95
2020-05-16 12:48:46.519 -0400,11454.661555375,0.846466064453125,0.637298583984375,-0.084991455078125,1,0.95
2020-05-16 12:48:46.638 -0400,11454.781270375,0.576629638671875,2.167877197265625,-0.307647705078125,1,0.95
2020-05-16 12:48:46.758 -0400,11454.90098816667,0.6959075927734375,1.56103515625,-0.204986572265625,1,0.95
2020-05-16 12:48:46.878 -0400,11455.02071416667,-0.116485595703125,0.889739990234375,-0.407135009765625,1,0.95
2020-05-16 12:48:46.997 -0400,11455.14043816667,-0.1786346435546875,0.9617156982421875,-0.351776123046875,1,0.95
2020-05-16 12:48:47.117 -0400,11455.26016216667,-0.13848876953125,0.7631072998046875,-0.410400390625,1,0.95
2020-05-16 12:48:47.237 -0400,11455.37988516667,-0.425933837890625,0.934295654296875,-0.9370269775390625,1,0.95
2020-05-16 12:48:47.361 -0400,11455.49960916667,-0.0904998779296875,-0.00347900390625,-0.501953125,1,0.95
2020-05-16 12:48:47.476 -0400,11455.61933016667,0.0307159423828125,-0.054931640625,-0.420440673828125,1,0.95
2020-05-16 12:48:47.596 -0400,11455.73905916667,0.142425537109375,0.4234161376953125,-0.3577117919921875,1,0.95
2020-05-16 12:48:47.716 -0400,11455.858780375,1.146759033203125,0.9386749267578125,-0.5333404541015625,1,0.95
2020-05-16 12:48:47.835 -0400,11455.978510375,1.9581298828125,1.097579956054688,-0.4985198974609375,1,0.95
2020-05-16 12:48:47.955 -0400,11456.098237375,0.6429290771484375,0.3460845947265625,-0.1778411865234375,1,0.95
2020-05-16 12:48:48.075 -0400,11456.217955375,0.3277130126953125,0.549102783203125,-0.1361541748046875,1,0.95
2020-05-16 12:48:48.194 -0400,11456.337676375,0.79296875,0.872802734375,-0.38836669921875,1,0.95
2020-05-16 12:48:48.314 -0400,11456.457399375,1.456100463867188,0.5721282958984375,-0.5092010498046875,1,0.95
2020-05-16 12:48:48.434 -0400,11456.577119375,1.636962890625,0.3953704833984375,-0.2533111572265625,1,0.95
2020-05-16 12:48:48.554 -0400,11456.696846375,0.60186767578125,0.26104736328125,-0.1584625244140625,1,0.95
2020-05-16 12:48:48.674 -0400,11456.816573375,0.5970916748046875,0.15289306640625,-0.0738677978515625,1,0.95
2020-05-16 12:48:48.793 -0400,11456.93629825,0.6902313232421875,0.28973388671875,-0.0808258056640625,1,0.95
2020-05-16 12:48:48.913 -0400,11457.05601925,1.520431518554688,0.810791015625,-0.5610809326171875,1,0.95
2020-05-16 12:48:49.033 -0400,11457.17574625,0.8267364501953125,0.1221923828125,-0.3511199951171875,1,0.95
2020-05-16 12:48:49.153 -0400,11457.29547725,0.4947052001953125,0.69598388671875,-0.2546234130859375,1,0.95
2020-05-16 12:48:49.272 -0400,11457.41520525,1.05523681640625,0.7550811767578125,-0.3924713134765625,1,0.95
2020-05-16 12:48:49.392 -0400,11457.53492625,1.241973876953125,0.5908203125,-0.393524169921875,1,0.95
2020-05-16 12:48:49.512 -0400,11457.65465525,1.518966674804688,0.5329742431640625,-0.1768798828125,1,0.95
2020-05-16 12:48:49.631 -0400,11457.77438025,0.6182708740234375,0.3054046630859375,-0.0293121337890625,1,0.95
2020-05-16 12:48:49.751 -0400,11457.894107875,0.734619140625,0.2876739501953125,0.0200347900390625,1,0.95
2020-05-16 12:48:49.871 -0400,11458.013832875,0.898345947265625,0.2083587646484375,0.0106658935546875,1,0.95
2020-05-16 12:48:49.990 -0400,11458.133564875,1.04791259765625,0.6183319091796875,-0.477386474609375,1,0.95
2020-05-16 12:48:50.110 -0400,11458.253291875,0.75250244140625,0.2148590087890625,-0.423919677734375,1,0.95
2020-05-16 12:48:50.230 -0400,11458.373008875,0.6537017822265625,0.5829315185546875,-0.43927001953125,1,0.95
2020-05-16 12:48:50.350 -0400,11458.492727875,0.996734619140625,0.62908935546875,-0.675567626953125,1,0.95
2020-05-16 12:48:50.469 -0400,11458.612450875,1.457931518554688,0.4658203125,-0.55023193359375,1,0.95
2020-05-16 12:48:50.589 -0400,11458.732172875,1.629501342773438,0.3797454833984375,-0.0792236328125,1,0.95
2020-05-16 12:48:50.709 -0400,11458.851899625,0.5767822265625,0.3422393798828125,-0.0465545654296875,1,0.95
2020-05-16 12:48:50.829 -0400,11458.971626625,0.6789703369140625,0.19464111328125,0.04095458984375,1,0.95
2020-05-16 12:48:50.948 -0400,11459.091353625,0.5996551513671875,0.2507781982421875,-0.0777435302734375,1,0.95
2020-05-16 12:48:51.068 -0400,11459.211083625,1.101806640625,0.729400634765625,-0.37713623046875,1,0.95
2020-05-16 12:48:51.188 -0400,11459.330808625,1.083724975585938,0.577545166015625,-0.5894622802734375,1,0.95
2020-05-16 12:48:51.313 -0400,11459.450532625,0.4557952880859375,0.5401763916015625,-0.2420806884765625,1,0.95
2020-05-16 12:48:51.427 -0400,11459.570259625,0.8633575439453125,0.91082763671875,-0.45037841796875,1,0.95
2020-05-16 12:48:51.548 -0400,11459.689978625,1.653549194335938,0.597137451171875,-0.4244537353515625,1,0.95
2020-05-16 12:48:51.667 -0400,11459.809699625,1.816253662109375,0.429107666015625,-0.202972412109375,1,0.95
2020-05-16 12:48:51.786 -0400,11459.929418625,0.630035400390625,0.283843994140625,-0.1063079833984375,1,0.95
2020-05-16 12:48:51.906 -0400,11460.049143625,0.5558929443359375,0.245513916015625,0.015167236328125,1,0.95
2020-05-16 12:48:52.026 -0400,11460.168865625,0.7127227783203125,0.1530609130859375,0.015716552734375,1,0.95
2020-05-16 12:48:52.146 -0400,11460.288591625,1.191757202148438,0.50836181640625,-0.2287445068359375,1,0.95
2020-05-16 12:48:52.265 -0400,11460.408314625,1.379425048828125,0.502532958984375,-0.3669891357421875,1,0.95
2020-05-16 12:48:52.385 -0400,11460.528032625,0.6778106689453125,0.4535980224609375,-0.33660888671875,1,0.95
2020-05-16 12:48:52.505 -0400,11460.647744625,0.70965576171875,0.78082275390625,-0.4384918212890625,1,0.95
2020-05-16 12:48:52.624 -0400,11460.767468625,1.89752197265625,1.300735473632812,-0.5425872802734375,1,0.95
2020-05-16 12:48:52.744 -0400,11460.887190625,2.1346435546875,0.41217041015625,-0.159820556640625,1,0.95
2020-05-16 12:48:52.864 -0400,11461.006917625,0.8927154541015625,0.2979888916015625,-0.0691986083984375,1,0.95
2020-05-16 12:48:52.984 -0400,11461.126645625,0.5632171630859375,0.0889739990234375,0.0670928955078125,1,0.95
2020-05-16 12:48:53.103 -0400,11461.246374625,0.5168609619140625,0.1318817138671875,0.030609130859375,1,0.95
2020-05-16 12:48:53.223 -0400,11461.366092625,1.120071411132812,0.9912567138671875,-0.429656982421875,1,0.95
2020-05-16 12:48:53.344 -0400,11461.485807625,1.30096435546875,0.59295654296875,-0.6673583984375,1,0.95
2020-05-16 12:48:53.462 -0400,11461.605531625,0.630889892578125,0.357574462890625,-0.3301239013671875,1,0.95
2020-05-16 12:48:53.582 -0400,11461.725260625,0.677734375,0.8432464599609375,-0.40277099609375,1,0.95
2020-05-16 12:48:53.702 -0400,11461.844988875,1.71392822265625,0.7277679443359375,-0.580291748046875,1,0.95
2020-05-16 12:48:53.822 -0400,11461.964722875,1.91998291015625,0.27911376953125,-0.05316162109375,1,0.95
2020-05-16 12:48:53.941 -0400,11462.084450875,0.7291259765625,0.337860107421875,-0.130523681640625,1,0.95
2020-05-16 12:48:54.061 -0400,11462.204181875,0.4775543212890625,0.1472015380859375,0.019073486328125,1,0.95
2020-05-16 12:48:54.181 -0400,11462.323915875,0.4547882080078125,0.11968994140625,0.019134521484375,1,0.95
2020-05-16 12:48:54.301 -0400,11462.443639875,1.369277954101562,1.408065795898438,-0.620819091796875,1,0.95
2020-05-16 12:48:54.420 -0400,11462.563358875,1.19287109375,0.3105316162109375,-0.442626953125,1,0.95
2020-05-16 12:48:54.540 -0400,11462.683086875,0.34368896484375,0.53875732421875,-0.1911773681640625,1,0.95
2020-05-16 12:48:54.660 -0400,11462.802810875,0.722076416015625,0.78863525390625,-0.3492431640625,1,0.95
2020-05-16 12:48:54.779 -0400,11462.922539625,1.191818237304688,0.3734130859375,-0.2349853515625,1,0.95
2020-05-16 12:48:54.899 -0400,11463.042267625,1.594039916992188,0.6456451416015625,-0.3643798828125,1,0.95
2020-05-16 12:48:55.019 -0400,11463.161999625,0.7918701171875,0.1727752685546875,-0.2775115966796875,1,0.95
2020-05-16 12:48:55.139 -0400,11463.281729625,0.42669677734375,0.24493408203125,-0.0838470458984375,1,0.95
2020-05-16 12:48:55.258 -0400,11463.401458625,0.7466888427734375,0.21990966796875,-0.086822509765625,1,0.95
2020-05-16 12:48:55.378 -0400,11463.521188625,1.171722412109375,0.55035400390625,-0.219390869140625,1,0.95
2020-05-16 12:48:55.498 -0400,11463.640914625,1.293670654296875,0.807037353515625,-0.5071868896484375,1,0.95
2020-05-16 12:48:55.618 -0400,11463.760638625,0.5791473388671875,0.40338134765625,-0.2070465087890625,1,0.95
2020-05-16 12:48:55.737 -0400,11463.88036054167,0.4680633544921875,0.6845703125,-0.40087890625,1,0.95
2020-05-16 12:48:55.857 -0400,11464.00008754167,1.403564453125,0.5002288818359375,-0.2577972412109375,1,0.95
2020-05-16 12:48:55.977 -0400,11464.11981354167,1.818496704101562,0.4896240234375,-0.1910400390625,1,0.95
2020-05-16 12:48:56.096 -0400,11464.23954454167,0.67950439453125,0.2783355712890625,-0.1983795166015625,1,0.95
2020-05-16 12:48:56.216 -0400,11464.35927054167,0.51995849609375,0.230438232421875,-0.005126953125,1,0.95
2020-05-16 12:48:56.336 -0400,11464.47899954167,0.6711578369140625,0.1645660400390625,0.0327606201171875,1,0.95
2020-05-16 12:48:56.456 -0400,11464.59872554167,1.588150024414062,0.517242431640625,-0.28173828125,1,0.95
2020-05-16 12:48:56.575 -0400,11464.71845054167,1.110122680664062,0.3174591064453125,-0.423553466796875,1,0.95
2020-05-16 12:48:56.695 -0400,11464.83818154167,0.3595123291015625,0.9875640869140625,-0.413055419921875,1,0.95
2020-05-16 12:48:56.815 -0400,11464.957907125,0.952789306640625,0.417205810546875,-0.4393310546875,1,0.95
2020-05-16 12:48:56.935 -0400,11465.077633125,1.66314697265625,0.6310577392578125,-0.4749298095703125,1,0.95
2020-05-16 12:48:57.004 -0400,11465.147473125,1.502899169921875,0.5852813720703125,-0.3762054443359375,1,0.95
2020-05-16 12:48:57.074 -0400,11465.217317125,1.541961669921875,0.424560546875,-0.1809844970703125,1,0.95
2020-05-16 12:48:57.144 -0400,11465.287161125,0.832244873046875,0.2480010986328125,-0.2347869873046875,1,0.95
2020-05-16 12:48:57.215 -0400,11465.357001125,0.56317138671875,0.267120361328125,-0.1528778076171875,1,0.95
2020-05-16 12:48:57.284 -0400,11465.426843125,0.6830291748046875,0.1971435546875,-0.1227264404296875,1,0.95
2020-05-16 12:48:57.354 -0400,11465.496684125,0.7353668212890625,0.0923919677734375,-0.091583251953125,1,0.95
2020-05-16 12:48:57.423 -0400,11465.566528125,0.54193115234375,0.2124176025390625,-0.104827880859375,1,0.95
2020-05-16 12:48:57.493 -0400,11465.636371125,0.791900634765625,0.6302490234375,-0.3483428955078125,1,0.95
2020-05-16 12:48:57.563 -0400,11465.706213125,1.300949096679688,0.76788330078125,-0.6699676513671875,1,0.95
2020-05-16 12:48:57.633 -0400,11465.776054125,1.449325561523438,0.4201202392578125,-0.49871826171875,1,0.95
2020-05-16 12:48:57.703 -0400,11465.845898125,0.687164306640625,0.1898345947265625,-0.3710479736328125,1,0.95
2020-05-16 12:48:57.773 -0400,11465.915741125,0.4585113525390625,0.5034332275390625,-0.2321014404296875,1,0.95
2020-05-16 12:48:57.843 -0400,11465.985589125,0.5658416748046875,0.7852020263671875,-0.262908935546875,1,0.95
2020-05-16 12:48:57.912 -0400,11466.055436125,0.8580322265625,0.62652587890625,-0.391571044921875,1,0.95
2020-05-16 12:48:57.982 -0400,11466.125282125,1.177703857421875,0.3572540283203125,-0.2990264892578125,1,0.95
2020-05-16 12:48:58.052 -0400,11466.195124125,1.221206665039062,0.6094207763671875,-0.4745330810546875,1,0.95
2020-05-16 12:48:58.122 -0400,11466.264969125,1.878021240234375,0.5171966552734375,-0.1701507568359375,1,0.95
2020-05-16 12:48:58.192 -0400,11466.334813125,1.045989990234375,0.0876007080078125,-0.3075408935546875,1,0.95
2020-05-16 12:48:58.262 -0400,11466.404657125,0.487152099609375,0.285125732421875,-0.218841552734375,1,0.95
2020-05-16 12:48:58.331 -0400,11466.474505125,0.48358154296875,0.247222900390625,-0.0796051025390625,1,0.95
2020-05-16 12:48:58.401 -0400,11466.544348125,0.511810302734375,0.1106109619140625,-0.0348358154296875,1,0.95
2020-05-16 12:48:58.471 -0400,11466.614192125,0.5862274169921875,0.1954345703125,0.0590667724609375,1,0.95
2020-05-16 12:48:58.541 -0400,11466.684035125,0.7495574951171875,0.6981048583984375,-0.2270660400390625,1,0.95
2020-05-16 12:48:58.611 -0400,11466.753879125,1.529266357421875,0.937774658203125,-0.5135040283203125,1,0.95
2020-05-16 12:48:58.681 -0400,11466.823717125,1.681243896484375,0.5117950439453125,-0.5186767578125,1,0.95
2020-05-16 12:48:58.751 -0400,11466.89355766667,0.7176055908203125,-0.0113067626953125,-0.34356689453125,1,0.95
2020-05-16 12:48:58.820 -0400,11466.96339866667,0.2850341796875,0.242828369140625,-0.1321563720703125,1,0.95
2020-05-16 12:48:58.890 -0400,11467.03323766667,0.1333465576171875,0.5637359619140625,-0.1294097900390625,1,0.95
2020-05-16 12:48:58.960 -0400,11467.10307666667,0.4259490966796875,0.680755615234375,-0.239715576171875,1,0.95
2020-05-16 12:48:59.030 -0400,11467.17291466667,1.332351684570312,0.962432861328125,-0.4009246826171875,1,0.95
2020-05-16 12:48:59.100 -0400,11467.24275566667,1.280975341796875,0.384735107421875,-0.357269287109375,1,0.95
2020-05-16 12:48:59.170 -0400,11467.31259566667,1.662338256835938,0.8515472412109375,-0.5078887939453125,1,0.95
2020-05-16 12:48:59.239 -0400,11467.38243666667,1.605911254882812,0.4765167236328125,-0.1591339111328125,1,0.95
2020-05-16 12:48:59.315 -0400,11467.45227566667,0.64715576171875,0.180816650390625,-0.276763916015625,1,0.95
2020-05-16 12:48:59.379 -0400,11467.52211966667,0.3751373291015625,0.3348388671875,-0.127227783203125,1,0.95
2020-05-16 12:48:59.449 -0400,11467.59195766667,0.407440185546875,0.252197265625,-0.072845458984375,1,0.95
2020-05-16 12:48:59.519 -0400,11467.66179766667,0.6078033447265625,0.1741485595703125,-0.0948333740234375,1,0.95
2020-05-16 12:48:59.589 -0400,11467.73163966667,0.732177734375,0.2457733154296875,-0.1076812744140625,1,0.95
2020-05-16 12:48:59.658 -0400,11467.80147966667,1.317108154296875,0.5107879638671875,-0.1903839111328125,1,0.95
2020-05-16 12:48:59.728 -0400,11467.87131904167,1.656051635742188,0.6167449951171875,-0.442413330078125,1,0.95
2020-05-16 12:48:59.798 -0400,11467.94116104167,1.101959228515625,0.6043243408203125,-0.367584228515625,1,0.95
2020-05-16 12:48:59.868 -0400,11468.01100104167,0.5262298583984375,0.0481719970703125,-0.3977508544921875,1,0.95
2020-05-16 12:48:59.938 -0400,11468.08084304167,0.436187744140625,0.332275390625,-0.201873779296875,1,0.95
2020-05-16 12:49:00.008 -0400,11468.15067804167,0.5427093505859375,0.7002410888671875,-0.322967529296875,1,0.95
2020-05-16 12:49:00.077 -0400,11468.22051704167,1.12847900390625,0.6564483642578125,-0.301544189453125,1,0.95
2020-05-16 12:49:00.147 -0400,11468.29036004167,1.88177490234375,0.6587982177734375,-0.55084228515625,1,0.95
2020-05-16 12:49:00.218 -0400,11468.36020004167,1.669189453125,0.6186065673828125,-0.393798828125,1,0.95
2020-05-16 12:49:00.287 -0400,11468.43004204167,1.675003051757812,0.248687744140625,-0.1292572021484375,1,0.95
2020-05-16 12:49:00.357 -0400,11468.49988604167,0.71630859375,0.28851318359375,-0.3231353759765625,1,0.95
2020-05-16 12:49:00.427 -0400,11468.56972804167,0.459991455078125,0.272796630859375,-0.138824462890625,1,0.95
2020-05-16 12:49:00.496 -0400,11468.63956904167,0.373260498046875,0.1700897216796875,-0.0418243408203125,1,0.95
2020-05-16 12:49:00.566 -0400,11468.70941504167,0.558746337890625,0.1755523681640625,-0.06854248046875,1,0.95
2020-05-16 12:49:00.636 -0400,11468.77926204167,0.7998809814453125,0.2806243896484375,-0.1185455322265625,1,0.95
2020-05-16 12:49:00.706 -0400,11468.84910604167,1.351242065429688,0.412811279296875,-0.1522216796875,1,0.95
2020-05-16 12:49:00.776 -0400,11468.91895141667,1.966400146484375,0.7678375244140625,-0.59783935546875,1,0.95
2020-05-16 12:49:00.846 -0400,11468.98879541667,1.2081298828125,0.645172119140625,-0.342071533203125,1,0.95
2020-05-16 12:49:00.916 -0400,11469.05863741667,0.689453125,0.254974365234375,-0.1440582275390625,1,0.95
2020-05-16 12:49:00.985 -0400,11469.12847941667,0.586334228515625,0.5716705322265625,-0.1206512451171875,1,0.95
2020-05-16 12:49:01.055 -0400,11469.19832341667,0.597564697265625,0.8537139892578125,-0.3545684814453125,1,0.95
2020-05-16 12:49:01.125 -0400,11469.26816341667,0.864501953125,0.72283935546875,-0.362274169921875,1,0.95
2020-05-16 12:49:01.195 -0400,11469.33800541667,1.766876220703125,0.5241851806640625,-0.3692169189453125,1,0.95
2020-05-16 12:49:01.265 -0400,11469.40784841667,1.462936401367188,0.591522216796875,-0.5170440673828125,1,0.95
2020-05-16 12:49:01.335 -0400,11469.47769141667,1.774337768554688,0.421051025390625,-0.136138916015625,1,0.95
2020-05-16 12:49:01.404 -0400,11469.54753541667,1.084564208984375,0.3352813720703125,-0.18292236328125,1,0.95
2020-05-16 12:49:01.474 -0400,11469.61738241667,0.571990966796875,0.2288360595703125,-0.0023040771484375,1,0.95
2020-05-16 12:49:01.544 -0400,11469.68722941667,0.4953155517578125,0.2524261474609375,0.0325469970703125,1,0.95
2020-05-16 12:49:01.614 -0400,11469.75708041667,0.6951904296875,0.1898651123046875,0.04461669921875,1,0.95
2020-05-16 12:49:01.684 -0400,11469.82693041667,0.7772216796875,0.2709503173828125,0.0552215576171875,1,0.95
2020-05-16 12:49:01.754 -0400,11469.896777625,1.143936157226562,0.54608154296875,-0.168975830078125,1,0.95
2020-05-16 12:49:01.824 -0400,11469.966624625,1.326400756835938,0.6476287841796875,-0.5092010498046875,1,0.95
2020-05-16 12:49:01.894 -0400,11470.036471625,1.499969482421875,0.5425262451171875,-0.407745361328125,1,0.95
2020-05-16 12:49:01.964 -0400,11470.106322625,0.7189483642578125,0.3058319091796875,-0.4259490966796875,1,0.95
2020-05-16 12:49:02.033 -0400,11470.176175625,0.5253143310546875,0.4310150146484375,-0.320953369140625,1,0.95
2020-05-16 12:49:02.103 -0400,11470.246024625,0.657958984375,0.6762237548828125,-0.2649078369140625,1,0.95
2020-05-16 12:49:02.173 -0400,11470.315872625,1.174758911132812,0.8887176513671875,-0.4248504638671875,1,0.95
2020-05-16 12:49:02.243 -0400,11470.385724625,1.269378662109375,0.619964599609375,-0.372772216796875,1,0.95
2020-05-16 12:49:02.313 -0400,11470.455574625,1.345474243164062,0.711212158203125,-0.4016876220703125,1,0.95
2020-05-16 12:49:02.382 -0400,11470.525420625,1.58758544921875,0.4725799560546875,-0.2768402099609375,1,0.95
2020-05-16 12:49:02.452 -0400,11470.595267625,0.899169921875,0.2997589111328125,-0.3802642822265625,1,0.95
2020-05-16 12:49:02.522 -0400,11470.665116625,0.505523681640625,0.29180908203125,-0.2055816650390625,1,0.95
2020-05-16 12:49:02.592 -0400,11470.734966625,0.5702667236328125,0.25341796875,-0.0816497802734375,1,0.95
2020-05-16 12:49:02.662 -0400,11470.804813625,0.817535400390625,0.291412353515625,-0.1093902587890625,1,0.95
2020-05-16 12:49:02.732 -0400,11470.874662375,0.9153900146484375,0.255706787109375,-0.089202880859375,1,0.95
2020-05-16 12:49:02.801 -0400,11470.944505375,1.091964721679688,0.35968017578125,-0.1552734375,1,0.95
2020-05-16 12:49:02.871 -0400,11471.014353375,1.11895751953125,0.4579010009765625,-0.4093170166015625,1,0.95
2020-05-16 12:49:02.941 -0400,11471.084201375,1.427322387695312,0.436309814453125,-0.34661865234375,1,0.95
2020-05-16 12:49:03.011 -0400,11471.154048375,0.70196533203125,0.2701416015625,-0.372283935546875,1,0.95
2020-05-16 12:49:03.081 -0400,11471.223896375,0.624267578125,0.5271453857421875,-0.31634521484375,1,0.95
2020-05-16 12:49:03.151 -0400,11471.293745375,0.7871856689453125,0.63134765625,-0.346435546875,1,0.95
2020-05-16 12:49:03.221 -0400,11471.363597375,1.046157836914062,0.7752685546875,-0.573333740234375,1,0.95
2020-05-16 12:49:03.290 -0400,11471.433441375,1.820816040039062,1.134902954101562,-0.6570892333984375,1,0.95
2020-05-16 12:49:03.360 -0400,11471.503284375,1.434860229492188,0.2226409912109375,-0.3910369873046875,1,0.95
2020-05-16 12:49:03.430 -0400,11471.573128375,1.481674194335938,0.343170166015625,-0.2624053955078125,1,0.95
2020-05-16 12:49:03.500 -0400,11471.642974375,1.065399169921875,0.45721435546875,-0.255859375,1,0.95
2020-05-16 12:49:03.570 -0400,11471.712818375,0.6168060302734375,0.255889892578125,-0.007354736328125,1,0.95
2020-05-16 12:49:03.640 -0400,11471.782663375,0.437347412109375,0.24188232421875,0.0526580810546875,1,0.95
2020-05-16 12:49:03.709 -0400,11471.852508375,0.74981689453125,0.2613525390625,0.044525146484375,1,0.95
2020-05-16 12:49:03.779 -0400,11471.92235525,0.963531494140625,0.297119140625,0.0275726318359375,1,0.95
2020-05-16 12:49:03.849 -0400,11471.99220025,1.135284423828125,0.3974761962890625,-0.060211181640625,1,0.95
2020-05-16 12:49:03.919 -0400,11472.06204325,1.00616455078125,0.478179931640625,-0.3946990966796875,1,0.95
2020-05-16 12:49:03.989 -0400,11472.13188925,1.695098876953125,0.34893798828125,-0.4455413818359375,1,0.95
2020-05-16 12:49:04.059 -0400,11472.20173625,0.8988189697265625,0.2790679931640625,-0.6203155517578125,1,0.95
2020-05-16 12:49:04.129 -0400,11472.27157825,0.33966064453125,0.3884124755859375,-0.5063629150390625,1,0.95
2020-05-16 12:49:04.198 -0400,11472.34141925,0.520416259765625,0.71746826171875,-0.45654296875,1,0.95
2020-05-16 12:49:04.268 -0400,11472.41126425,1.0455322265625,0.72125244140625,-0.5930633544921875,1,0.95
2020-05-16 12:49:04.338 -0400,11472.48111025,1.140655517578125,0.138671875,-0.3634033203125,1,0.95
2020-05-16 12:49:04.408 -0400,11472.55095425,1.254241943359375,0.53179931640625,-0.243255615234375,1,0.95
2020-05-16 12:49:04.478 -0400,11472.62080225,1.3935546875,0.79168701171875,-0.2890777587890625,1,0.95
2020-05-16 12:49:04.548 -0400,11472.69064925,1.499862670898438,0.368621826171875,-0.1388702392578125,1,0.95
2020-05-16 12:49:04.618 -0400,11472.76049925,0.8098602294921875,0.15869140625,-0.18212890625,1,0.95
2020-05-16 12:49:04.687 -0400,11472.83035325,0.597869873046875,0.3227386474609375,-0.157562255859375,1,0.95
2020-05-16 12:49:04.757 -0400,11472.900200125,0.7390289306640625,0.2523651123046875,-0.1183319091796875,1,0.95
2020-05-16 12:49:04.827 -0400,11472.970049125,0.8707275390625,0.2259521484375,-0.163665771484375,1,0.95
2020-05-16 12:49:04.897 -0400,11473.039896125,0.9012451171875,0.1685638427734375,-0.0991058349609375,1,0.95
2020-05-16 12:49:04.967 -0400,11473.109745125,1.296249389648438,0.5948333740234375,-0.0752716064453125,1,0.95
2020-05-16 12:49:05.037 -0400,11473.179593125,1.465423583984375,0.7242889404296875,-0.638763427734375,1,0.95
2020-05-16 12:49:05.107 -0400,11473.249439125,0.789459228515625,0.304534912109375,-0.3807373046875,1,0.95
2020-05-16 12:49:05.176 -0400,11473.319282125,0.4671630859375,0.2935028076171875,-0.1571044921875,1,0.95
2020-05-16 12:49:05.246 -0400,11473.389123125,0.4852294921875,0.6024932861328125,-0.109161376953125,1,0.95
2020-05-16 12:49:05.316 -0400,11473.458962125,0.9508209228515625,0.7846221923828125,-0.3529510498046875,1,0.95
2020-05-16 12:49:05.386 -0400,11473.528799125,0.9857635498046875,0.62188720703125,-0.4123687744140625,1,0.95
2020-05-16 12:49:05.456 -0400,11473.598637125,1.9205322265625,1.130172729492188,-0.7530059814453125,1,0.95
2020-05-16 12:49:05.526 -0400,11473.668476125,1.874969482421875,0.3473968505859375,-0.3147735595703125,1,0.95
2020-05-16 12:49:05.595 -0400,11473.738318125,1.878036499023438,-0.028411865234375,-0.0935211181640625,1,0.95
2020-05-16 12:49:05.665 -0400,11473.808163125,0.8535919189453125,0.43707275390625,-0.326507568359375,1,0.95
2020-05-16 12:49:05.735 -0400,11473.87800875,0.5279541015625,0.2884674072265625,-0.0623779296875,1,0.95
2020-05-16 12:49:05.805 -0400,11473.94785575,0.4013671875,0.104766845703125,0.0620880126953125,1,0.95
2020-05-16 12:49:05.875 -0400,11474.01770075,0.471160888671875,0.09246826171875,0.00506591796875,1,0.95
2020-05-16 12:49:05.944 -0400,11474.08754275,0.6644287109375,0.312408447265625,-0.0453643798828125,1,0.95
2020-05-16 12:49:06.014 -0400,11474.15738875,1.08074951171875,0.7516021728515625,-0.1139373779296875,1,0.95
2020-05-16 12:49:06.084 -0400,11474.22723575,1.194534301757812,0.99969482421875,-0.6603546142578125,1,0.95
2020-05-16 12:49:06.154 -0400,11474.29708175,1.746337890625,0.8386688232421875,-0.4000244140625,1,0.95
2020-05-16 12:49:06.224 -0400,11474.36693175,0.681884765625,0.4285125732421875,-0.3769989013671875,1,0.95
2020-05-16 12:49:06.294 -0400,11474.43678275,0.369781494140625,0.356964111328125,-0.2290191650390625,1,0.95
2020-05-16 12:49:06.364 -0400,11474.50663375,0.5981597900390625,0.532379150390625,-0.183990478515625,1,0.95
2020-05-16 12:49:06.434 -0400,11474.57648475,0.9314422607421875,0.78778076171875,-0.4082183837890625,1,0.95
2020-05-16 12:49:06.503 -0400,11474.64633475,1.054763793945312,0.6556243896484375,-0.3809967041015625,1,0.95
2020-05-16 12:49:06.573 -0400,11474.71618675,1.782470703125,0.7105865478515625,-0.5916748046875,1,0.95
2020-05-16 12:49:06.643 -0400,11474.78603275,1.772674560546875,0.325592041015625,-0.170318603515625,1,0.95
2020-05-16 12:49:06.713 -0400,11474.85587875,1.315109252929688,0.36785888671875,-0.222259521484375,1,0.95
2020-05-16 12:49:06.783 -0400,11474.9257215,0.5868682861328125,0.3448333740234375,-0.1670989990234375,1,0.95
2020-05-16 12:49:06.853 -0400,11474.9955655,0.3681640625,0.2782745361328125,0.011199951171875,1,0.95
2020-05-16 12:49:06.922 -0400,11475.0654105,0.3822174072265625,0.1656646728515625,0.0235748291015625,1,0.95
2020-05-16 12:49:06.992 -0400,11475.1352545,0.8276214599609375,0.2475128173828125,-0.008880615234375,1,0.95
2020-05-16 12:49:07.062 -0400,11475.2051005,0.86181640625,0.3684844970703125,-0.1549072265625,1,0.95
2020-05-16 12:49:07.132 -0400,11475.2749465,1.15472412109375,0.6494140625,-0.229583740234375,1,0.95
2020-05-16 12:49:07.202 -0400,11475.3447925,1.723236083984375,0.6671295166015625,-0.5366058349609375,1,0.95
2020-05-16 12:49:07.272 -0400,11475.4146385,1.07122802734375,0.3856964111328125,-0.3826751708984375,1,0.95
2020-05-16 12:49:07.342 -0400,11475.4844845,0.5401611328125,0.2842559814453125,-0.308685302734375,1,0.95
2020-05-16 12:49:07.411 -0400,11475.5543255,0.5181884765625,0.5871124267578125,-0.2377166748046875,1,0.95
2020-05-16 12:49:07.481 -0400,11475.6241695,0.839385986328125,0.779083251953125,-0.350830078125,1,0.95
2020-05-16 12:49:07.551 -0400,11475.6940125,1.2227783203125,0.703399658203125,-0.4439697265625,1,0.95
2020-05-16 12:49:07.621 -0400,11475.7638535,1.3580322265625,0.6666412353515625,-0.4993133544921875,1,0.95
2020-05-16 12:49:07.691 -0400,11475.8336985,1.540802001953125,0.5499114990234375,-0.2658538818359375,1,0.95
2020-05-16 12:49:07.760 -0400,11475.903541375,1.295623779296875,0.3367767333984375,-0.2243194580078125,1,0.95
2020-05-16 12:49:07.830 -0400,11475.973386375,0.599945068359375,0.3368988037109375,-0.2672882080078125,1,0.95
2020-05-16 12:49:07.900 -0400,11476.043227375,0.4482421875,0.315399169921875,-0.056488037109375,1,0.95
2020-05-16 12:49:07.970 -0400,11476.113070375,0.71807861328125,0.26837158203125,-0.042938232421875,1,0.95
2020-05-16 12:49:08.040 -0400,11476.182910375,1.072738647460938,0.2288055419921875,0.0174560546875,1,0.95
2020-05-16 12:49:08.110 -0400,11476.252751375,0.8201446533203125,0.2435302734375,-0.065765380859375,1,0.95
2020-05-16 12:49:08.179 -0400,11476.322591375,1.16497802734375,0.4851837158203125,-0.04791259765625,1,0.95
2020-05-16 12:49:08.252 -0400,11476.392435375,1.586257934570312,0.644287109375,-0.3035888671875,1,0.95
2020-05-16 12:49:08.319 -0400,11476.462277375,0.8809356689453125,0.90570068359375,-0.2636260986328125,1,0.95
2020-05-16 12:49:08.389 -0400,11476.532121375,0.8565521240234375,0.3846588134765625,0.3895721435546875,1,0.95
2020-05-16 12:49:08.459 -0400,11476.601965375,0.929412841796875,-0.53753662109375,-0.7454071044921875,1,0.95
2020-05-16 12:49:08.529 -0400,11476.671803375,1.108627319335938,-0.662841796875,-0.6910552978515625,1,0.95
2020-05-16 12:49:08.599 -0400,11476.741641375,1.305206298828125,-0.3861083984375,-0.690277099609375,1,0.95
2020-05-16 12:49:08.668 -0400,11476.811481375,1.62127685546875,0.4246978759765625,-0.5659942626953125,1,0.95
2020-05-16 12:49:08.738 -0400,11476.88132066667,1.566360473632812,0.59326171875,-0.3943328857421875,1,0.95
2020-05-16 12:49:08.808 -0400,11476.95116066667,0.99224853515625,0.6888275146484375,0.2420196533203125,1,0.95
2020-05-16 12:49:08.878 -0400,11477.02099866667,0.6463470458984375,0.0631561279296875,-0.402191162109375,1,0.95
2020-05-16 12:49:08.948 -0400,11477.09084466667,0.3821868896484375,0.1167449951171875,-0.6240692138671875,1,0.95
2020-05-16 12:49:09.018 -0400,11477.16068866667,0.728485107421875,0.118072509765625,-0.434173583984375,1,0.95
2020-05-16 12:49:09.089 -0400,11477.23053666667,1.212677001953125,0.025726318359375,0.3759765625,1,0.95
2020-05-16 12:49:09.157 -0400,11477.30037766667,0.894775390625,0.697784423828125,0.2486572265625,1,0.95
2020-05-16 12:49:09.227 -0400,11477.37021666667,1.314727783203125,1.063491821289062,-0.93701171875,1,0.95
2020-05-16 12:49:09.297 -0400,11477.44005666667,1.25067138671875,0.76385498046875,0.057861328125,1,0.95
2020-05-16 12:49:09.367 -0400,11477.50989966667,0.562530517578125,-0.22705078125,-0.0273590087890625,1,0.95
2020-05-16 12:49:09.437 -0400,11477.57973766667,0.2422027587890625,0.2555999755859375,-0.1966552734375,1,0.95
2020-05-16 12:49:09.507 -0400,11477.64957966667,0.4453887939453125,0.744140625,-0.2801361083984375,1,0.95
2020-05-16 12:49:09.576 -0400,11477.71942066667,1.092819213867188,0.62615966796875,-0.4649658203125,1,0.95
2020-05-16 12:49:09.646 -0400,11477.78926266667,1.408706665039062,0.7175750732421875,-0.4920501708984375,1,0.95
2020-05-16 12:49:09.716 -0400,11477.85910566667,1.45538330078125,0.49359130859375,-0.351806640625,1,0.95
2020-05-16 12:49:09.786 -0400,11477.928945875,1.44219970703125,0.4138031005859375,-0.2567596435546875,1,0.95
2020-05-16 12:49:09.856 -0400,11477.998785875,0.920867919921875,0.3672637939453125,-0.31097412109375,1,0.95
2020-05-16 12:49:09.926 -0400,11478.068621875,0.43743896484375,0.317413330078125,-0.1906280517578125,1,0.95
2020-05-16 12:49:09.995 -0400,11478.138458875,0.506805419921875,0.31927490234375,-0.0250244140625,1,0.95
2020-05-16 12:49:10.065 -0400,11478.208295875,0.6721649169921875,0.2354583740234375,-0.0447845458984375,1,0.95
2020-05-16 12:49:10.135 -0400,11478.278129875,0.9041900634765625,0.280609130859375,0.0394287109375,1,0.95
2020-05-16 12:49:10.205 -0400,11478.347964875,1.162887573242188,0.4025421142578125,0.0396881103515625,1,0.95
2020-05-16 12:49:10.275 -0400,11478.417802875,1.403060913085938,1.000198364257812,-0.4305267333984375,1,0.95
2020-05-16 12:49:10.345 -0400,11478.487636875,1.374313354492188,0.34906005859375,-0.303558349609375,1,0.95
2020-05-16 12:49:10.415 -0400,11478.557472875,0.5671844482421875,0.0017852783203125,-0.3612213134765625,1,0.95
2020-05-16 12:49:10.484 -0400,11478.627308875,0.31591796875,0.2677459716796875,-0.1804351806640625,1,0.95
2020-05-16 12:49:10.554 -0400,11478.697144875,0.39483642578125,0.7368621826171875,-0.1290740966796875,1,0.95
2020-05-16 12:49:10.624 -0400,11478.766979875,0.963714599609375,0.5237884521484375,-0.4130706787109375,1,0.95
2020-05-16 12:49:10.694 -0400,11478.836816875,1.328445434570312,0.6310577392578125,-0.4033050537109375,1,0.95
2020-05-16 12:49:10.764 -0400,11478.90665241667,1.39373779296875,0.450531005859375,-0.2717742919921875,1,0.95
2020-05-16 12:49:10.833 -0400,11478.97648841667,1.580612182617188,0.5677947998046875,-0.1788482666015625,1,0.95
2020-05-16 12:49:10.903 -0400,11479.04632741667,0.95074462890625,0.296966552734375,-0.28485107421875,1,0.95
2020-05-16 12:49:10.973 -0400,11479.11616741667,0.438323974609375,0.3643798828125,-0.158477783203125,1,0.95
2020-05-16 12:49:11.043 -0400,11479.18600541667,0.4592437744140625,0.33502197265625,-0.0080718994140625,1,0.95
2020-05-16 12:49:11.113 -0400,11479.25584641667,0.57586669921875,0.209075927734375,-0.002471923828125,1,0.95
2020-05-16 12:49:11.183 -0400,11479.32568741667,0.9357757568359375,0.308837890625,0.0334320068359375,1,0.95
2020-05-16 12:49:11.253 -0400,11479.39552541667,1.159820556640625,0.39349365234375,0.008575439453125,1,0.95
2020-05-16 12:49:11.322 -0400,11479.46536341667,1.349655151367188,0.6789398193359375,-0.4168243408203125,1,0.95
2020-05-16 12:49:11.392 -0400,11479.53519841667,1.516494750976562,0.528228759765625,-0.257568359375,1,0.95
2020-05-16 12:49:11.462 -0400,11479.60503341667,0.5963134765625,0.0046234130859375,-0.427337646484375,1,0.95
2020-05-16 12:49:11.532 -0400,11479.67487341667,0.3032989501953125,0.2078399658203125,-0.218597412109375,1,0.95
2020-05-16 12:49:11.601 -0400,11479.74471441667,0.3848876953125,0.5666351318359375,-0.2122650146484375,1,0.95
2020-05-16 12:49:11.672 -0400,11479.81455441667,1.1112060546875,0.712921142578125,-0.5136566162109375,1,0.95
2020-05-16 12:49:11.741 -0400,11479.88439325,1.245635986328125,0.611663818359375,-0.5960693359375,1,0.95
2020-05-16 12:49:11.811 -0400,11479.95423425,1.3577880859375,0.303497314453125,-0.3968505859375,1,0.95
2020-05-16 12:49:11.881 -0400,11480.02407825,1.72930908203125,0.5272674560546875,-0.186859130859375,1,0.95
2020-05-16 12:49:11.951 -0400,11480.09392525,1.162994384765625,0.432373046875,-0.3439483642578125,1,0.95
2020-05-16 12:49:12.021 -0400,11480.16377025,0.465484619140625,0.3119659423828125,-0.2313232421875,1,0.95
2020-05-16 12:49:12.091 -0400,11480.23361425,0.4220733642578125,0.2778167724609375,-0.0399322509765625,1,0.95
2020-05-16 12:49:12.160 -0400,11480.30345725,0.5529937744140625,0.1754302978515625,-0.029022216796875,1,0.95
2020-05-16 12:49:12.240 -0400,11480.37330225,0.7744598388671875,0.2131805419921875,0.0416259765625,1,0.95
2020-05-16 12:49:12.300 -0400,11480.44314625,0.922515869140625,0.3051910400390625,-0.023895263671875,1,0.95
2020-05-16 12:49:12.370 -0400,11480.51298925,1.358535766601562,0.6329498291015625,-0.2384796142578125,1,0.95
2020-05-16 12:49:12.440 -0400,11480.58283625,1.79248046875,0.775299072265625,-0.4202728271484375,1,0.95
2020-05-16 12:49:12.510 -0400,11480.65267925,0.72137451171875,0.1316070556640625,-0.2920074462890625,1,0.95
2020-05-16 12:49:12.579 -0400,11480.72251825,0.4977874755859375,0.1793975830078125,-0.19049072265625,1,0.95
2020-05-16 12:49:12.649 -0400,11480.79235825,0.5004119873046875,0.5994110107421875,-0.223236083984375,1,0.95
2020-05-16 12:49:12.719 -0400,11480.86220025,0.8851318359375,0.84814453125,-0.5315399169921875,1,0.95
2020-05-16 12:49:12.789 -0400,11480.9320395,1.259521484375,0.6662445068359375,-0.507354736328125,1,0.95
2020-05-16 12:49:12.859 -0400,11481.0018775,1.380523681640625,0.4637908935546875,-0.3976287841796875,1,0.95
2020-05-16 12:49:12.929 -0400,11481.0717145,1.719284057617188,0.4386444091796875,-0.207000732421875,1,0.95
2020-05-16 12:49:12.998 -0400,11481.1415495,1.16705322265625,0.4053192138671875,-0.261810302734375,1,0.95
2020-05-16 12:49:13.068 -0400,11481.2113885,0.565826416015625,0.3264312744140625,-0.0980682373046875,1,0.95
2020-05-16 12:49:13.138 -0400,11481.2812265,0.44769287109375,0.3346099853515625,0.0336761474609375,1,0.95
2020-05-16 12:49:13.208 -0400,11481.3510645,0.7812042236328125,0.27899169921875,0.030242919921875,1,0.95
2020-05-16 12:49:13.278 -0400,11481.4209055,0.9697265625,0.224609375,0.1004486083984375,1,0.95
2020-05-16 12:49:13.348 -0400,11481.4907505,1.076126098632812,0.2759552001953125,0.0258941650390625,1,0.95
2020-05-16 12:49:13.417 -0400,11481.5605935,0.8996124267578125,0.5399017333984375,-0.294921875,1,0.95
2020-05-16 12:49:13.487 -0400,11481.6304405,1.667205810546875,0.6568450927734375,-0.5743865966796875,1,0.95
2020-05-16 12:49:13.557 -0400,11481.7002825,0.7949066162109375,0.1483612060546875,-0.5683441162109375,1,0.95
2020-05-16 12:49:13.627 -0400,11481.7701265,0.4694976806640625,0.1177215576171875,-0.3361053466796875,1,0.95
2020-05-16 12:49:13.697 -0400,11481.8399675,0.550323486328125,0.4833984375,-0.1753997802734375,1,0.95
2020-05-16 12:49:13.767 -0400,11481.909810125,1.15643310546875,0.9003753662109375,-0.4785614013671875,1,0.95
2020-05-16 12:49:13.837 -0400,11481.979652125,1.014312744140625,0.659454345703125,-0.6316680908203125,1,0.95
2020-05-16 12:49:13.906 -0400,11482.049497125,1.59747314453125,0.5991058349609375,-0.4047393798828125,1,0.95
2020-05-16 12:49:13.976 -0400,11482.119337125,1.460250854492188,0.499481201171875,-0.3885955810546875,1,0.95
2020-05-16 12:49:14.046 -0400,11482.189178125,1.457733154296875,0.3629150390625,-0.3155670166015625,1,0.95
2020-05-16 12:49:14.116 -0400,11482.259019125,0.7781829833984375,0.2647552490234375,-0.264404296875,1,0.95
2020-05-16 12:49:14.186 -0400,11482.328862125,0.514007568359375,0.2963409423828125,-0.09619140625,1,0.95
2020-05-16 12:49:14.256 -0400,11482.398705125,0.4896240234375,0.2170562744140625,-0.0294647216796875,1,0.95
2020-05-16 12:49:14.326 -0400,11482.468549125,0.66973876953125,0.22418212890625,-0.0222625732421875,1,0.95
2020-05-16 12:49:14.396 -0400,11482.538388125,0.733734130859375,0.3116302490234375,0.01104736328125,1,0.95
2020-05-16 12:49:14.465 -0400,11482.608229125,1.334518432617188,0.49188232421875,-0.103363037109375,1,0.95
2020-05-16 12:49:14.535 -0400,11482.678069125,1.902542114257812,0.7073974609375,-0.5442352294921875,1,0.95
2020-05-16 12:49:14.605 -0400,11482.747912125,0.817626953125,0.220245361328125,-0.493499755859375,1,0.95
2020-05-16 12:49:14.675 -0400,11482.817756125,0.5236663818359375,0.07891845703125,-0.294647216796875,1,0.95
2020-05-16 12:49:14.745 -0400,11482.887599375,0.459930419921875,0.65667724609375,-0.1758575439453125,1,0.95
2020-05-16 12:49:14.814 -0400,11482.957444375,0.7283935546875,0.725128173828125,-0.4069366455078125,1,0.95
2020-05-16 12:49:14.884 -0400,11483.027284375,1.010787963867188,0.4860382080078125,-0.39410400390625,1,0.95
2020-05-16 12:49:14.954 -0400,11483.097129375,1.681564331054688,0.7732391357421875,-0.5237274169921875,1,0.95
2020-05-16 12:49:15.024 -0400,11483.166970375,1.470138549804688,0.4672698974609375,-0.34521484375,1,0.95
2020-05-16 12:49:15.094 -0400,11483.236812375,1.421646118164062,0.3216552734375,-0.3096160888671875,1,0.95
2020-05-16 12:49:15.164 -0400,11483.306651375,0.6574554443359375,0.2818145751953125,-0.321136474609375,1,0.95
2020-05-16 12:49:15.233 -0400,11483.376499375,0.524078369140625,0.32879638671875,-0.1408843994140625,1,0.95
2020-05-16 12:49:15.303 -0400,11483.446343375,0.623748779296875,0.2056427001953125,-0.070831298828125,1,0.95
2020-05-16 12:49:15.373 -0400,11483.516192375,0.8013458251953125,0.1420745849609375,-0.0070343017578125,1,0.95
2020-05-16 12:49:15.443 -0400,11483.586036375,0.7945709228515625,0.3084259033203125,0.0611114501953125,1,0.95
2020-05-16 12:49:15.513 -0400,11483.655881375,1.018463134765625,0.5568084716796875,-0.1372528076171875,1,0.95
2020-05-16 12:49:15.583 -0400,11483.725722375,1.63580322265625,0.7776031494140625,-0.6373138427734375,1,0.95
2020-05-16 12:49:15.653 -0400,11483.795565375,0.94244384765625,0.3176727294921875,-0.2724761962890625,1,0.95
2020-05-16 12:49:15.722 -0400,11483.865404375,0.5138397216796875,0.054046630859375,-0.3137054443359375,1,0.95
2020-05-16 12:49:15.792 -0400,11483.9352445,0.579254150390625,0.526214599609375,-0.2530517578125,1,0.95
2020-05-16 12:49:15.862 -0400,11484.0050855,0.9492950439453125,0.767852783203125,-0.5333709716796875,1,0.95
2020-05-16 12:49:15.932 -0400,11484.0749255,0.9857025146484375,0.44921875,-0.5718841552734375,1,0.95
2020-05-16 12:49:16.002 -0400,11484.1447655,1.665863037109375,0.52423095703125,-0.495697021484375,1,0.95
2020-05-16 12:49:16.072 -0400,11484.2146015,1.615615844726562,0.399688720703125,-0.3841552734375,1,0.95
2020-05-16 12:49:16.141 -0400,11484.2844335,1.445907592773438,0.3456268310546875,-0.24200439453125,1,0.95
2020-05-16 12:49:16.211 -0400,11484.3542685,0.72052001953125,0.3404998779296875,-0.3056793212890625,1,0.95
2020-05-16 12:49:16.281 -0400,11484.4241005,0.4599609375,0.315643310546875,-0.1986236572265625,1,0.95
2020-05-16 12:49:16.351 -0400,11484.4939335,0.541534423828125,0.1796722412109375,-0.03680419921875,1,0.95
2020-05-16 12:49:16.421 -0400,11484.5637695,0.882049560546875,0.218353271484375,-0.03216552734375,1,0.95
2020-05-16 12:49:16.491 -0400,11484.6336105,0.9778289794921875,0.3076629638671875,0.089324951171875,1,0.95
2020-05-16 12:49:16.560 -0400,11484.7034525,0.959716796875,0.697052001953125,-0.4259490966796875,1,0.95
2020-05-16 12:49:16.630 -0400,11484.7732945,1.542495727539062,0.62164306640625,-0.29400634765625,1,0.95
2020-05-16 12:49:16.700 -0400,11484.8431365,1.056854248046875,0.08013916015625,-0.363189697265625,1,0.95
2020-05-16 12:49:16.770 -0400,11484.912977,0.46685791015625,0.2492828369140625,-0.583343505859375,1,0.95
2020-05-16 12:49:16.840 -0400,11484.982818,0.4118194580078125,0.530487060546875,-0.4149932861328125,1,0.95
2020-05-16 12:49:16.910 -0400,11485.052655,0.69085693359375,0.7817230224609375,-0.3747100830078125,1,0.95
2020-05-16 12:49:16.979 -0400,11485.12249,1.186691284179688,1.339324951171875,-0.4173736572265625,1,0.95
2020-05-16 12:49:17.049 -0400,11485.192332,1.675262451171875,0.4230499267578125,-0.515777587890625,1,0.95
2020-05-16 12:49:17.119 -0400,11485.262175,1.601898193359375,0.7036895751953125,-0.1913909912109375,1,0.95
2020-05-16 12:49:17.189 -0400,11485.332021,1.522201538085938,0.572601318359375,-0.194549560546875,1,0.95
2020-05-16 12:49:17.259 -0400,11485.401866,0.8831329345703125,0.2693634033203125,-0.2864532470703125,1,0.95
2020-05-16 12:49:17.329 -0400,11485.471705,0.632171630859375,0.270599365234375,-0.18218994140625,1,0.95
2020-05-16 12:49:17.398 -0400,11485.541543,0.638275146484375,0.219268798828125,-0.05889892578125,1,0.95
2020-05-16 12:49:17.468 -0400,11485.611385,0.70745849609375,0.2651824951171875,0.044464111328125,1,0.95
2020-05-16 12:49:17.538 -0400,11485.681226,0.550445556640625,0.240814208984375,-0.11029052734375,1,0.95
2020-05-16 12:49:17.608 -0400,11485.751063,0.8349456787109375,0.399932861328125,-0.2020416259765625,1,0.95
2020-05-16 12:49:17.678 -0400,11485.820897,1.938430786132812,0.577301025390625,-0.9369964599609375,1,0.95
2020-05-16 12:49:17.748 -0400,11485.89073679167,1.164596557617188,0.905853271484375,-0.293212890625,1,0.95
2020-05-16 12:49:17.817 -0400,11485.96057779167,0.5362548828125,-0.2041015625,-0.2771148681640625,1,0.95
2020-05-16 12:49:17.887 -0400,11486.03041679167,0.6832427978515625,0.3548583984375,-0.1843414306640625,1,0.95
2020-05-16 12:49:17.957 -0400,11486.10025579167,1.304229736328125,1.292221069335938,-0.4375,1,0.95
2020-05-16 12:49:18.027 -0400,11486.17009779167,1.23919677734375,0.7599639892578125,-0.3459930419921875,1,0.95
2020-05-16 12:49:18.097 -0400,11486.23994079167,0.7176513671875,0.283477783203125,-0.304656982421875,1,0.95
2020-05-16 12:49:18.167 -0400,11486.30978379167,0.086395263671875,0.4958648681640625,-0.1644439697265625,1,0.95
2020-05-16 12:49:18.237 -0400,11486.37962179167,1.793228149414062,0.8145294189453125,-0.399566650390625,1,0.95
2020-05-16 12:49:18.307 -0400,11486.44946079167,1.99468994140625,0.47625732421875,0.2384033203125,1,0.95
2020-05-16 12:49:18.376 -0400,11486.51930179167,1.1287841796875,0.0198516845703125,-0.436553955078125,1,0.95
2020-05-16 12:49:18.446 -0400,11486.58913779167,0.4481964111328125,0.5793304443359375,-0.0963897705078125,1,0.95
2020-05-16 12:49:18.516 -0400,11486.65897379167,0.5214996337890625,0.309234619140625,-0.0277557373046875,1,0.95
2020-05-16 12:49:18.586 -0400,11486.72881079167,1.109786987304688,0.1027984619140625,-0.002349853515625,1,0.95
2020-05-16 12:49:18.656 -0400,11486.79864679167,1.045181274414062,0.079620361328125,0.417266845703125,1,0.95
2020-05-16 12:49:18.726 -0400,11486.86848679167,0.912078857421875,0.646636962890625,0.1870880126953125,1,0.95
2020-05-16 12:49:18.795 -0400,11486.938329375,1.407272338867188,0.8354034423828125,-0.48931884765625,1,0.95
2020-05-16 12:49:18.865 -0400,11487.008170375,1.03558349609375,1.004714965820312,-0.2216339111328125,1,0.95
2020-05-16 12:49:18.935 -0400,11487.078009375,0.6142730712890625,-0.1214599609375,-0.0052490234375,1,0.95
2020-05-16 12:49:19.005 -0400,11487.147852375,0.559814453125,0.04376220703125,-0.1362762451171875,1,0.95
2020-05-16 12:49:19.075 -0400,11487.217693375,1.154998779296875,0.9008636474609375,-0.4850921630859375,1,0.95
2020-05-16 12:49:19.144 -0400,11487.287535375,1.050018310546875,0.7251434326171875,-0.5290679931640625,1,0.95
2020-05-16 12:49:19.214 -0400,11487.357375375,1.5819091796875,0.7251129150390625,-0.5892181396484375,1,0.95
2020-05-16 12:49:19.295 -0400,11487.427219375,1.70330810546875,0.5672454833984375,-0.4271697998046875,1,0.95
2020-05-16 12:49:19.354 -0400,11487.497064375,1.617889404296875,0.18316650390625,-0.1838226318359375,1,0.95
2020-05-16 12:49:19.424 -0400,11487.566909375,0.740570068359375,0.2376708984375,-0.3011016845703125,1,0.95
2020-05-16 12:49:19.494 -0400,11487.636749375,0.485595703125,0.384429931640625,-0.046875,1,0.95
2020-05-16 12:49:19.564 -0400,11487.706590375,0.7259979248046875,0.309967041015625,-0.0042572021484375,1,0.95
2020-05-16 12:49:19.633 -0400,11487.776434375,0.9092864990234375,0.1927947998046875,0.1060028076171875,1,0.95
2020-05-16 12:49:19.703 -0400,11487.846280375,0.795257568359375,0.241302490234375,0.0877685546875,1,0.95
2020-05-16 12:49:19.773 -0400,11487.91612441667,1.13787841796875,0.6114501953125,-0.1693267822265625,1,0.95
2020-05-16 12:49:19.843 -0400,11487.98596541667,1.84674072265625,1.1427001953125,-0.6815643310546875,1,0.95
2020-05-16 12:49:19.918 -0400,11488.05580441667,0.6900177001953125,-0.06072998046875,-0.246063232421875,1,0.95
2020-05-16 12:49:19.983 -0400,11488.12564541667,0.5865936279296875,-0.078643798828125,-0.191741943359375,1,0.95
2020-05-16 12:49:20.052 -0400,11488.19548941667,0.71905517578125,0.7944793701171875,-0.3368377685546875,1,0.95
2020-05-16 12:49:20.122 -0400,11488.26533341667,0.798065185546875,0.99310302734375,-0.6507415771484375,1,0.95
2020-05-16 12:49:20.192 -0400,11488.33517641667,1.129119873046875,0.5918121337890625,-0.4527130126953125,1,0.95
2020-05-16 12:49:20.263 -0400,11488.40501841667,1.606643676757812,0.459259033203125,-0.5097503662109375,1,0.95
2020-05-16 12:49:20.332 -0400,11488.47486341667,1.810516357421875,0.2792510986328125,-0.24334716796875,1,0.95
2020-05-16 12:49:20.402 -0400,11488.54470441667,1.302352905273438,0.411376953125,-0.37847900390625,1,0.95
2020-05-16 12:49:20.472 -0400,11488.61454641667,0.660980224609375,0.3456878662109375,-0.1785125732421875,1,0.95
2020-05-16 12:49:20.541 -0400,11488.68438841667,0.4253082275390625,0.24566650390625,0.0249481201171875,1,0.95
2020-05-16 12:49:20.611 -0400,11488.75423541667,0.3189697265625,0.1110687255859375,0.065765380859375,1,0.95
2020-05-16 12:49:20.681 -0400,11488.82407841667,0.6457366943359375,0.259765625,0.0673675537109375,1,0.95
2020-05-16 12:49:20.751 -0400,11488.89392,0.90234375,0.3173675537109375,-0.0194091796875,1,0.95
2020-05-16 12:49:20.821 -0400,11488.963764,1.301101684570312,1.100677490234375,-0.4200286865234375,1,0.95
2020-05-16 12:49:20.891 -0400,11489.033601,1.543731689453125,0.598480224609375,-0.39581298828125,1,0.95
2020-05-16 12:49:20.960 -0400,11489.10344,0.74517822265625,0.1862945556640625,-0.4529266357421875,1,0.95
2020-05-16 12:49:21.030 -0400,11489.173281,0.48895263671875,0.239288330078125,-0.3653564453125,1,0.95
2020-05-16 12:49:21.100 -0400,11489.243126,0.3669891357421875,1.081817626953125,-0.14739990234375,1,0.95
2020-05-16 12:49:21.170 -0400,11489.312972,0.7414398193359375,0.6312255859375,-0.3416900634765625,1,0.95
2020-05-16 12:49:21.240 -0400,11489.382813,1.366165161132812,0.68853759765625,-0.5280609130859375,1,0.95
2020-05-16 12:49:21.310 -0400,11489.452656,1.407073974609375,0.423370361328125,-0.333465576171875,1,0.95
2020-05-16 12:49:21.379 -0400,11489.5225,1.38287353515625,0.2678680419921875,-0.1898956298828125,1,0.95
2020-05-16 12:49:21.449 -0400,11489.592341,1.119537353515625,0.3120574951171875,-0.1932373046875,1,0.95
2020-05-16 12:49:21.519 -0400,11489.662183,0.6086578369140625,0.3287811279296875,-0.1485443115234375,1,0.95
2020-05-16 12:49:21.589 -0400,11489.732024,0.4924774169921875,0.408966064453125,0.0325469970703125,1,0.95
2020-05-16 12:49:21.659 -0400,11489.801865,0.8058319091796875,0.28912353515625,0.0316619873046875,1,0.95
2020-05-16 12:49:21.729 -0400,11489.871705,0.9779815673828125,0.1959381103515625,0.1121368408203125,1,0.95
2020-05-16 12:49:21.798 -0400,11489.94154325,1.1268310546875,0.2930145263671875,-0.0336151123046875,1,0.95
2020-05-16 12:49:21.870 -0400,11490.01138525,1.130661010742188,0.4421844482421875,-0.044830322265625,1,0.95
2020-05-16 12:49:21.938 -0400,11490.08122425,1.423812866210938,0.6151885986328125,-0.4227142333984375,1,0.95
2020-05-16 12:49:22.008 -0400,11490.15106525,0.695892333984375,0.2704315185546875,-0.3320770263671875,1,0.95
2020-05-16 12:49:22.078 -0400,11490.22090525,0.4943695068359375,0.298126220703125,-0.22198486328125,1,0.95
2020-05-16 12:49:22.148 -0400,11490.29074625,0.8666534423828125,0.52044677734375,-0.304595947265625,1,0.95
2020-05-16 12:49:22.218 -0400,11490.36059125,0.99969482421875,0.4888458251953125,-0.4708251953125,1,0.95
2020-05-16 12:49:22.291 -0400,11490.43043425,1.205398559570312,0.52874755859375,-0.422271728515625,1,0.95
2020-05-16 12:49:22.357 -0400,11490.50027525,1.426162719726562,0.7131500244140625,-0.5332489013671875,1,0.95
2020-05-16 12:49:22.427 -0400,11490.57011225,1.606765747070312,0.3144378662109375,-0.2366485595703125,1,0.95
2020-05-16 12:49:22.497 -0400,11490.63995525,0.994049072265625,0.254486083984375,-0.2733612060546875,1,0.95
2020-05-16 12:49:22.567 -0400,11490.70979625,0.5054931640625,0.3063812255859375,-0.15045166015625,1,0.95
2020-05-16 12:49:22.637 -0400,11490.77963725,0.47064208984375,0.2841339111328125,-0.016754150390625,1,0.95
2020-05-16 12:49:22.706 -0400,11490.84947625,0.810699462890625,0.2240142822265625,-0.00750732421875,1,0.95
2020-05-16 12:49:22.776 -0400,11490.91931704167,0.90570068359375,0.2718505859375,0.0716552734375,1,0.95
2020-05-16 12:49:22.846 -0400,11490.98915304167,1.25299072265625,0.437103271484375,-0.0052642822265625,1,0.95
2020-05-16 12:49:22.943 -0400,11491.05899104167,1.70123291015625,0.6895599365234375,-0.4718475341796875,1,0.95
2020-05-16 12:49:22.986 -0400,11491.12882704167,1.261611938476562,0.3956146240234375,-0.1696014404296875,1,0.95
2020-05-16 12:49:23.055 -0400,11491.19866304167,0.4896087646484375,0.026031494140625,-0.3408966064453125,1,0.95
2020-05-16 12:49:23.125 -0400,11491.26850904167,0.4629364013671875,0.319488525390625,-0.1775360107421875,1,0.95
2020-05-16 12:49:23.195 -0400,11491.33835304167,0.977935791015625,0.7936248779296875,-0.431365966796875,1,0.95
2020-05-16 12:49:23.266 -0400,11491.40819604167,0.997802734375,0.563079833984375,-0.380767822265625,1,0.95
2020-05-16 12:49:23.357 -0400,11491.47804004167,0.78155517578125,0.354339599609375,-0.258575439453125,1,0.95
2020-05-16 12:49:23.405 -0400,11491.54788704167,1.439483642578125,0.81072998046875,-0.561279296875,1,0.95
2020-05-16 12:49:23.475 -0400,11491.61772804167,2.132156372070312,0.5413360595703125,-0.070098876953125,1,0.95
2020-05-16 12:49:23.544 -0400,11491.68757004167,1.407302856445312,0.0077056884765625,-0.2162933349609375,1,0.95
2020-05-16 12:49:23.614 -0400,11491.75741204167,0.601776123046875,0.4698638916015625,-0.2461090087890625,1,0.95
2020-05-16 12:49:23.684 -0400,11491.82725304167,0.4852142333984375,0.315521240234375,-0.0487823486328125,1,0.95
2020-05-16 12:49:23.754 -0400,11491.89709304167,0.7124481201171875,0.18377685546875,-0.0119781494140625,1,0.95
2020-05-16 12:49:23.824 -0400,11491.96693604167,0.8354644775390625,0.115814208984375,0.1500396728515625,1,0.95
2020-05-16 12:49:23.894 -0400,11492.03678004167,0.8709564208984375,0.2672119140625,0.1231231689453125,1,0.95
2020-05-16 12:49:23.964 -0400,11492.10662404167,1.073074340820312,0.587982177734375,-0.2337188720703125,1,0.95
2020-05-16 12:49:24.033 -0400,11492.17646604167,1.98712158203125,0.918731689453125,-0.4386749267578125,1,0.95
2020-05-16 12:49:24.103 -0400,11492.24630604167,0.8091278076171875,0.1552886962890625,-0.3169708251953125,1,0.95
2020-05-16 12:49:24.173 -0400,11492.31614904167,0.54315185546875,-0.0185394287109375,-0.258575439453125,1,0.95
2020-05-16 12:49:24.243 -0400,11492.38599504167,0.5742645263671875,0.5881500244140625,-0.219085693359375,1,0.95
2020-05-16 12:49:24.313 -0400,11492.45583404167,0.98583984375,0.8592987060546875,-0.5237884521484375,1,0.95
2020-05-16 12:49:24.382 -0400,11492.52567304167,1.214187622070312,0.4928131103515625,-0.6029510498046875,1,0.95
2020-05-16 12:49:24.453 -0400,11492.59551404167,1.555923461914062,0.5634613037109375,-0.605560302734375,1,0.95
2020-05-16 12:49:24.527 -0400,11492.66535304167,1.801849365234375,0.3704071044921875,-0.298797607421875,1,0.95
2020-05-16 12:49:24.592 -0400,11492.73519304167,1.311492919921875,-0.1268768310546875,0.0394439697265625,1,0.95
2020-05-16 12:49:24.662 -0400,11492.80503404167,0.6052398681640625,0.3877716064453125,-0.1952056884765625,1,0.95
2020-05-16 12:49:24.732 -0400,11492.87487704167,0.4082183837890625,0.3724365234375,0.0629730224609375,1,0.95
2020-05-16 12:49:24.802 -0400,11492.944722125,0.5714874267578125,0.2864227294921875,0.1020050048828125,1,0.95
2020-05-16 12:49:24.872 -0400,11493.014565125,0.970733642578125,0.2070159912109375,0.099365234375,1,0.95
2020-05-16 12:49:24.942 -0400,11493.084409125,1.003097534179688,0.2714691162109375,-0.031646728515625,1,0.95
2020-05-16 12:49:25.011 -0400,11493.154248125,1.293792724609375,0.512420654296875,-0.13641357421875,1,0.95
2020-05-16 12:49:25.081 -0400,11493.224088125,1.696701049804688,0.6271820068359375,-0.56524658203125,1,0.95
2020-05-16 12:49:25.151 -0400,11493.293930125,0.799835205078125,0.073699951171875,-0.297393798828125,1,0.95
2020-05-16 12:49:25.226 -0400,11493.363768125,0.6465606689453125,0.1964569091796875,-0.241455078125,1,0.95
2020-05-16 12:49:25.291 -0400,11493.433609125,0.6951751708984375,0.6640167236328125,-0.3058013916015625,1,0.95
2020-05-16 12:49:25.361 -0400,11493.503449125,0.8468475341796875,0.7750701904296875,-0.5911102294921875,1,0.95
2020-05-16 12:49:25.430 -0400,11493.573287125,1.230941772460938,0.610504150390625,-0.4716033935546875,1,0.95
2020-05-16 12:49:25.500 -0400,11493.643123125,1.531585693359375,0.64959716796875,-0.6203155517578125,1,0.95
2020-05-16 12:49:25.570 -0400,11493.712960125,1.7694091796875,0.35528564453125,-0.1790008544921875,1,0.95
2020-05-16 12:49:25.640 -0400,11493.782799125,1.190994262695312,0.48779296875,-0.3188323974609375,1,0.95
2020-05-16 12:49:25.710 -0400,11493.852639125,0.69891357421875,0.354766845703125,-0.1320648193359375,1,0.95
2020-05-16 12:49:25.779 -0400,11493.922474625,0.611724853515625,0.3195037841796875,0.045806884765625,1,0.95
2020-05-16 12:49:25.849 -0400,11493.992312625,0.735198974609375,0.216796875,0.0426177978515625,1,0.95
2020-05-16 12:49:25.919 -0400,11494.062153625,0.9129638671875,0.1197052001953125,0.139862060546875,1,0.95
2020-05-16 12:49:25.989 -0400,11494.131997625,1.088729858398438,0.3250732421875,0.0024871826171875,1,0.95
2020-05-16 12:49:26.059 -0400,11494.201841625,1.391876220703125,0.5956573486328125,-0.28759765625,1,0.95
2020-05-16 12:49:26.140 -0400,11494.271681625,1.614944458007812,0.5845794677734375,-0.3926544189453125,1,0.95
2020-05-16 12:49:26.199 -0400,11494.341522625,0.6750335693359375,0.08245849609375,-0.37640380859375,1,0.95
2020-05-16 12:49:26.269 -0400,11494.411364625,0.5859832763671875,0.099700927734375,-0.1947021484375,1,0.95
2020-05-16 12:49:26.338 -0400,11494.481208625,0.9433135986328125,0.685150146484375,-0.2945709228515625,1,0.95
2020-05-16 12:49:26.408 -0400,11494.551051625,0.9772491455078125,0.90472412109375,-0.5772857666015625,1,0.95
2020-05-16 12:49:26.478 -0400,11494.620891625,1.328369140625,0.69512939453125,-0.525787353515625,1,0.95
2020-05-16 12:49:26.548 -0400,11494.690732625,1.56304931640625,0.4923553466796875,-0.4731903076171875,1,0.95
2020-05-16 12:49:26.617 -0400,11494.760576625,1.771469116210938,0.4083251953125,-0.169158935546875,1,0.95
2020-05-16 12:49:26.687 -0400,11494.830421625,1.068344116210938,0.2995452880859375,-0.3594512939453125,1,0.95
2020-05-16 12:49:26.757 -0400,11494.900267625,0.5593109130859375,0.290283203125,-0.09857177734375,1,0.95
2020-05-16 12:49:26.827 -0400,11494.970115625,0.6064300537109375,0.41143798828125,0.0299530029296875,1,0.95
2020-05-16 12:49:26.897 -0400,11495.039963625,1.10198974609375,0.298492431640625,0.0045928955078125,1,0.95
2020-05-16 12:49:26.970 -0400,11495.109813625,0.922882080078125,0.091094970703125,0.17822265625,1,0.95
2020-05-16 12:49:27.037 -0400,11495.179659625,1.01220703125,0.3803253173828125,0.05352783203125,1,0.95
2020-05-16 12:49:27.107 -0400,11495.249503625,1.570632934570312,0.72760009765625,-0.410186767578125,1,0.95
2020-05-16 12:49:27.176 -0400,11495.319349625,1.200393676757812,0.45501708984375,-0.2309417724609375,1,0.95
2020-05-16 12:49:27.246 -0400,11495.389200625,0.6302032470703125,0.0866851806640625,-0.3199615478515625,1,0.95
2020-05-16 12:49:27.316 -0400,11495.459049625,0.5952911376953125,0.302520751953125,-0.1529693603515625,1,0.95
2020-05-16 12:49:27.386 -0400,11495.528898625,1.053604125976562,0.78448486328125,-0.342803955078125,1,0.95
2020-05-16 12:49:27.456 -0400,11495.598744625,1.229080200195312,0.794830322265625,-0.613616943359375,1,0.95
2020-05-16 12:49:27.525 -0400,11495.668587625,1.693359375,0.6822052001953125,-0.572723388671875,1,0.95
2020-05-16 12:49:27.595 -0400,11495.738432625,1.3380126953125,0.517486572265625,-0.4508819580078125,1,0.95
2020-05-16 12:49:27.665 -0400,11495.808276625,1.605422973632812,0.40673828125,-0.23272705078125,1,0.95
2020-05-16 12:49:27.735 -0400,11495.878123625,0.81451416015625,-0.197784423828125,-0.238922119140625,1,0.95
2020-05-16 12:49:27.805 -0400,11495.94796991667,0.5542449951171875,0.3583831787109375,-0.0528717041015625,1,0.95
2020-05-16 12:49:27.875 -0400,11496.01781191667,0.680389404296875,0.4446258544921875,0.07635498046875,1,0.95
2020-05-16 12:49:27.945 -0400,11496.08765391667,1.32098388671875,0.2951507568359375,0.07122802734375,1,0.95
2020-05-16 12:49:28.015 -0400,11496.15750091667,1.113861083984375,0.1529388427734375,0.0781097412109375,1,0.95
2020-05-16 12:49:28.084 -0400,11496.22734591667,0.9887237548828125,0.4140472412109375,-0.0176849365234375,1,0.95
2020-05-16 12:49:28.154 -0400,11496.29718791667,1.32025146484375,0.644500732421875,-0.3195953369140625,1,0.95
2020-05-16 12:49:28.224 -0400,11496.36703491667,1.030517578125,0.3270111083984375,-0.2878265380859375,1,0.95
2020-05-16 12:49:28.294 -0400,11496.43687991667,0.5127716064453125,0.055023193359375,-0.28765869140625,1,0.95
2020-05-16 12:49:28.364 -0400,11496.50672591667,0.4882965087890625,0.5315093994140625,-0.2360992431640625,1,0.95
2020-05-16 12:49:28.434 -0400,11496.57657391667,0.877227783203125,0.776031494140625,-0.406219482421875,1,0.95
2020-05-16 12:49:28.503 -0400,11496.64641891667,1.138427734375,0.698333740234375,-0.5900421142578125,1,0.95
2020-05-16 12:49:28.573 -0400,11496.71626791667,1.841964721679688,0.636688232421875,-0.645782470703125,1,0.95
2020-05-16 12:49:28.643 -0400,11496.78611491667,1.560348510742188,0.3070526123046875,-0.4268035888671875,1,0.95
2020-05-16 12:49:28.713 -0400,11496.85595791667,1.385986328125,0.6356658935546875,-0.3784332275390625,1,0.95
2020-05-16 12:49:28.783 -0400,11496.925798375,0.9091033935546875,0.0185089111328125,-0.266265869140625,1,0.95
2020-05-16 12:49:28.853 -0400,11496.995635375,0.584014892578125,0.375274658203125,-0.037506103515625,1,0.95
2020-05-16 12:49:28.922 -0400,11497.065467375,0.5973052978515625,0.3467254638671875,0.079254150390625,1,0.95
2020-05-16 12:49:28.992 -0400,11497.135304375,0.8850860595703125,0.2187347412109375,0.06170654296875,1,0.95
2020-05-16 12:49:29.062 -0400,11497.205139375,0.90728759765625,0.176300048828125,0.0974273681640625,1,0.95
2020-05-16 12:49:29.132 -0400,11497.274977375,1.225143432617188,0.4358978271484375,-0.02154541015625,1,0.95
2020-05-16 12:49:29.202 -0400,11497.344816375,1.590682983398438,0.7227783203125,-0.51361083984375,1,0.95
2020-05-16 12:49:29.272 -0400,11497.414653375,1.356765747070312,0.4140777587890625,-0.2113494873046875,1,0.95
2020-05-16 12:49:29.341 -0400,11497.484495375,0.6484375,0.011016845703125,-0.325042724609375,1,0.95
2020-05-16 12:49:29.411 -0400,11497.554341375,0.514984130859375,0.389862060546875,-0.2029266357421875,1,0.95
2020-05-16 12:49:29.481 -0400,11497.624186375,1.000732421875,0.7354278564453125,-0.3798828125,1,0.95
2020-05-16 12:49:29.551 -0400,11497.694027375,1.296722412109375,0.66229248046875,-0.454010009765625,1,0.95
2020-05-16 12:49:29.621 -0400,11497.763871375,1.6551513671875,0.8011627197265625,-0.602081298828125,1,0.95
2020-05-16 12:49:29.691 -0400,11497.833712375,1.432342529296875,0.6797943115234375,-0.518798828125,1,0.95
2020-05-16 12:49:29.761 -0400,11497.903552625,1.61407470703125,0.4839324951171875,-0.22772216796875,1,0.95
2020-05-16 12:49:29.831 -0400,11497.973395625,0.947296142578125,-0.260498046875,-0.207550048828125,1,0.95
2020-05-16 12:49:29.900 -0400,11498.043236625,0.6441650390625,0.243988037109375,-0.0223541259765625,1,0.95
2020-05-16 12:49:29.970 -0400,11498.113080625,0.780029296875,0.530670166015625,0.03472900390625,1,0.95
2020-05-16 12:49:30.046 -0400,11498.182928625,1.273086547851562,0.2623748779296875,0.0887298583984375,1,0.95
2020-05-16 12:49:30.110 -0400,11498.252776625,0.99365234375,0.1396331787109375,0.0841064453125,1,0.95
2020-05-16 12:49:30.180 -0400,11498.322627625,0.9223480224609375,0.4832305908203125,-0.0810089111328125,1,0.95
2020-05-16 12:49:30.250 -0400,11498.392474625,1.220565795898438,0.6253662109375,-0.502349853515625,1,0.95
2020-05-16 12:49:30.320 -0400,11498.462323625,0.77349853515625,0.2229156494140625,-0.284271240234375,1,0.95
2020-05-16 12:49:30.389 -0400,11498.532172625,0.53448486328125,-0.0272064208984375,-0.23724365234375,1,0.95
2020-05-16 12:49:30.459 -0400,11498.602018625,0.7885894775390625,0.4661712646484375,-0.146331787109375,1,0.95
2020-05-16 12:49:30.529 -0400,11498.671860625,1.195648193359375,1.022598266601562,-0.65478515625,1,0.95
2020-05-16 12:49:30.599 -0400,11498.741703625,1.196319580078125,0.7874908447265625,-0.5921478271484375,1,0.95
2020-05-16 12:49:30.668 -0400,11498.811546625,1.354705810546875,0.60552978515625,-0.45013427734375,1,0.95
2020-05-16 12:49:30.738 -0400,11498.881394625,1.5675048828125,0.374267578125,-0.224334716796875,1,0.95
2020-05-16 12:49:30.808 -0400,11498.95124129167,1.108917236328125,0.2501373291015625,-0.320709228515625,1,0.95
2020-05-16 12:49:30.879 -0400,11499.02108629167,0.628143310546875,0.2323455810546875,-0.1859588623046875,1,0.95
2020-05-16 12:49:30.948 -0400,11499.09093529167,0.592742919921875,0.392913818359375,-0.0158538818359375,1,0.95
2020-05-16 12:49:31.018 -0400,11499.16077929167,1.198760986328125,0.334930419921875,-0.0475921630859375,1,0.95
2020-05-16 12:49:31.104 -0400,11499.23062329167,1.06927490234375,0.13824462890625,0.156463623046875,1,0.95
2020-05-16 12:49:31.181 -0400,11499.30046529167,1.109725952148438,0.3225555419921875,-0.050933837890625,1,0.95
2020-05-16 12:49:31.227 -0400,11499.37030929167,1.16107177734375,0.6141815185546875,-0.246337890625,1,0.95
2020-05-16 12:49:31.297 -0400,11499.44015329167,1.154083251953125,0.5361175537109375,-0.3324127197265625,1,0.95
2020-05-16 12:49:31.367 -0400,11499.50999429167,0.646270751953125,0.1925201416015625,-0.2145233154296875,1,0.95
2020-05-16 12:49:31.437 -0400,11499.57983529167,0.6776123046875,0.3749847412109375,-0.2278594970703125,1,0.95
2020-05-16 12:49:31.507 -0400,11499.64967329167,1.09234619140625,0.631011962890625,-0.389007568359375,1,0.95
2020-05-16 12:49:31.576 -0400,11499.71950829167,0.9427642822265625,0.651336669921875,-0.6148834228515625,1,0.95
2020-05-16 12:49:31.646 -0400,11499.78934929167,1.575180053710938,0.954620361328125,-0.62286376953125,1,0.95
2020-05-16 12:49:31.716 -0400,11499.85918729167,1.494064331054688,0.4421844482421875,-0.49041748046875,1,0.95
2020-05-16 12:49:31.786 -0400,11499.92902316667,1.675216674804688,0.3762054443359375,-0.178131103515625,1,0.95
2020-05-16 12:49:31.856 -0400,11499.99885716667,0.952850341796875,0.0933074951171875,-0.2316436767578125,1,0.95
2020-05-16 12:49:31.926 -0400,11500.06868916667,0.665679931640625,0.3887786865234375,0.0084228515625,1,0.95
2020-05-16 12:49:31.995 -0400,11500.13852816667,0.9142913818359375,0.4831390380859375,0.05499267578125,1,0.95
2020-05-16 12:49:32.065 -0400,11500.20836816667,1.3917236328125,0.2871551513671875,0.072967529296875,1,0.95
2020-05-16 12:49:32.135 -0400,11500.27820816667,1.015914916992188,0.1587677001953125,0.0066986083984375,1,0.95
2020-05-16 12:49:32.205 -0400,11500.34804516667,0.7909393310546875,0.3703765869140625,-0.0471954345703125,1,0.95
2020-05-16 12:49:32.275 -0400,11500.41787916667,1.155776977539062,0.4847869873046875,-0.2843780517578125,1,0.95
2020-05-16 12:49:32.420 -0400,11500.48771716667,0.8645782470703125,0.254852294921875,-0.285797119140625,1,0.95
2020-05-16 12:49:32.421 -0400,11500.55755416667,0.6461639404296875,0.302734375,-0.275115966796875,1,0.95
2020-05-16 12:49:32.484 -0400,11500.62739016667,0.941619873046875,0.665008544921875,-0.4141998291015625,1,0.95
2020-05-16 12:49:32.554 -0400,11500.69722116667,1.211639404296875,0.5777435302734375,-0.632415771484375,1,0.95
2020-05-16 12:49:32.624 -0400,11500.76705816667,1.125503540039062,0.440704345703125,-0.542938232421875,1,0.95
2020-05-16 12:49:32.694 -0400,11500.83689416667,1.504150390625,0.679107666015625,-0.647552490234375,1,0.95
2020-05-16 12:49:32.763 -0400,11500.90673379167,1.24310302734375,0.1560211181640625,-0.26300048828125,1,0.95
2020-05-16 12:49:32.833 -0400,11500.97657679167,1.406997680664062,0.4191131591796875,-0.2142486572265625,1,0.95
2020-05-16 12:49:32.903 -0400,11501.04641679167,0.8411865234375,0.3108367919921875,-0.1020050048828125,1,0.95
2020-05-16 12:49:32.973 -0400,11501.11625479167,0.5806884765625,0.3331146240234375,0.004974365234375,1,0.95
2020-05-16 12:49:33.043 -0400,11501.18609779167,0.62457275390625,0.330657958984375,0.0317840576171875,1,0.95
2020-05-16 12:49:33.113 -0400,11501.25594479167,1.128448486328125,0.3103179931640625,-0.0183868408203125,1,0.95
2020-05-16 12:49:33.183 -0400,11501.32578679167,1.052001953125,0.16778564453125,-0.05120849609375,1,0.95
2020-05-16 12:49:33.253 -0400,11501.39563379167,0.9300994873046875,0.3985443115234375,-0.2577362060546875,1,0.95
2020-05-16 12:49:33.323 -0400,11501.46547879167,1.362442016601562,0.4066162109375,-0.29132080078125,1,0.95
2020-05-16 12:49:33.392 -0400,11501.53532379167,1.0374755859375,0.2419586181640625,-0.2832183837890625,1,0.95
2020-05-16 12:49:33.462 -0400,11501.60516679167,0.62506103515625,0.28009033203125,-0.243316650390625,1,0.95
2020-05-16 12:49:33.533 -0400,11501.67500579167,0.698455810546875,0.604034423828125,-0.1341705322265625,1,0.95
2020-05-16 12:49:33.602 -0400,11501.74484979167,1.139907836914062,0.789520263671875,-0.37286376953125,1,0.95
2020-05-16 12:49:33.673 -0400,11501.81469779167,1.18536376953125,0.8246612548828125,-0.636077880859375,1,0.95
2020-05-16 12:49:33.751 -0400,11501.88454179167,1.404342651367188,0.7601318359375,-0.5608062744140625,1,0.95
2020-05-16 12:49:33.842 -0400,11501.954385625,1.5159912109375,0.2142181396484375,-0.290771484375,1,0.95
2020-05-16 12:49:33.881 -0400,11502.024226625,1.344894409179688,0.0792999267578125,-0.0936431884765625,1,0.95
2020-05-16 12:49:33.951 -0400,11502.094066625,0.7013092041015625,0.22576904296875,-0.203948974609375,1,0.95
2020-05-16 12:49:34.021 -0400,11502.163906625,0.612640380859375,0.422393798828125,0.01922607421875,1,0.95
2020-05-16 12:49:34.095 -0400,11502.233747625,1.025192260742188,0.3224029541015625,0.059356689453125,1,0.95
2020-05-16 12:49:34.161 -0400,11502.303582625,0.9698028564453125,0.129486083984375,0.136688232421875,1,0.95
2020-05-16 12:49:34.230 -0400,11502.373420625,1.138153076171875,0.231842041015625,0.0705718994140625,1,0.95
2020-05-16 12:49:34.300 -0400,11502.443261625,0.955322265625,0.590484619140625,-0.2662353515625,1,0.95
2020-05-16 12:49:34.370 -0400,11502.513102625,1.262939453125,0.4473419189453125,-0.30621337890625,1,0.95
2020-05-16 12:49:34.440 -0400,11502.582940625,0.916259765625,0.14398193359375,-0.3197479248046875,1,0.95
2020-05-16 12:49:34.510 -0400,11502.652780625,0.780975341796875,0.368072509765625,-0.4039154052734375,1,0.95
2020-05-16 12:49:34.580 -0400,11502.722622625,0.919464111328125,0.78582763671875,-0.3647308349609375,1,0.95
2020-05-16 12:49:34.649 -0400,11502.792464625,1.098251342773438,0.9438323974609375,-0.510498046875,1,0.95
2020-05-16 12:49:34.719 -0400,11502.862301625,1.507308959960938,0.9256439208984375,-0.5579071044921875,1,0.95
2020-05-16 12:49:34.789 -0400,11502.93214391667,1.393936157226562,0.784759521484375,-0.3699188232421875,1,0.95
2020-05-16 12:49:34.859 -0400,11503.00198391667,1.691009521484375,0.4355010986328125,-0.202911376953125,1,0.95
2020-05-16 12:49:34.929 -0400,11503.07182691667,1.020675659179688,0.2370147705078125,-0.2180023193359375,1,0.95
2020-05-16 12:49:34.998 -0400,11503.14166691667,0.713226318359375,0.3607177734375,-0.0433502197265625,1,0.95
2020-05-16 12:49:35.068 -0400,11503.21150691667,0.8072967529296875,0.3749542236328125,0.009521484375,1,0.95
2020-05-16 12:49:35.138 -0400,11503.28134391667,1.285629272460938,0.308441162109375,-0.01763916015625,1,0.95
2020-05-16 12:49:35.208 -0400,11503.35118291667,0.9383087158203125,0.0977020263671875,0.063140869140625,1,0.95
2020-05-16 12:49:35.278 -0400,11503.42102191667,0.7813720703125,0.3759307861328125,-0.121063232421875,1,0.95
2020-05-16 12:49:35.348 -0400,11503.49086091667,1.118988037109375,0.4054412841796875,-0.3034515380859375,1,0.95
2020-05-16 12:49:35.418 -0400,11503.56070091667,1.152603149414062,0.34222412109375,-0.29248046875,1,0.95
2020-05-16 12:49:35.487 -0400,11503.63054191667,0.9022064208984375,0.464599609375,-0.2743377685546875,1,0.95
2020-05-16 12:49:35.557 -0400,11503.70037691667,0.9904937744140625,0.748443603515625,-0.280792236328125,1,0.95
2020-05-16 12:49:35.627 -0400,11503.77021391667,1.217208862304688,0.6607666015625,-0.4596405029296875,1,0.95
2020-05-16 12:49:35.697 -0400,11503.84004891667,1.061721801757812,0.6393890380859375,-0.5418853759765625,1,0.95
2020-05-16 12:49:35.767 -0400,11503.90989241667,1.449371337890625,1.123275756835938,-0.7373046875,1,0.95
2020-05-16 12:49:35.837 -0400,11503.97973641667,1.389114379882812,0.2975921630859375,-0.420166015625,1,0.95
2020-05-16 12:49:35.907 -0400,11504.04958141667,1.979202270507812,0.6493072509765625,-0.0465850830078125,1,0.95
2020-05-16 12:49:36.042 -0400,11504.11942241667,0.9442138671875,0.018585205078125,-0.246551513671875,1,0.95
2020-05-16 12:49:36.050 -0400,11504.18926441667,0.6305694580078125,0.5825653076171875,0.028228759765625,1,0.95
2020-05-16 12:49:36.116 -0400,11504.25910841667,0.9357757568359375,0.4303436279296875,0.0340118408203125,1,0.95
2020-05-16 12:49:36.186 -0400,11504.32895241667,1.12890625,0.17047119140625,0.07696533203125,1,0.95
2020-05-16 12:49:36.256 -0400,11504.39879041667,0.98272705078125,0.2155303955078125,0.0623321533203125,1,0.95
2020-05-16 12:49:36.326 -0400,11504.46863141667,0.9375457763671875,0.4996795654296875,-0.141998291015625,1,0.95
2020-05-16 12:49:36.395 -0400,11504.53846741667,1.387313842773438,0.580322265625,-0.2195892333984375,1,0.95
2020-05-16 12:49:36.465 -0400,11504.60830341667,0.7211761474609375,0.209686279296875,-0.24700927734375,1,0.95
2020-05-16 12:49:36.535 -0400,11504.67813741667,0.738250732421875,0.1573028564453125,-0.3571929931640625,1,0.95
2020-05-16 12:49:36.605 -0400,11504.74797241667,1.135574340820312,0.657379150390625,-0.4683074951171875,1,0.95
2020-05-16 12:49:36.675 -0400,11504.81780841667,1.142349243164062,0.6156463623046875,-0.7552642822265625,1,0.95
2020-05-16 12:49:36.745 -0400,11504.88764241667,1.471832275390625,0.588592529296875,-0.6262664794921875,1,0.95
2020-05-16 12:49:36.814 -0400,11504.95747916667,1.422958374023438,0.6790008544921875,-0.545379638671875,1,0.95
2020-05-16 12:49:36.884 -0400,11505.02731616667,1.504852294921875,0.429168701171875,-0.2502593994140625,1,0.95
2020-05-16 12:49:36.954 -0400,11505.09714916667,1.118515014648438,0.05633544921875,-0.2364959716796875,1,0.95
2020-05-16 12:49:37.024 -0400,11505.16698416667,0.828155517578125,0.302337646484375,-0.0366973876953125,1,0.95
2020-05-16 12:49:37.094 -0400,11505.23682016667,0.825897216796875,0.417724609375,0.01873779296875,1,0.95
2020-05-16 12:49:37.163 -0400,11505.30666016667,1.098617553710938,0.242767333984375,0.0446319580078125,1,0.95
2020-05-16 12:49:37.234 -0400,11505.37649916667,0.7927093505859375,0.171295166015625,0.096405029296875,1,0.95
2020-05-16 12:49:37.303 -0400,11505.44633716667,0.7482452392578125,0.3793487548828125,-0.0330810546875,1,0.95
2020-05-16 12:49:37.373 -0400,11505.51617616667,1.153533935546875,0.547027587890625,-0.411834716796875,1,0.95
2020-05-16 12:49:37.443 -0400,11505.58600616667,1.317703247070312,0.3630828857421875,-0.323150634765625,1,0.95
2020-05-16 12:49:37.513 -0400,11505.65583616667,0.886962890625,0.254119873046875,-0.2637481689453125,1,0.95
2020-05-16 12:49:37.583 -0400,11505.72566716667,0.9188232421875,0.7517852783203125,-0.2384033203125,1,0.95
2020-05-16 12:49:37.653 -0400,11505.79550116667,1.225372314453125,0.7706146240234375,-0.4499664306640625,1,0.95
2020-05-16 12:49:37.722 -0400,11505.86533416667,1.008895874023438,0.7277679443359375,-0.5719757080078125,1,0.95
2020-05-16 12:49:37.792 -0400,11505.93517141667,1.35009765625,0.8350982666015625,-0.4892425537109375,1,0.95
2020-05-16 12:49:37.864 -0400,11506.00500741667,1.416290283203125,0.6155853271484375,-0.4782257080078125,1,0.95
2020-05-16 12:49:37.932 -0400,11506.07484241667,1.696731567382812,0.619171142578125,-0.4536895751953125,1,0.95
2020-05-16 12:49:38.002 -0400,11506.14467641667,1.0491943359375,-0.38055419921875,-0.191986083984375,1,0.95
2020-05-16 12:49:38.117 -0400,11506.21451341667,0.775054931640625,0.36920166015625,0.00457763671875,1,0.95
2020-05-16 12:49:38.142 -0400,11506.28435341667,0.879180908203125,0.4284515380859375,0.037841796875,1,0.95
2020-05-16 12:49:38.211 -0400,11506.35419141667,1.060470581054688,0.233306884765625,0.0301666259765625,1,0.95
2020-05-16 12:49:38.281 -0400,11506.42403341667,0.8772735595703125,0.1770477294921875,0.09991455078125,1,0.95
2020-05-16 12:49:38.351 -0400,11506.49387141667,0.8909759521484375,0.4545440673828125,-0.1152496337890625,1,0.95
2020-05-16 12:49:38.421 -0400,11506.56370941667,1.439071655273438,0.5557403564453125,-0.2937164306640625,1,0.95
2020-05-16 12:49:38.490 -0400,11506.63355041667,0.9101104736328125,0.253265380859375,-0.2698211669921875,1,0.95
2020-05-16 12:49:38.560 -0400,11506.70338841667,0.7979736328125,0.307708740234375,-0.2108001708984375,1,0.95
2020-05-16 12:49:38.630 -0400,11506.77322741667,1.140029907226562,0.7110748291015625,-0.2779693603515625,1,0.95
2020-05-16 12:49:38.700 -0400,11506.84306741667,1.307418823242188,0.725616455078125,-0.58477783203125,1,0.95
2020-05-16 12:49:38.770 -0400,11506.91290566667,1.086151123046875,0.680267333984375,-0.56134033203125,1,0.95
2020-05-16 12:49:38.840 -0400,11506.98274566667,1.242630004882812,0.7071075439453125,-0.6023101806640625,1,0.95
2020-05-16 12:49:38.910 -0400,11507.05258466667,1.21429443359375,0.3002471923828125,-0.2934722900390625,1,0.95
2020-05-16 12:49:38.980 -0400,11507.12242166667,1.46429443359375,0.4790191650390625,-0.4577789306640625,1,0.95
2020-05-16 12:49:39.049 -0400,11507.19225866667,0.96148681640625,0.763885498046875,-0.403472900390625,1,0.95
2020-05-16 12:49:39.176 -0400,11507.26209366667,1.081222534179688,1.197052001953125,0.0858154296875,1,0.95
2020-05-16 12:49:39.192 -0400,11507.33193266667,1.48321533203125,1.950881958007812,0.022247314453125,1,0.95
2020-05-16 12:49:39.259 -0400,11507.40177066667,0.9452056884765625,1.060882568359375,0.2346954345703125,1,0.95
2020-05-16 12:49:39.329 -0400,11507.47161166667,0.056304931640625,0.3402557373046875,-0.011199951171875,1,0.95
2020-05-16 12:49:39.399 -0400,11507.54144866667,-0.4481201171875,0.7619781494140625,-0.4511566162109375,1,0.95
2020-05-16 12:49:39.468 -0400,11507.61128866667,-0.3172760009765625,0.6407012939453125,-0.38006591796875,1,0.95
2020-05-16 12:49:39.538 -0400,11507.68112466667,-0.079559326171875,0.509796142578125,-0.5658416748046875,1,0.95
2020-05-16 12:49:39.608 -0400,11507.75095966667,-0.335723876953125,0.292877197265625,-0.1864166259765625,1,0.95
2020-05-16 12:49:39.678 -0400,11507.82079966667,-0.8307952880859375,0.42236328125,-0.2003326416015625,1,0.95
2020-05-16 12:49:39.748 -0400,11507.89063866667,-1.043182373046875,0.7361907958984375,-0.281402587890625,1,0.95
2020-05-16 12:49:39.817 -0400,11507.96047925,-1.402328491210938,0.75738525390625,-0.268768310546875,1,0.95
2020-05-16 12:49:39.887 -0400,11508.03031325,-1.171646118164062,0.425537109375,0.1429443359375,1,0.95
2020-05-16 12:49:39.957 -0400,11508.10014625,-0.9134368896484375,0.24395751953125,0.1708526611328125,1,0.95
2020-05-16 12:49:40.027 -0400,11508.16998725,-0.7157440185546875,0.3236083984375,-0.2030029296875,1,0.95
2020-05-16 12:49:40.098 -0400,11508.23982425,-0.6000823974609375,0.2147369384765625,0.0128631591796875,1,0.95
2020-05-16 12:49:40.167 -0400,11508.30966325,-0.644775390625,0.353668212890625,-0.1125335693359375,1,0.95
2020-05-16 12:49:40.237 -0400,11508.37950325,-1.015213012695312,0.3837127685546875,-0.0591583251953125,1,0.95
2020-05-16 12:49:40.308 -0400,11508.44934325,-1.314834594726562,0.6891021728515625,-0.06072998046875,1,0.95
2020-05-16 12:49:40.376 -0400,11508.51917625,-1.074142456054688,0.6529693603515625,0.3364105224609375,1,0.95
2020-05-16 12:49:40.446 -0400,11508.58901025,-0.935577392578125,0.76812744140625,0.237945556640625,1,0.95
2020-05-16 12:49:40.516 -0400,11508.65884925,-0.5615234375,0.4004364013671875,-0.146514892578125,1,0.95
2020-05-16 12:49:40.586 -0400,11508.72868725,-0.420928955078125,0.0869140625,-0.2069549560546875,1,0.95
2020-05-16 12:49:40.655 -0400,11508.79852525,-0.576324462890625,0.3327484130859375,-0.22784423828125,1,0.95
2020-05-16 12:49:40.725 -0400,11508.86836425,-0.7487945556640625,0.7834930419921875,-0.1413421630859375,1,0.95
2020-05-16 12:49:40.795 -0400,11508.93820429167,-1.07861328125,0.5599822998046875,-0.661651611328125,1,0.95
2020-05-16 12:49:40.865 -0400,11509.00804329167,-1.288726806640625,1.074966430664062,-0.1194915771484375,1,0.95
2020-05-16 12:49:40.935 -0400,11509.07787929167,-1.172164916992188,0.7651519775390625,-0.12030029296875,1,0.95
2020-05-16 12:49:41.005 -0400,11509.14771529167,-1.004867553710938,0.3906707763671875,-0.2422332763671875,1,0.95
2020-05-16 12:49:41.074 -0400,11509.21755529167,-0.6687774658203125,0.2356414794921875,-0.3473968505859375,1,0.95
2020-05-16 12:49:41.144 -0400,11509.28739529167,-0.396514892578125,-0.306365966796875,-0.4324951171875,1,0.95
2020-05-16 12:49:41.214 -0400,11509.35723029167,-0.9798126220703125,0.3123931884765625,-0.3478240966796875,1,0.95
2020-05-16 12:49:41.284 -0400,11509.42706929167,-0.9465179443359375,0.246124267578125,-0.7642974853515625,1,0.95
2020-05-16 12:49:41.354 -0400,11509.49690729167,-1.10748291015625,0.2201690673828125,-0.7415618896484375,1,0.95
2020-05-16 12:49:41.424 -0400,11509.56674529167,-0.6640625,0.6048736572265625,-0.6820220947265625,1,0.95
2020-05-16 12:49:41.494 -0400,11509.63658529167,-0.5502166748046875,0.345611572265625,-0.51416015625,1,0.95
2020-05-16 12:49:41.563 -0400,11509.70642229167,-0.6017913818359375,0.1480712890625,-0.5162353515625,1,0.95
2020-05-16 12:49:41.634 -0400,11509.77626029167,-0.49969482421875,-0.042633056640625,-0.3795623779296875,1,0.95
2020-05-16 12:49:41.703 -0400,11509.84609929167,-0.33282470703125,0.1371002197265625,-0.4908447265625,1,0.95
2020-05-16 12:49:41.773 -0400,11509.915934125,-0.1045379638671875,-0.0583953857421875,-0.283538818359375,1,0.95
2020-05-16 12:49:41.843 -0400,11509.985770125,-0.06585693359375,-0.159942626953125,-0.2932891845703125,1,0.95
2020-05-16 12:49:41.914 -0400,11510.055604125,0.4420013427734375,0.42724609375,0.0843353271484375,1,0.95
2020-05-16 12:49:41.984 -0400,11510.125440125,1.251495361328125,1.943145751953125,-0.132080078125,1,0.95
2020-05-16 12:49:42.102 -0400,11510.245159125,1.717819213867188,1.44744873046875,-0.4738006591796875,1,0.95
2020-05-16 12:49:42.222 -0400,11510.364878125,0.744720458984375,0.71514892578125,-0.0808563232421875,1,0.95
2020-05-16 12:49:42.332 -0400,11510.474619125,0.7867431640625,1.023193359375,0.4477996826171875,1,0.95
2020-05-16 12:49:42.402 -0400,11510.544455125,0.9092559814453125,0.7523345947265625,0.258453369140625,1,0.95
2020-05-16 12:49:42.473 -0400,11510.614291125,1.409698486328125,-0.529205322265625,-0.9182281494140625,1,0.95
2020-05-16 12:49:42.541 -0400,11510.684128125,0.932464599609375,0.4141693115234375,0.041290283203125,1,0.95
2020-05-16 12:49:42.611 -0400,11510.753962125,0.39215087890625,0.5030364990234375,0.119720458984375,1,0.95
2020-05-16 12:49:42.681 -0400,11510.823796125,0.6870574951171875,0.1693115234375,0.0904388427734375,1,0.95
2020-05-16 12:49:42.751 -0400,11510.893630125,0.99517822265625,0.039520263671875,0.1488189697265625,1,0.95
2020-05-16 12:49:42.820 -0400,11510.96346754167,1.052734375,0.77093505859375,-0.5749053955078125,1,0.95
2020-05-16 12:49:42.890 -0400,11511.03330254167,1.346328735351562,1.095733642578125,-0.331298828125,1,0.95
2020-05-16 12:49:42.960 -0400,11511.10313654167,1.112091064453125,0.7995452880859375,-0.197509765625,1,0.95
2020-05-16 12:49:43.030 -0400,11511.17296954167,0.92266845703125,0.1130218505859375,0.14031982421875,1,0.95
2020-05-16 12:49:43.100 -0400,11511.24280554167,0.66156005859375,0.1502838134765625,-0.009033203125,1,0.95
2020-05-16 12:49:43.170 -0400,11511.31263854167,0.40155029296875,0.125701904296875,0.0506591796875,1,0.95
2020-05-16 12:49:43.240 -0400,11511.38247254167,0.571258544921875,0.085693359375,-0.118621826171875,1,0.95
2020-05-16 12:49:43.309 -0400,11511.45230454167,1.1639404296875,0.563751220703125,-0.4032440185546875,1,0.95
2020-05-16 12:49:43.379 -0400,11511.52213754167,1.392364501953125,0.778106689453125,-0.31561279296875,1,0.95
2020-05-16 12:49:43.449 -0400,11511.59197554167,1.074859619140625,0.6536102294921875,-0.4781646728515625,1,0.95
2020-05-16 12:49:43.519 -0400,11511.66181154167,1.3173828125,0.1745452880859375,-0.2546234130859375,1,0.95
2020-05-16 12:49:43.589 -0400,11511.73164454167,0.7820281982421875,0.04840087890625,-0.1262359619140625,1,0.95
2020-05-16 12:49:43.659 -0400,11511.80147954167,0.300628662109375,0.135986328125,-0.2114715576171875,1,0.95
2020-05-16 12:49:43.728 -0400,11511.87131454167,0.276153564453125,0.160247802734375,-0.155059814453125,1,0.95
2020-05-16 12:49:43.798 -0400,11511.94115029167,0.3178558349609375,0.3034820556640625,-0.311248779296875,1,0.95
2020-05-16 12:49:43.868 -0400,11512.01098629167,0.2787628173828125,0.148529052734375,-0.687286376953125,1,0.95
2020-05-16 12:49:43.938 -0400,11512.08082929167,1.18975830078125,0.9452667236328125,-0.6762542724609375,1,0.95
2020-05-16 12:49:44.008 -0400,11512.15067429167,1.82861328125,0.7751312255859375,-0.78875732421875,1,0.95
2020-05-16 12:49:44.078 -0400,11512.22051729167,1.232818603515625,0.553741455078125,-0.4070892333984375,1,0.95
2020-05-16 12:49:44.147 -0400,11512.29036429167,0.5626220703125,0.3280181884765625,-0.3798675537109375,1,0.95
2020-05-16 12:49:44.217 -0400,11512.36021029167,0.3481903076171875,0.3978118896484375,-0.1403350830078125,1,0.95
2020-05-16 12:49:44.287 -0400,11512.43005829167,0.607025146484375,0.2320404052734375,-0.0333251953125,1,0.95
2020-05-16 12:49:44.357 -0400,11512.49990429167,1.0438232421875,0.2511444091796875,-0.041473388671875,1,0.95
2020-05-16 12:49:44.427 -0400,11512.56974629167,1.057342529296875,0.396453857421875,-0.0657958984375,1,0.95
2020-05-16 12:49:44.496 -0400,11512.63958729167,0.9778289794921875,0.5809173583984375,-0.3153228759765625,1,0.95
2020-05-16 12:49:44.581 -0400,11512.70942929167,1.749099731445312,0.5359649658203125,-0.3590240478515625,1,0.95
2020-05-16 12:49:44.636 -0400,11512.77926929167,0.845001220703125,0.3759002685546875,-0.2457427978515625,1,0.95
2020-05-16 12:49:44.706 -0400,11512.84911129167,0.4457855224609375,0.2434539794921875,-0.140289306640625,1,0.95
2020-05-16 12:49:44.776 -0400,11512.918948625,0.4667816162109375,0.463470458984375,-0.230072021484375,1,0.95
2020-05-16 12:49:44.846 -0400,11512.988782625,0.7548370361328125,0.351776123046875,-0.33135986328125,1,0.95
2020-05-16 12:49:44.916 -0400,11513.058622625,1.368682861328125,0.510467529296875,-0.3089599609375,1,0.95
2020-05-16 12:49:44.985 -0400,11513.128462625,1.4552001953125,1.076568603515625,-0.6661529541015625,1,0.95
2020-05-16 12:49:45.055 -0400,11513.198302625,1.653350830078125,0.17462158203125,-0.2702789306640625,1,0.95
2020-05-16 12:49:45.125 -0400,11513.268141625,0.82757568359375,-0.8587646484375,-0.1665191650390625,1,0.95
2020-05-16 12:49:45.195 -0400,11513.337982625,0.506561279296875,0.02703857421875,-0.1277313232421875,1,0.95
2020-05-16 12:49:45.265 -0400,11513.407824625,0.42803955078125,0.7058868408203125,0.034088134765625,1,0.95
2020-05-16 12:49:45.335 -0400,11513.477666625,0.723236083984375,0.39984130859375,0.0063323974609375,1,0.95
2020-05-16 12:49:45.405 -0400,11513.547506625,1.232635498046875,0.14117431640625,0.09063720703125,1,0.95
2020-05-16 12:49:45.474 -0400,11513.617347625,1.33453369140625,0.4102020263671875,0.087921142578125,1,0.95
2020-05-16 12:49:45.544 -0400,11513.687191625,1.021255493164062,0.6643829345703125,-0.26318359375,1,0.95
2020-05-16 12:49:45.614 -0400,11513.757033625,1.101470947265625,0.615142822265625,-0.4494476318359375,1,0.95
2020-05-16 12:49:45.684 -0400,11513.826878625,0.595733642578125,-0.0247039794921875,-0.385986328125,1,0.95
2020-05-16 12:49:45.754 -0400,11513.896723625,0.4888916015625,0.3086090087890625,-0.3946075439453125,1,0.95
2020-05-16 12:49:45.823 -0400,11513.966563875,0.6227264404296875,0.923980712890625,-0.33209228515625,1,0.95
2020-05-16 12:49:45.894 -0400,11514.036406875,1.158523559570312,0.582977294921875,-0.4963226318359375,1,0.95
2020-05-16 12:49:45.963 -0400,11514.106250875,1.274078369140625,0.688507080078125,-0.4738922119140625,1,0.95
2020-05-16 12:49:46.037 -0400,11514.176093875,1.178726196289062,0.5982513427734375,-0.3738555908203125,1,0.95
2020-05-16 12:49:46.103 -0400,11514.245933875,1.55047607421875,0.677520751953125,-0.1831207275390625,1,0.95
2020-05-16 12:49:46.173 -0400,11514.315777875,1.117721557617188,0.1409454345703125,-0.277923583984375,1,0.95
2020-05-16 12:49:46.243 -0400,11514.385623875,0.6010284423828125,0.2271728515625,-0.1566314697265625,1,0.95
2020-05-16 12:49:46.312 -0400,11514.455472875,0.64447021484375,0.3937225341796875,-0.044891357421875,1,0.95
2020-05-16 12:49:46.382 -0400,11514.525318875,1.159393310546875,0.3415069580078125,-0.0953216552734375,1,0.95
2020-05-16 12:49:46.452 -0400,11514.595159875,0.90216064453125,0.0708465576171875,0.163726806640625,1,0.95
2020-05-16 12:49:46.522 -0400,11514.665005875,0.871612548828125,0.4015960693359375,0.1688385009765625,1,0.95
2020-05-16 12:49:46.592 -0400,11514.734849875,1.336685180664062,0.788543701171875,-0.528839111328125,1,0.95
2020-05-16 12:49:46.662 -0400,11514.804689875,1.221817016601562,0.8206329345703125,-0.298065185546875,1,0.95
2020-05-16 12:49:46.731 -0400,11514.874525875,0.611114501953125,0.1060791015625,-0.238861083984375,1,0.95
2020-05-16 12:49:46.801 -0400,11514.944369125,0.6873779296875,0.2012481689453125,-0.2402496337890625,1,0.95
2020-05-16 12:49:46.871 -0400,11515.014216125,1.239273071289062,0.8416595458984375,-0.521453857421875,1,0.95
2020-05-16 12:49:46.941 -0400,11515.084061125,1.00457763671875,0.8996124267578125,-0.749725341796875,1,0.95
2020-05-16 12:49:47.011 -0400,11515.153910125,1.619384765625,0.671783447265625,-0.48699951171875,1,0.95
2020-05-16 12:49:47.081 -0400,11515.223756125,1.6436767578125,0.3408660888671875,-0.3089752197265625,1,0.95
2020-05-16 12:49:47.150 -0400,11515.293600125,1.583358764648438,-0.1463623046875,0.27587890625,1,0.95
2020-05-16 12:49:47.220 -0400,11515.363441125,0.8825531005859375,0.092864990234375,-0.2606201171875,1,0.95
2020-05-16 12:49:47.290 -0400,11515.433285125,0.5028839111328125,0.6817626953125,0.0740814208984375,1,0.95
2020-05-16 12:49:47.360 -0400,11515.503130125,0.813934326171875,0.4239044189453125,0.1876983642578125,1,0.95
2020-05-16 12:49:47.430 -0400,11515.572976125,1.150131225585938,0.148529052734375,0.1717376708984375,1,0.95
2020-05-16 12:49:47.500 -0400,11515.642824125,0.7671356201171875,0.2122344970703125,0.03204345703125,1,0.95
2020-05-16 12:49:47.570 -0400,11515.712674125,0.851348876953125,0.5377044677734375,-0.0624542236328125,1,0.95
2020-05-16 12:49:47.639 -0400,11515.782523125,1.432586669921875,0.967193603515625,-0.7474517822265625,1,0.95
2020-05-16 12:49:47.709 -0400,11515.852371125,0.913055419921875,0.247955322265625,-0.31292724609375,1,0.95
2020-05-16 12:49:47.779 -0400,11515.92222166667,0.5642242431640625,-0.5514068603515625,-0.43365478515625,1,0.95
2020-05-16 12:49:47.849 -0400,11515.99207266667,0.1856231689453125,1.148681640625,-0.03387451171875,1,0.95
2020-05-16 12:49:47.919 -0400,11516.06191766667,0.6456146240234375,0.80950927734375,-0.2908477783203125,1,0.95
2020-05-16 12:49:47.989 -0400,11516.13176266667,1.343490600585938,0.3961639404296875,-0.42236328125,1,0.95
2020-05-16 12:49:48.059 -0400,11516.20160566667,1.543563842773438,0.4813385009765625,-0.3460693359375,1,0.95
2020-05-16 12:49:48.128 -0400,11516.27144966667,1.52716064453125,0.6532135009765625,-0.2848358154296875,1,0.95
2020-05-16 12:49:48.198 -0400,11516.34129466667,1.208709716796875,0.4756011962890625,-0.2843017578125,1,0.95
2020-05-16 12:49:48.268 -0400,11516.41114066667,0.4380950927734375,0.262176513671875,-0.253662109375,1,0.95
2020-05-16 12:49:48.338 -0400,11516.48098466667,0.3155670166015625,0.2787017822265625,-0.0676422119140625,1,0.95
2020-05-16 12:49:48.408 -0400,11516.55082466667,0.6271209716796875,0.2888641357421875,-0.0904541015625,1,0.95
2020-05-16 12:49:48.478 -0400,11516.62066566667,1.167190551757812,0.321868896484375,-0.0356292724609375,1,0.95
2020-05-16 12:49:48.547 -0400,11516.69050866667,1.3541259765625,0.2693634033203125,-0.0853271484375,1,0.95
2020-05-16 12:49:48.617 -0400,11516.76034866667,1.204803466796875,0.4752044677734375,-0.17388916015625,1,0.95
2020-05-16 12:49:48.687 -0400,11516.83019266667,1.388031005859375,0.5151519775390625,-0.44854736328125,1,0.95
2020-05-16 12:49:48.757 -0400,11516.90003366667,0.56787109375,0.1833038330078125,-0.3477325439453125,1,0.95
2020-05-16 12:49:48.827 -0400,11516.969873,0.404083251953125,0.235107421875,-0.202789306640625,1,0.95
2020-05-16 12:49:48.897 -0400,11517.039714,0.7032318115234375,0.606781005859375,-0.25653076171875,1,0.95
2020-05-16 12:49:48.966 -0400,11517.109556,0.9630126953125,0.7097015380859375,-0.5211944580078125,1,0.95
2020-05-16 12:49:49.036 -0400,11517.179398,1.122817993164062,0.6855316162109375,-0.5269317626953125,1,0.95
2020-05-16 12:49:49.106 -0400,11517.249241,1.346572875976562,0.700714111328125,-0.491790771484375,1,0.95
2020-05-16 12:49:49.176 -0400,11517.319085,1.812652587890625,0.4263153076171875,-0.21820068359375,1,0.95
2020-05-16 12:49:49.246 -0400,11517.388931,1.327117919921875,0.1801605224609375,-0.2487030029296875,1,0.95
2020-05-16 12:49:49.316 -0400,11517.458774,0.715087890625,0.387451171875,-0.2107391357421875,1,0.95
2020-05-16 12:49:49.386 -0400,11517.528619,0.6100616455078125,0.3661651611328125,-0.00628662109375,1,0.95
2020-05-16 12:49:49.455 -0400,11517.59846,0.81243896484375,0.2816925048828125,-0.011016845703125,1,0.95
2020-05-16 12:49:49.525 -0400,11517.6683,1.056427001953125,0.19476318359375,0.059539794921875,1,0.95
2020-05-16 12:49:49.595 -0400,11517.738142,1.075149536132812,0.213653564453125,-0.0716552734375,1,0.95
2020-05-16 12:49:49.665 -0400,11517.807983,1.081268310546875,0.421966552734375,-0.200103759765625,1,0.95
2020-05-16 12:49:49.735 -0400,11517.877823,1.585739135742188,0.5826873779296875,-0.325225830078125,1,0.95
2020-05-16 12:49:49.804 -0400,11517.94766566667,0.9911956787109375,0.3582305908203125,-0.332672119140625,1,0.95
2020-05-16 12:49:49.874 -0400,11518.01750866667,0.769622802734375,0.5593414306640625,-0.300689697265625,1,0.95
2020-05-16 12:49:49.944 -0400,11518.08735266667,1.007583618164062,0.745391845703125,-0.3975830078125,1,0.95
2020-05-16 12:49:50.014 -0400,11518.15719466667,0.859344482421875,0.789703369140625,-0.621826171875,1,0.95
2020-05-16 12:49:50.084 -0400,11518.22703566667,1.581588745117188,0.7896728515625,-0.4853668212890625,1,0.95
2020-05-16 12:49:50.154 -0400,11518.29687766667,1.478713989257812,0.382965087890625,-0.46441650390625,1,0.95
2020-05-16 12:49:50.225 -0400,11518.36672166667,1.708786010742188,0.414794921875,-0.22967529296875,1,0.95
2020-05-16 12:49:50.294 -0400,11518.43656266667,1.137939453125,0.41790771484375,-0.27069091796875,1,0.95
2020-05-16 12:49:50.363 -0400,11518.50640366667,0.696258544921875,0.306854248046875,-0.0407867431640625,1,0.95
2020-05-16 12:49:50.433 -0400,11518.57624666667,0.77313232421875,0.2930450439453125,-0.00848388671875,1,0.95
2020-05-16 12:49:50.503 -0400,11518.64608866667,0.9476470947265625,0.2337646484375,0.00384521484375,1,0.95
2020-05-16 12:49:50.573 -0400,11518.71593466667,0.929962158203125,0.3697967529296875,-0.0238037109375,1,0.95
2020-05-16 12:49:50.643 -0400,11518.78577966667,0.7753753662109375,0.700408935546875,-0.3933258056640625,1,0.95
2020-05-16 12:49:50.713 -0400,11518.85562666667,0.641265869140625,1.216690063476562,-0.789398193359375,1,0.95
2020-05-16 12:49:50.782 -0400,11518.92547125,0.8606109619140625,0.695220947265625,-0.631561279296875,1,0.95
2020-05-16 12:49:50.852 -0400,11518.99531425,0.369049072265625,0.6881256103515625,-0.66961669921875,1,0.95
2020-05-16 12:49:50.922 -0400,11519.06515725,-0.1844024658203125,0.7599945068359375,-0.57958984375,1,0.95
2020-05-16 12:49:50.992 -0400,11519.13500225,-0.3076171875,0.795166015625,-0.0560760498046875,1,0.95
2020-05-16 12:49:51.062 -0400,11519.20484525,0.096649169921875,0.8038177490234375,-0.1718292236328125,1,0.95
2020-05-16 12:49:51.132 -0400,11519.27468725,0.7960205078125,1.006500244140625,-0.24822998046875,1,0.95
2020-05-16 12:49:51.201 -0400,11519.34453125,1.379989624023438,1.987213134765625,-0.2632293701171875,1,0.95
2020-05-16 12:49:51.281 -0400,11519.41437425,1.3319091796875,0.8792877197265625,-0.351898193359375,1,0.95
2020-05-16 12:49:51.341 -0400,11519.48421725,0.9403839111328125,0.752166748046875,-0.291473388671875,1,0.95
2020-05-16 12:49:51.411 -0400,11519.55406125,0.49383544921875,0.2761383056640625,-0.181732177734375,1,0.95
2020-05-16 12:49:51.481 -0400,11519.62390525,0.4332275390625,0.1802520751953125,-0.1027679443359375,1,0.95
2020-05-16 12:49:51.551 -0400,11519.69374925,0.59832763671875,0.158050537109375,-0.070404052734375,1,0.95
2020-05-16 12:49:51.621 -0400,11519.76359725,0.8006591796875,0.227996826171875,-0.0235137939453125,1,0.95
2020-05-16 12:49:51.690 -0400,11519.83344525,1.42803955078125,0.4825592041015625,0.0006103515625,1,0.95
2020-05-16 12:49:51.760 -0400,11519.90329225,1.650070190429688,0.99517822265625,-0.4913330078125,1,0.95
2020-05-16 12:49:51.830 -0400,11519.97313654167,1.405685424804688,0.728118896484375,-0.0775909423828125,1,0.95
2020-05-16 12:49:51.900 -0400,11520.04298054167,0.803558349609375,-0.046051025390625,-0.220855712890625,1,0.95
2020-05-16 12:49:51.970 -0400,11520.11283054167,0.5322265625,0.3618316650390625,-0.117950439453125,1,0.95
2020-05-16 12:49:52.040 -0400,11520.18268054167,0.419403076171875,0.7020263671875,-0.098114013671875,1,0.95
2020-05-16 12:49:52.109 -0400,11520.25252554167,0.668212890625,0.677703857421875,-0.2515106201171875,1,0.95
2020-05-16 12:49:52.179 -0400,11520.32237054167,1.20172119140625,0.7722320556640625,-0.5215301513671875,1,0.95
2020-05-16 12:49:52.249 -0400,11520.39221454167,1.572998046875,0.4939727783203125,-0.3710479736328125,1,0.95
2020-05-16 12:49:52.321 -0400,11520.46205554167,1.627578735351562,0.3230743408203125,-0.3204193115234375,1,0.95
2020-05-16 12:49:52.389 -0400,11520.53190354167,1.519149780273438,0.413238525390625,-0.23883056640625,1,0.95
2020-05-16 12:49:52.459 -0400,11520.60174854167,0.7530364990234375,0.2783966064453125,-0.1840362548828125,1,0.95
2020-05-16 12:49:52.529 -0400,11520.67159354167,0.4412994384765625,0.2923583984375,-0.014739990234375,1,0.95
2020-05-16 12:49:52.598 -0400,11520.74144054167,0.6146240234375,0.253326416015625,-0.00030517578125,1,0.95
2020-05-16 12:49:52.668 -0400,11520.81128554167,0.837921142578125,0.217620849609375,0.03485107421875,1,0.95
2020-05-16 12:49:52.738 -0400,11520.88113154167,0.9354400634765625,0.2463836669921875,0.0229339599609375,1,0.95
2020-05-16 12:49:52.808 -0400,11520.950977375,1.224319458007812,0.558135986328125,-0.06036376953125,1,0.95
2020-05-16 12:49:52.878 -0400,11521.020821375,1.429397583007812,0.7863922119140625,-0.678863525390625,1,0.95
2020-05-16 12:49:52.948 -0400,11521.090665375,1.276962280273438,0.4105072021484375,-0.169586181640625,1,0.95
2020-05-16 12:49:53.017 -0400,11521.160513375,0.6214752197265625,0.0028076171875,-0.385162353515625,1,0.95
2020-05-16 12:49:53.087 -0400,11521.230358375,0.585540771484375,0.4973907470703125,-0.23175048828125,1,0.95
2020-05-16 12:49:53.157 -0400,11521.300198375,0.7883148193359375,0.7164306640625,-0.377410888671875,1,0.95
2020-05-16 12:49:53.227 -0400,11521.370036375,0.8141326904296875,0.456298828125,-0.44158935546875,1,0.95
2020-05-16 12:49:53.297 -0400,11521.439879375,1.565628051757812,0.6366119384765625,-0.504638671875,1,0.95
2020-05-16 12:49:53.367 -0400,11521.509720375,1.388687133789062,0.5280914306640625,-0.3735809326171875,1,0.95
2020-05-16 12:49:53.436 -0400,11521.579563375,1.556716918945312,0.0919342041015625,-0.1161346435546875,1,0.95
2020-05-16 12:49:53.506 -0400,11521.649404375,1.073684692382812,0.3886260986328125,-0.1664886474609375,1,0.95
2020-05-16 12:49:53.576 -0400,11521.719242375,0.6590423583984375,0.431182861328125,-0.0628204345703125,1,0.95
2020-05-16 12:49:53.646 -0400,11521.789081375,0.5064697265625,0.3178863525390625,0.075225830078125,1,0.95
2020-05-16 12:49:53.716 -0400,11521.858921375,0.6286773681640625,0.2593841552734375,0.052490234375,1,0.95
2020-05-16 12:49:53.786 -0400,11521.928758375,0.9229278564453125,0.2758941650390625,0.0625457763671875,1,0.95
2020-05-16 12:49:53.856 -0400,11521.998598375,0.975250244140625,0.33648681640625,-0.072998046875,1,0.95
2020-05-16 12:49:53.925 -0400,11522.068432375,1.324813842773438,0.47625732421875,-0.14605712890625,1,0.95
2020-05-16 12:49:53.995 -0400,11522.138268375,1.066238403320312,0.558380126953125,-0.7051239013671875,1,0.95
2020-05-16 12:49:54.065 -0400,11522.208102375,1.160568237304688,0.2334747314453125,-0.38348388671875,1,0.95
2020-05-16 12:49:54.135 -0400,11522.277937375,0.6868438720703125,0.164215087890625,-0.361358642578125,1,0.95
2020-05-16 12:49:54.205 -0400,11522.347771375,0.6044158935546875,0.58038330078125,-0.4097442626953125,1,0.95
2020-05-16 12:49:54.274 -0400,11522.417600375,0.6934967041015625,0.708282470703125,-0.5552825927734375,1,0.95
2020-05-16 12:49:54.345 -0400,11522.487429375,0.909698486328125,0.538909912109375,-0.490631103515625,1,0.95
2020-05-16 12:49:54.414 -0400,11522.557264375,1.113861083984375,0.512969970703125,-0.472259521484375,1,0.95
2020-05-16 12:49:54.484 -0400,11522.627100375,1.545623779296875,0.5570068359375,-0.363739013671875,1,0.95
2020-05-16 12:49:54.554 -0400,11522.696935375,1.470993041992188,0.4705963134765625,-0.288543701171875,1,0.95
2020-05-16 12:49:54.624 -0400,11522.766770375,1.476455688476562,0.44970703125,-0.18634033203125,1,0.95
2020-05-16 12:49:54.694 -0400,11522.836608375,0.9448089599609375,0.3519439697265625,-0.1044464111328125,1,0.95
2020-05-16 12:49:54.763 -0400,11522.906443375,0.59967041015625,0.453948974609375,-0.0970916748046875,1,0.95
2020-05-16 12:49:54.833 -0400,11522.976278125,0.50238037109375,0.3087310791015625,-0.1098785400390625,1,0.95
2020-05-16 12:49:54.903 -0400,11523.046113125,0.5086212158203125,0.3561859130859375,-0.1254425048828125,1,0.95
2020-05-16 12:49:54.973 -0400,11523.115945125,0.59271240234375,0.568023681640625,-0.5596771240234375,1,0.95
2020-05-16 12:49:55.043 -0400,11523.185783125,0.799285888671875,0.4251708984375,-1.002883911132812,1,0.95
2020-05-16 12:49:55.113 -0400,11523.255620125,0.5611724853515625,0.2108612060546875,-1.181442260742188,1,0.95
2020-05-16 12:49:55.182 -0400,11523.325459125,0.736236572265625,0.089691162109375,-1.14190673828125,1,0.95
2020-05-16 12:49:55.252 -0400,11523.395299125,0.3808746337890625,0.0267181396484375,-0.89801025390625,1,0.95
2020-05-16 12:49:55.322 -0400,11523.465136125,0.1688385009765625,-0.04925537109375,-0.6686553955078125,1,0.95
2020-05-16 12:49:55.392 -0400,11523.534971125,0.0775146484375,-0.0922698974609375,-0.5749664306640625,1,0.95
2020-05-16 12:49:55.462 -0400,11523.604812125,-0.1230316162109375,-0.08203125,-0.7875213623046875,1,0.95
2020-05-16 12:49:55.581 -0400,11523.724538125,0.3017730712890625,0.2420501708984375,-1.466293334960938,1,0.95
2020-05-16 12:49:55.701 -0400,11523.844263125,0.1350250244140625,0.1711883544921875,-1.1297607421875,1,0.95
2020-05-16 12:49:55.821 -0400,11523.96398979167,-0.0732879638671875,-0.0033111572265625,-0.826507568359375,1,0.95
2020-05-16 12:49:55.951 -0400,11524.08371679167,-0.0413360595703125,-0.109405517578125,-0.638946533203125,1,0.95
