loggingTime(txt),accelerometerTimestamp_sinceReboot(s),accelerometerAccelerationX(G),accelerometerAccelerationY(G),accelerometerAccelerationZ(G),batteryState,batteryLevel
2020-05-16 12:50:00.294 -0400,11528.42389875,0.0282440185546875,-0.133636474609375,-1.364273071289062,1,0.95
2020-05-16 12:50:00.400 -0400,11528.54362575,0.3001861572265625,-0.1147003173828125,-0.9342193603515625,1,0.95
2020-05-16 12:50:00.525 -0400,11528.66335975,0.101470947265625,-0.0939483642578125,-0.43548583984375,1,0.95
2020-05-16 12:50:00.640 -0400,11528.78308975,0.1970977783203125,0.096405029296875,-0.6745452880859375,1,0.95
2020-05-16 12:50:00.760 -0400,11528.90281475,0.9435272216796875,0.4326934814453125,-1.070510864257812,1,0.95
2020-05-16 12:50:00.880 -0400,11529.022546625,1.267410278320312,0.421600341796875,-1.109649658203125,1,0.95
2020-05-16 12:50:00.999 -0400,11529.142271625,0.7094268798828125,0.242462158203125,-0.63958740234375,1,0.95
2020-05-16 12:50:01.119 -0400,11529.262001625,0.4544830322265625,0.2308349609375,-0.3947906494140625,1,0.95
2020-05-16 12:50:01.239 -0400,11529.381735625,1.086822509765625,0.238037109375,-0.3360137939453125,1,0.95
2020-05-16 12:50:01.318 -0400,11529.451579625,0.9539642333984375,0.1515350341796875,-0.25897216796875,1,0.95
2020-05-16 12:50:01.378 -0400,11529.521422625,0.696502685546875,0.2715606689453125,-0.4028167724609375,1,0.95
2020-05-16 12:50:01.448 -0400,11529.591265625,0.9014129638671875,0.2765045166015625,-0.3632049560546875,1,0.95
2020-05-16 12:50:01.518 -0400,11529.661109625,1.623504638671875,0.3748016357421875,-0.6833038330078125,1,0.95
2020-05-16 12:50:01.588 -0400,11529.730954625,0.7610321044921875,-0.1568603515625,-0.385101318359375,1,0.95
2020-05-16 12:50:01.658 -0400,11529.800799625,0.378082275390625,0.0303955078125,-0.4916229248046875,1,0.95
2020-05-16 12:50:01.728 -0400,11529.870644625,0.3007659912109375,0.2376861572265625,-0.29864501953125,1,0.95
2020-05-16 12:50:01.798 -0400,11529.940488375,0.43109130859375,0.2942657470703125,-0.2798309326171875,1,0.95
2020-05-16 12:50:01.867 -0400,11530.010332375,1.142608642578125,0.5996551513671875,-0.3890533447265625,1,0.95
2020-05-16 12:50:01.937 -0400,11530.080179375,2.340087890625,0.91021728515625,-0.507720947265625,1,0.95
2020-05-16 12:50:02.007 -0400,11530.150022375,1.719284057617188,0.14495849609375,-0.17437744140625,1,0.95
2020-05-16 12:50:02.077 -0400,11530.219863375,0.58270263671875,0.212371826171875,-0.398590087890625,1,0.95
2020-05-16 12:50:02.147 -0400,11530.289704375,0.3010406494140625,0.350677490234375,-0.16357421875,1,0.95
2020-05-16 12:50:02.221 -0400,11530.359551375,0.4605255126953125,0.1665802001953125,-0.01983642578125,1,0.95
2020-05-16 12:50:02.287 -0400,11530.429395375,0.733428955078125,0.13970947265625,-0.0052642822265625,1,0.95
2020-05-16 12:50:02.356 -0400,11530.499238375,0.7000732421875,0.5447845458984375,-0.078216552734375,1,0.95
2020-05-16 12:50:02.426 -0400,11530.569080375,1.150360107421875,0.4648895263671875,-0.247283935546875,1,0.95
2020-05-16 12:50:02.496 -0400,11530.638915375,1.957183837890625,0.6288909912109375,-0.54345703125,1,0.95
2020-05-16 12:50:02.566 -0400,11530.708755375,0.7638702392578125,0.303985595703125,-0.4444580078125,1,0.95
2020-05-16 12:50:02.635 -0400,11530.778598375,0.384552001953125,0.203155517578125,-0.281646728515625,1,0.95
2020-05-16 12:50:02.705 -0400,11530.848437375,0.5022125244140625,0.49615478515625,-0.2764892578125,1,0.95
2020-05-16 12:50:02.775 -0400,11530.91827975,0.932342529296875,0.7002105712890625,-0.55230712890625,1,0.95
2020-05-16 12:50:02.845 -0400,11530.98811875,1.2891845703125,0.541473388671875,-0.5102081298828125,1,0.95
2020-05-16 12:50:02.915 -0400,11531.05795875,1.329833984375,0.6173095703125,-0.54119873046875,1,0.95
2020-05-16 12:50:02.985 -0400,11531.12779575,1.599716186523438,0.5079193115234375,-0.280914306640625,1,0.95
2020-05-16 12:50:03.055 -0400,11531.19763075,1.155914306640625,0.24725341796875,-0.2601776123046875,1,0.95
2020-05-16 12:50:03.124 -0400,11531.26746375,0.5846099853515625,0.28057861328125,-0.18084716796875,1,0.95
2020-05-16 12:50:03.194 -0400,11531.33729775,0.51190185546875,0.3205718994140625,-0.049560546875,1,0.95
2020-05-16 12:50:03.264 -0400,11531.40713575,0.902191162109375,0.2705841064453125,-0.1397705078125,1,0.95
2020-05-16 12:50:03.334 -0400,11531.47697175,0.9868011474609375,0.1292724609375,0.0464935302734375,1,0.95
2020-05-16 12:50:03.404 -0400,11531.54681475,1.08758544921875,0.291748046875,-0.1152496337890625,1,0.95
2020-05-16 12:50:03.474 -0400,11531.61665475,1.317825317382812,0.594573974609375,-0.3736572265625,1,0.95
2020-05-16 12:50:03.544 -0400,11531.68649575,1.523483276367188,0.5674285888671875,-0.408599853515625,1,0.95
2020-05-16 12:50:03.613 -0400,11531.75633475,0.746246337890625,0.2133026123046875,-0.263824462890625,1,0.95
2020-05-16 12:50:03.683 -0400,11531.82617475,0.732147216796875,0.5413360595703125,-0.24908447265625,1,0.95
2020-05-16 12:50:03.753 -0400,11531.89601975,0.91748046875,0.7472381591796875,-0.623809814453125,1,0.95
2020-05-16 12:50:03.823 -0400,11531.965862,0.9852142333984375,0.3805389404296875,-0.6663055419921875,1,0.95
2020-05-16 12:50:03.893 -0400,11532.035706,1.663787841796875,0.7122039794921875,-0.6005096435546875,1,0.95
2020-05-16 12:50:03.962 -0400,11532.10555,1.627517700195312,0.52337646484375,-0.543487548828125,1,0.95
2020-05-16 12:50:04.032 -0400,11532.175393,1.603607177734375,0.2897491455078125,-0.2312469482421875,1,0.95
2020-05-16 12:50:04.102 -0400,11532.245229,0.9314422607421875,0.4005889892578125,-0.249298095703125,1,0.95
2020-05-16 12:50:04.172 -0400,11532.315067,0.7782745361328125,0.3543548583984375,-0.082489013671875,1,0.95
2020-05-16 12:50:04.242 -0400,11532.384905,0.9260101318359375,0.3084869384765625,-0.0399322509765625,1,0.95
2020-05-16 12:50:04.312 -0400,11532.454739,1.002288818359375,0.1349945068359375,-0.0155487060546875,1,0.95
2020-05-16 12:50:04.382 -0400,11532.524577,0.8263397216796875,0.135101318359375,-0.0182647705078125,1,0.95
2020-05-16 12:50:04.451 -0400,11532.594415,0.716949462890625,0.3336181640625,-0.0400238037109375,1,0.95
2020-05-16 12:50:04.521 -0400,11532.664253,1.22027587890625,0.578277587890625,-0.40069580078125,1,0.95
2020-05-16 12:50:04.591 -0400,11532.734093,1.084976196289062,0.5378875732421875,-0.492645263671875,1,0.95
2020-05-16 12:50:04.661 -0400,11532.80393,0.7219085693359375,0.23284912109375,-0.3629913330078125,1,0.95
2020-05-16 12:50:04.731 -0400,11532.873766,0.9211883544921875,0.3930816650390625,-0.473785400390625,1,0.95
2020-05-16 12:50:04.800 -0400,11532.943605875,1.163345336914062,0.798553466796875,-0.74176025390625,1,0.95
2020-05-16 12:50:04.870 -0400,11533.013447875,1.21728515625,0.6002349853515625,-0.6491241455078125,1,0.95
2020-05-16 12:50:04.940 -0400,11533.083288875,1.122451782226562,0.4736175537109375,-0.50445556640625,1,0.95
2020-05-16 12:50:05.010 -0400,11533.153127875,1.582015991210938,0.5576934814453125,-0.30731201171875,1,0.95
2020-05-16 12:50:05.080 -0400,11533.222968875,1.136581420898438,0.3554840087890625,-0.21234130859375,1,0.95
2020-05-16 12:50:05.150 -0400,11533.292812875,0.6202545166015625,0.3086395263671875,-0.1531219482421875,1,0.95
2020-05-16 12:50:05.219 -0400,11533.362650875,0.55572509765625,0.3767242431640625,-0.0140228271484375,1,0.95
2020-05-16 12:50:05.289 -0400,11533.432491875,1.007492065429688,0.331024169921875,-0.0121612548828125,1,0.95
2020-05-16 12:50:05.359 -0400,11533.502334875,0.994842529296875,0.1437530517578125,0.108795166015625,1,0.95
2020-05-16 12:50:05.429 -0400,11533.572173875,1.082687377929688,0.2834930419921875,-0.023651123046875,1,0.95
2020-05-16 12:50:05.499 -0400,11533.642016875,0.9443359375,0.5738677978515625,-0.3584136962890625,1,0.95
2020-05-16 12:50:05.569 -0400,11533.711857875,1.347412109375,0.43817138671875,-0.33428955078125,1,0.95
2020-05-16 12:50:05.639 -0400,11533.781696875,0.722991943359375,0.04486083984375,-0.302642822265625,1,0.95
2020-05-16 12:50:05.708 -0400,11533.851532875,0.5712432861328125,0.2857208251953125,-0.298004150390625,1,0.95
2020-05-16 12:50:05.778 -0400,11533.921366625,0.8600006103515625,0.6230621337890625,-0.33349609375,1,0.95
2020-05-16 12:50:05.848 -0400,11533.991202625,1.102401733398438,0.6514434814453125,-0.567901611328125,1,0.95
2020-05-16 12:50:05.918 -0400,11534.061040625,1.425140380859375,0.570404052734375,-0.4904022216796875,1,0.95
2020-05-16 12:50:05.988 -0400,11534.130876625,1.23419189453125,0.5877532958984375,-0.5367584228515625,1,0.95
2020-05-16 12:50:06.058 -0400,11534.200711625,1.481216430664062,0.419464111328125,-0.1886444091796875,1,0.95
2020-05-16 12:50:06.128 -0400,11534.270548625,0.9554443359375,0.1670379638671875,-0.2763519287109375,1,0.95
2020-05-16 12:50:06.198 -0400,11534.340383625,0.5869598388671875,0.3316497802734375,-0.14837646484375,1,0.95
2020-05-16 12:50:06.267 -0400,11534.410220625,0.6047515869140625,0.3675384521484375,-0.0417022705078125,1,0.95
2020-05-16 12:50:06.338 -0400,11534.480056625,1.307174682617188,0.3063201904296875,-0.060394287109375,1,0.95
2020-05-16 12:50:06.407 -0400,11534.549888625,1.188247680664062,0.26129150390625,-0.0042877197265625,1,0.95
2020-05-16 12:50:06.477 -0400,11534.619721625,1.109893798828125,0.273101806640625,-0.0013427734375,1,0.95
2020-05-16 12:50:06.547 -0400,11534.689555625,1.256423950195312,0.5682525634765625,-0.30517578125,1,0.95
2020-05-16 12:50:06.617 -0400,11534.759388625,1.022506713867188,0.5115509033203125,-0.363494873046875,1,0.95
2020-05-16 12:50:06.686 -0400,11534.829221625,0.5960693359375,0.193145751953125,-0.1862945556640625,1,0.95
2020-05-16 12:50:06.756 -0400,11534.899055625,0.5162200927734375,0.3943328857421875,-0.201324462890625,1,0.95
2020-05-16 12:50:06.826 -0400,11534.96889225,0.9693145751953125,0.5583343505859375,-0.349822998046875,1,0.95
2020-05-16 12:50:06.896 -0400,11535.03872625,1.093246459960938,0.460906982421875,-0.4502105712890625,1,0.95
2020-05-16 12:50:06.966 -0400,11535.10856625,1.4625244140625,0.54486083984375,-0.387939453125,1,0.95
2020-05-16 12:50:07.036 -0400,11535.17840325,1.714706420898438,0.6323089599609375,-0.467193603515625,1,0.95
2020-05-16 12:50:07.105 -0400,11535.24824525,1.546401977539062,0.333953857421875,-0.2198944091796875,1,0.95
2020-05-16 12:50:07.175 -0400,11535.31808625,0.839141845703125,0.3333740234375,-0.244476318359375,1,0.95
2020-05-16 12:50:07.245 -0400,11535.38792325,0.4469451904296875,0.286285400390625,-0.078765869140625,1,0.95
2020-05-16 12:50:07.315 -0400,11535.45775725,0.5063323974609375,0.2518157958984375,-0.0066986083984375,1,0.95
2020-05-16 12:50:07.384 -0400,11535.52759225,1.075714111328125,0.243438720703125,-0.032623291015625,1,0.95
2020-05-16 12:50:07.454 -0400,11535.59742725,0.947174072265625,0.2581939697265625,0.0433349609375,1,0.95
2020-05-16 12:50:07.524 -0400,11535.66726325,1.128448486328125,0.4293670654296875,-0.1428985595703125,1,0.95
2020-05-16 12:50:07.594 -0400,11535.73710025,1.49212646484375,0.616973876953125,-0.3656768798828125,1,0.95
2020-05-16 12:50:07.664 -0400,11535.80693525,1.187957763671875,0.47088623046875,-0.343994140625,1,0.95
2020-05-16 12:50:07.734 -0400,11535.87677125,0.609161376953125,0.1481475830078125,-0.2845458984375,1,0.95
2020-05-16 12:50:07.803 -0400,11535.946603625,0.6103973388671875,0.3616943359375,-0.250762939453125,1,0.95
2020-05-16 12:50:07.874 -0400,11536.016437625,0.9292449951171875,0.64501953125,-0.476043701171875,1,0.95
2020-05-16 12:50:07.943 -0400,11536.086274625,0.9749908447265625,0.581085205078125,-0.5961456298828125,1,0.95
2020-05-16 12:50:08.013 -0400,11536.156106625,1.466049194335938,0.6029510498046875,-0.54901123046875,1,0.95
2020-05-16 12:50:08.083 -0400,11536.225944625,1.608779907226562,0.5089874267578125,-0.556427001953125,1,0.95
2020-05-16 12:50:08.153 -0400,11536.295781625,1.65533447265625,0.24432373046875,-0.1318511962890625,1,0.95
2020-05-16 12:50:08.223 -0400,11536.365622625,0.8860321044921875,0.4255218505859375,-0.2883453369140625,1,0.95
2020-05-16 12:50:08.292 -0400,11536.435463625,0.5742645263671875,0.3821563720703125,-0.0539398193359375,1,0.95
2020-05-16 12:50:08.362 -0400,11536.505302625,0.591400146484375,0.305572509765625,0.0247650146484375,1,0.95
2020-05-16 12:50:08.432 -0400,11536.575143625,0.8992462158203125,0.2181396484375,0.001953125,1,0.95
2020-05-16 12:50:08.502 -0400,11536.644982625,0.8190460205078125,0.1787109375,0.021453857421875,1,0.95
2020-05-16 12:50:08.572 -0400,11536.714827625,0.975830078125,0.3863525390625,-0.1080474853515625,1,0.95
2020-05-16 12:50:08.642 -0400,11536.784668625,1.688552856445312,0.694915771484375,-0.5532989501953125,1,0.95
2020-05-16 12:50:08.711 -0400,11536.854510625,1.063461303710938,0.447357177734375,-0.3123626708984375,1,0.95
2020-05-16 12:50:08.781 -0400,11536.924349875,0.6388092041015625,0.0173187255859375,-0.246185302734375,1,0.95
2020-05-16 12:50:08.851 -0400,11536.994187875,0.7215576171875,0.373626708984375,-0.18402099609375,1,0.95
2020-05-16 12:50:08.921 -0400,11537.064023875,1.151229858398438,0.9164276123046875,-0.550018310546875,1,0.95
2020-05-16 12:50:08.991 -0400,11537.133858875,1.021865844726562,0.65753173828125,-0.6765289306640625,1,0.95
2020-05-16 12:50:09.061 -0400,11537.203694875,1.535324096679688,0.6119384765625,-0.58624267578125,1,0.95
2020-05-16 12:50:09.131 -0400,11537.273531875,1.56536865234375,0.3606414794921875,-0.2945404052734375,1,0.95
2020-05-16 12:50:09.200 -0400,11537.343366875,1.293502807617188,0.4583282470703125,-0.2261962890625,1,0.95
2020-05-16 12:50:09.270 -0400,11537.413206875,0.75054931640625,0.416473388671875,-0.177215576171875,1,0.95
2020-05-16 12:50:09.340 -0400,11537.483042875,0.569854736328125,0.3855743408203125,0.027984619140625,1,0.95
2020-05-16 12:50:09.410 -0400,11537.552880875,0.7513580322265625,0.3137054443359375,0.0234222412109375,1,0.95
2020-05-16 12:50:09.480 -0400,11537.622720875,1.175552368164062,0.2342681884765625,0.067474365234375,1,0.95
2020-05-16 12:50:09.549 -0400,11537.692558875,0.8957061767578125,0.2194671630859375,-0.0390777587890625,1,0.95
2020-05-16 12:50:09.619 -0400,11537.762396875,0.9098663330078125,0.4390716552734375,-0.1879425048828125,1,0.95
2020-05-16 12:50:09.689 -0400,11537.832235875,1.360824584960938,0.4949951171875,-0.4456787109375,1,0.95
2020-05-16 12:50:09.759 -0400,11537.902076875,1.065933227539062,0.2427520751953125,-0.32666015625,1,0.95
2020-05-16 12:50:09.829 -0400,11537.971913125,0.7131500244140625,0.2623748779296875,-0.36614990234375,1,0.95
2020-05-16 12:50:09.899 -0400,11538.041748125,0.6688079833984375,0.62994384765625,-0.3005523681640625,1,0.95
2020-05-16 12:50:09.969 -0400,11538.111586125,1.141189575195312,0.7397308349609375,-0.4718170166015625,1,0.95
2020-05-16 12:50:10.038 -0400,11538.181418125,0.994781494140625,0.6389007568359375,-0.5638885498046875,1,0.95
2020-05-16 12:50:10.108 -0400,11538.251253125,1.634811401367188,0.77874755859375,-0.466400146484375,1,0.95
2020-05-16 12:50:10.178 -0400,11538.321092125,1.336227416992188,0.4177703857421875,-0.3679046630859375,1,0.95
2020-05-16 12:50:10.248 -0400,11538.390929125,1.461715698242188,0.50469970703125,-0.1829376220703125,1,0.95
2020-05-16 12:50:10.318 -0400,11538.460763125,0.92657470703125,0.364593505859375,-0.17254638671875,1,0.95
2020-05-16 12:50:10.389 -0400,11538.530599125,0.5743408203125,0.346832275390625,-0.0159149169921875,1,0.95
2020-05-16 12:50:10.457 -0400,11538.600435125,0.5480194091796875,0.27740478515625,0.0134429931640625,1,0.95
2020-05-16 12:50:10.527 -0400,11538.670274125,0.988555908203125,0.2861480712890625,0.0143280029296875,1,0.95
2020-05-16 12:50:10.597 -0400,11538.740109125,1.039505004882812,0.1957244873046875,0.0818939208984375,1,0.95
2020-05-16 12:50:10.667 -0400,11538.809947125,1.168869018554688,0.374267578125,0.043731689453125,1,0.95
2020-05-16 12:50:10.737 -0400,11538.879787125,1.226913452148438,0.654937744140625,-0.42193603515625,1,0.95
2020-05-16 12:50:10.807 -0400,11538.94962479167,1.213333129882812,0.51824951171875,-0.2549896240234375,1,0.95
2020-05-16 12:50:10.876 -0400,11539.01946279167,0.6819915771484375,0.20855712890625,-0.3264312744140625,1,0.95
2020-05-16 12:50:10.946 -0400,11539.08929979167,0.55804443359375,0.3498077392578125,-0.206085205078125,1,0.95
2020-05-16 12:50:11.016 -0400,11539.15913779167,0.910430908203125,0.60296630859375,-0.3497161865234375,1,0.95
2020-05-16 12:50:11.086 -0400,11539.22897879167,1.23095703125,0.6147308349609375,-0.498992919921875,1,0.95
2020-05-16 12:50:11.156 -0400,11539.29881679167,1.563446044921875,0.684661865234375,-0.519775390625,1,0.95
2020-05-16 12:50:11.226 -0400,11539.36865779167,1.229522705078125,0.5424346923828125,-0.4175567626953125,1,0.95
2020-05-16 12:50:11.296 -0400,11539.43849579167,1.293975830078125,0.4105987548828125,-0.2047271728515625,1,0.95
2020-05-16 12:50:11.366 -0400,11539.50833179167,1.06494140625,0.30865478515625,-0.15924072265625,1,0.95
2020-05-16 12:50:11.435 -0400,11539.57816679167,0.670257568359375,0.3114166259765625,-0.1164093017578125,1,0.95
2020-05-16 12:50:11.505 -0400,11539.64800479167,0.680572509765625,0.3815155029296875,-0.0257720947265625,1,0.95
2020-05-16 12:50:11.575 -0400,11539.71783979167,1.130325317382812,0.2777557373046875,0.0237579345703125,1,0.95
2020-05-16 12:50:11.645 -0400,11539.78767679167,1.197525024414062,0.1954345703125,0.0367279052734375,1,0.95
2020-05-16 12:50:11.714 -0400,11539.85751579167,1.047897338867188,0.33538818359375,0.042022705078125,1,0.95
2020-05-16 12:50:11.784 -0400,11539.92735575,1.02490234375,0.5617828369140625,-0.30853271484375,1,0.95
2020-05-16 12:50:11.854 -0400,11539.99719775,1.1790771484375,0.480499267578125,-0.2150421142578125,1,0.95
2020-05-16 12:50:11.924 -0400,11540.06703775,0.86822509765625,0.3149261474609375,-0.3742218017578125,1,0.95
2020-05-16 12:50:11.994 -0400,11540.13687875,0.6344757080078125,0.369873046875,-0.328338623046875,1,0.95
2020-05-16 12:50:12.064 -0400,11540.20671275,0.77984619140625,0.5878448486328125,-0.369964599609375,1,0.95
2020-05-16 12:50:12.134 -0400,11540.27654875,1.162445068359375,0.6365814208984375,-0.5976715087890625,1,0.95
2020-05-16 12:50:12.203 -0400,11540.34638275,1.148300170898438,0.4665985107421875,-0.646820068359375,1,0.95
2020-05-16 12:50:12.273 -0400,11540.41622175,1.41888427734375,0.6319122314453125,-0.4947509765625,1,0.95
2020-05-16 12:50:12.343 -0400,11540.48605575,1.204803466796875,0.3456268310546875,-0.28692626953125,1,0.95
2020-05-16 12:50:12.413 -0400,11540.55589175,1.323623657226562,0.5218505859375,-0.1780853271484375,1,0.95
2020-05-16 12:50:12.483 -0400,11540.62572775,0.80291748046875,0.3421478271484375,-0.118316650390625,1,0.95
2020-05-16 12:50:12.552 -0400,11540.69556575,0.61248779296875,0.3369598388671875,0.015533447265625,1,0.95
2020-05-16 12:50:12.622 -0400,11540.76540775,0.7363739013671875,0.29974365234375,0.0278778076171875,1,0.95
2020-05-16 12:50:12.692 -0400,11540.83524775,1.033676147460938,0.2860107421875,0.019256591796875,1,0.95
2020-05-16 12:50:12.762 -0400,11540.90508375,0.92315673828125,0.2355194091796875,-0.03790283203125,1,0.95
2020-05-16 12:50:12.832 -0400,11540.974919375,0.86895751953125,0.4256744384765625,-0.1523590087890625,1,0.95
2020-05-16 12:50:12.901 -0400,11541.044757375,1.517257690429688,0.53607177734375,-0.4182891845703125,1,0.95
2020-05-16 12:50:12.972 -0400,11541.114596375,1.048614501953125,0.271575927734375,-0.322540283203125,1,0.95
2020-05-16 12:50:13.041 -0400,11541.184437375,0.686981201171875,-0.02978515625,-0.5085296630859375,1,0.95
2020-05-16 12:50:13.111 -0400,11541.254282375,0.6714019775390625,0.6677398681640625,-0.1657867431640625,1,0.95
2020-05-16 12:50:13.181 -0400,11541.324122375,1.151718139648438,0.6014862060546875,-0.4634857177734375,1,0.95
2020-05-16 12:50:13.251 -0400,11541.393960375,1.165786743164062,0.6093597412109375,-0.5309295654296875,1,0.95
2020-05-16 12:50:13.321 -0400,11541.463801375,1.321731567382812,0.83038330078125,-0.5041351318359375,1,0.95
2020-05-16 12:50:13.391 -0400,11541.533639375,1.367401123046875,0.426177978515625,-0.302764892578125,1,0.95
2020-05-16 12:50:13.461 -0400,11541.603476375,1.208053588867188,0.3486785888671875,-0.2218170166015625,1,0.95
2020-05-16 12:50:13.530 -0400,11541.673315375,0.7215576171875,0.3768310546875,-0.2153472900390625,1,0.95
2020-05-16 12:50:13.600 -0400,11541.743154375,0.6680450439453125,0.3533172607421875,-0.0489501953125,1,0.95
2020-05-16 12:50:13.670 -0400,11541.812994375,1.015380859375,0.2790069580078125,-0.0757598876953125,1,0.95
2020-05-16 12:50:13.740 -0400,11541.882838375,1.134841918945312,0.1700286865234375,0.0691375732421875,1,0.95
2020-05-16 12:50:13.810 -0400,11541.95267654167,0.8729248046875,0.2874755859375,-0.059783935546875,1,0.95
2020-05-16 12:50:13.880 -0400,11542.02251254167,0.977386474609375,0.4344329833984375,-0.1057586669921875,1,0.95
2020-05-16 12:50:13.949 -0400,11542.09235154167,1.346054077148438,0.558441162109375,-0.3539886474609375,1,0.95
2020-05-16 12:50:14.019 -0400,11542.16219154167,0.8123016357421875,0.37457275390625,-0.3654022216796875,1,0.95
2020-05-16 12:50:14.089 -0400,11542.23203054167,0.5818328857421875,0.1610870361328125,-0.2297515869140625,1,0.95
2020-05-16 12:50:14.159 -0400,11542.30186754167,0.84765625,0.515380859375,-0.3317718505859375,1,0.95
2020-05-16 12:50:14.229 -0400,11542.37170754167,1.117950439453125,0.8564910888671875,-0.710968017578125,1,0.95
2020-05-16 12:50:14.299 -0400,11542.44154554167,1.493072509765625,0.7417449951171875,-0.7656402587890625,1,0.95
2020-05-16 12:50:14.368 -0400,11542.51138554167,1.456787109375,0.15252685546875,-0.2667236328125,1,0.95
2020-05-16 12:50:14.438 -0400,11542.58122654167,1.445510864257812,0.366424560546875,-0.270294189453125,1,0.95
2020-05-16 12:50:14.508 -0400,11542.65106754167,1.014404296875,0.6376190185546875,-0.2648162841796875,1,0.95
2020-05-16 12:50:14.578 -0400,11542.72090454167,0.5376434326171875,0.33062744140625,-0.0701751708984375,1,0.95
2020-05-16 12:50:14.648 -0400,11542.79074454167,0.4449920654296875,0.3006134033203125,0.0135345458984375,1,0.95
2020-05-16 12:50:14.718 -0400,11542.86058154167,0.8717803955078125,0.2786712646484375,-0.016265869140625,1,0.95
2020-05-16 12:50:14.787 -0400,11542.930418625,1.053070068359375,0.14447021484375,0.0843658447265625,1,0.95
2020-05-16 12:50:14.857 -0400,11543.000260625,1.1904296875,0.3349609375,0.027099609375,1,0.95
2020-05-16 12:50:14.927 -0400,11543.070106625,1.010162353515625,0.5599365234375,-0.3499755859375,1,0.95
2020-05-16 12:50:14.997 -0400,11543.139956625,1.51397705078125,0.5164794921875,-0.2844390869140625,1,0.95
2020-05-16 12:50:15.067 -0400,11543.209803625,0.86102294921875,0.1080780029296875,-0.4901123046875,1,0.95
2020-05-16 12:50:15.137 -0400,11543.279650625,0.535919189453125,0.30621337890625,-0.377349853515625,1,0.95
2020-05-16 12:50:15.206 -0400,11543.349495625,0.7019500732421875,0.666015625,-0.3180999755859375,1,0.95
2020-05-16 12:50:15.276 -0400,11543.419337625,0.9571380615234375,0.599273681640625,-0.4962921142578125,1,0.95
2020-05-16 12:50:15.346 -0400,11543.489175625,1.199981689453125,0.4620513916015625,-0.4666900634765625,1,0.95
2020-05-16 12:50:15.416 -0400,11543.559016625,1.39593505859375,0.5711669921875,-0.4267578125,1,0.95
2020-05-16 12:50:15.486 -0400,11543.628854625,1.205490112304688,0.4199371337890625,-0.3150482177734375,1,0.95
2020-05-16 12:50:15.556 -0400,11543.698696625,1.3211669921875,0.5491180419921875,-0.1950225830078125,1,0.95
2020-05-16 12:50:15.625 -0400,11543.768536625,0.7998809814453125,0.331329345703125,-0.1132659912109375,1,0.95
2020-05-16 12:50:15.695 -0400,11543.838379625,0.517791748046875,0.2806854248046875,0.0009613037109375,1,0.95
2020-05-16 12:50:15.765 -0400,11543.908224625,0.5603790283203125,0.2833099365234375,0.0142974853515625,1,0.95
2020-05-16 12:50:15.835 -0400,11543.978065125,0.90411376953125,0.2700958251953125,-0.0068359375,1,0.95
2020-05-16 12:50:15.905 -0400,11544.047907125,0.9116973876953125,0.2269134521484375,-0.1008148193359375,1,0.95
2020-05-16 12:50:15.975 -0400,11544.117752125,1.205612182617188,0.4195556640625,-0.102935791015625,1,0.95
2020-05-16 12:50:16.045 -0400,11544.187594125,1.609786987304688,0.66363525390625,-0.68011474609375,1,0.95
2020-05-16 12:50:16.114 -0400,11544.257434125,0.749359130859375,0.3744964599609375,-0.4239044189453125,1,0.95
2020-05-16 12:50:16.184 -0400,11544.327272125,0.5487518310546875,0.2100982666015625,-0.182403564453125,1,0.95
2020-05-16 12:50:16.254 -0400,11544.397112125,0.6748046875,0.493499755859375,-0.1447601318359375,1,0.95
2020-05-16 12:50:16.324 -0400,11544.466951125,1.246994018554688,0.9314727783203125,-0.501190185546875,1,0.95
2020-05-16 12:50:16.394 -0400,11544.536792125,1.183929443359375,0.7236480712890625,-0.5555419921875,1,0.95
2020-05-16 12:50:16.464 -0400,11544.606634125,1.398773193359375,0.617645263671875,-0.3754425048828125,1,0.95
2020-05-16 12:50:16.534 -0400,11544.676473125,1.413589477539062,0.6453857421875,-0.467376708984375,1,0.95
2020-05-16 12:50:16.603 -0400,11544.746320125,1.470367431640625,0.359954833984375,-0.15618896484375,1,0.95
2020-05-16 12:50:16.673 -0400,11544.816162125,0.8031158447265625,0.3022003173828125,-0.2357330322265625,1,0.95
2020-05-16 12:50:16.743 -0400,11544.886005125,0.633514404296875,0.3418426513671875,-0.0634002685546875,1,0.95
2020-05-16 12:50:16.813 -0400,11544.95585225,0.8401947021484375,0.272064208984375,-0.0510711669921875,1,0.95
2020-05-16 12:50:16.883 -0400,11545.02569625,1.119873046875,0.179412841796875,0.0636444091796875,1,0.95
2020-05-16 12:50:16.952 -0400,11545.09553725,1.073837280273438,0.2684783935546875,0.1045379638671875,1,0.95
2020-05-16 12:50:17.022 -0400,11545.16538125,0.8027191162109375,0.591033935546875,-0.3284759521484375,1,0.95
2020-05-16 12:50:17.092 -0400,11545.23522625,1.601669311523438,0.669219970703125,-0.3456878662109375,1,0.95
2020-05-16 12:50:17.162 -0400,11545.30507025,0.8051910400390625,0.069183349609375,-0.35028076171875,1,0.95
2020-05-16 12:50:17.232 -0400,11545.37490925,0.522674560546875,0.215118408203125,-0.274993896484375,1,0.95
2020-05-16 12:50:17.302 -0400,11545.44475025,0.614349365234375,0.5715484619140625,-0.2412567138671875,1,0.95
2020-05-16 12:50:17.372 -0400,11545.51459025,0.9193878173828125,0.5901947021484375,-0.475860595703125,1,0.95
2020-05-16 12:50:17.442 -0400,11545.58443325,1.092666625976562,0.576934814453125,-0.5379180908203125,1,0.95
2020-05-16 12:50:17.511 -0400,11545.65427825,1.65740966796875,0.5738983154296875,-0.4531097412109375,1,0.95
2020-05-16 12:50:17.581 -0400,11545.72412325,1.3187255859375,0.426300048828125,-0.394866943359375,1,0.95
2020-05-16 12:50:17.651 -0400,11545.79396725,1.404037475585938,0.4197845458984375,-0.225982666015625,1,0.95
2020-05-16 12:50:17.721 -0400,11545.86380925,0.777099609375,0.2921905517578125,-0.1591796875,1,0.95
2020-05-16 12:50:17.791 -0400,11545.933647125,0.4965972900390625,0.32012939453125,-0.058868408203125,1,0.95
2020-05-16 12:50:17.860 -0400,11546.003488125,0.62713623046875,0.3023681640625,-0.0232086181640625,1,0.95
2020-05-16 12:50:17.930 -0400,11546.073327125,1.040725708007812,0.235443115234375,0.0425262451171875,1,0.95
2020-05-16 12:50:18.000 -0400,11546.143165125,0.9370880126953125,0.2770843505859375,0.03912353515625,1,0.95
2020-05-16 12:50:18.070 -0400,11546.213005125,1.157196044921875,0.4987640380859375,-0.102874755859375,1,0.95
2020-05-16 12:50:18.140 -0400,11546.282849125,1.472671508789062,0.6118316650390625,-0.5071258544921875,1,0.95
2020-05-16 12:50:18.210 -0400,11546.352694125,1.149124145507812,0.339996337890625,-0.269073486328125,1,0.95
2020-05-16 12:50:18.279 -0400,11546.422533125,0.5447235107421875,0.2064971923828125,-0.346466064453125,1,0.95
2020-05-16 12:50:18.349 -0400,11546.492376125,0.4715423583984375,0.4221954345703125,-0.232421875,1,0.95
2020-05-16 12:50:18.419 -0400,11546.562222125,0.79864501953125,0.6043548583984375,-0.4279022216796875,1,0.95
2020-05-16 12:50:18.489 -0400,11546.632065125,1.0518798828125,0.577423095703125,-0.5496673583984375,1,0.95
2020-05-16 12:50:18.559 -0400,11546.701906125,1.284210205078125,0.527496337890625,-0.490081787109375,1,0.95
2020-05-16 12:50:18.629 -0400,11546.771748125,1.394805908203125,0.332061767578125,-0.4157257080078125,1,0.95
2020-05-16 12:50:18.698 -0400,11546.841593125,1.668685913085938,0.4087677001953125,-0.181854248046875,1,0.95
2020-05-16 12:50:18.768 -0400,11546.911434125,1.19866943359375,0.491729736328125,-0.277679443359375,1,0.95
2020-05-16 12:50:18.838 -0400,11546.98127675,0.704071044921875,0.3577880859375,-0.080902099609375,1,0.95
2020-05-16 12:50:18.908 -0400,11547.05111875,0.6520843505859375,0.28515625,0.01617431640625,1,0.95
2020-05-16 12:50:18.978 -0400,11547.12096275,0.7230987548828125,0.1842803955078125,0.0247802734375,1,0.95
2020-05-16 12:50:19.048 -0400,11547.19080475,0.752471923828125,0.1599884033203125,0.0980987548828125,1,0.95
2020-05-16 12:50:19.118 -0400,11547.26064575,0.80615234375,0.29217529296875,0.0642242431640625,1,0.95
2020-05-16 12:50:19.187 -0400,11547.33048775,0.8868255615234375,0.692718505859375,-0.227325439453125,1,0.95
2020-05-16 12:50:19.257 -0400,11547.40033075,1.668716430664062,0.7301177978515625,-0.6131744384765625,1,0.95
2020-05-16 12:50:19.327 -0400,11547.47017375,0.975067138671875,0.2289581298828125,-0.395050048828125,1,0.95
2020-05-16 12:50:19.397 -0400,11547.54001675,0.5784454345703125,0.1262054443359375,-0.3142852783203125,1,0.95
2020-05-16 12:50:19.467 -0400,11547.60985775,0.6093292236328125,0.5471649169921875,-0.4180145263671875,1,0.95
2020-05-16 12:50:19.537 -0400,11547.67970075,0.8267669677734375,0.671661376953125,-0.602569580078125,1,0.95
2020-05-16 12:50:19.608 -0400,11547.74954375,0.989013671875,0.6029510498046875,-0.56768798828125,1,0.95
2020-05-16 12:50:19.676 -0400,11547.81938675,1.506500244140625,0.5640869140625,-0.4775543212890625,1,0.95
2020-05-16 12:50:19.746 -0400,11547.88922775,1.6268310546875,0.4593048095703125,-0.3998870849609375,1,0.95
2020-05-16 12:50:19.816 -0400,11547.959068875,1.703292846679688,0.5241851806640625,-0.26123046875,1,0.95
2020-05-16 12:50:19.886 -0400,11548.028910875,0.9709625244140625,0.3943328857421875,-0.1879119873046875,1,0.95
2020-05-16 12:50:19.956 -0400,11548.098752875,0.646728515625,0.3548736572265625,-0.059906005859375,1,0.95
2020-05-16 12:50:20.025 -0400,11548.168593875,0.6193695068359375,0.248077392578125,0.03466796875,1,0.95
2020-05-16 12:50:20.095 -0400,11548.238432875,0.67596435546875,0.1731719970703125,0.0639801025390625,1,0.95
2020-05-16 12:50:20.165 -0400,11548.308276875,0.5770111083984375,0.1802215576171875,0.12335205078125,1,0.95
2020-05-16 12:50:20.235 -0400,11548.378118875,0.66278076171875,0.3575592041015625,-0.0422515869140625,1,0.95
2020-05-16 12:50:20.310 -0400,11548.447957875,1.401931762695312,0.7887420654296875,-0.453155517578125,1,0.95
2020-05-16 12:50:20.375 -0400,11548.517799875,1.936203002929688,0.79998779296875,-0.6728973388671875,1,0.95
2020-05-16 12:50:20.444 -0400,11548.587641875,0.8601226806640625,-0.2154388427734375,-0.2041473388671875,1,0.95
2020-05-16 12:50:20.514 -0400,11548.657485875,0.6674346923828125,0.146209716796875,-0.267364501953125,1,0.95
2020-05-16 12:50:20.584 -0400,11548.727328875,0.4818267822265625,0.9389190673828125,-0.373931884765625,1,0.95
2020-05-16 12:50:20.654 -0400,11548.797171875,0.640655517578125,0.9273834228515625,-0.53094482421875,1,0.95
2020-05-16 12:50:20.724 -0400,11548.867012875,1.238861083984375,0.75433349609375,-0.4732208251953125,1,0.95
2020-05-16 12:50:20.794 -0400,11548.936857375,1.635971069335938,0.1938018798828125,-0.451263427734375,1,0.95
2020-05-16 12:50:20.864 -0400,11549.006698375,1.883010864257812,0.521209716796875,-0.2386322021484375,1,0.95
2020-05-16 12:50:20.933 -0400,11549.076537375,1.448760986328125,0.62713623046875,-0.365509033203125,1,0.95
2020-05-16 12:50:21.003 -0400,11549.146377375,0.8292388916015625,0.2937774658203125,-0.1313018798828125,1,0.95
2020-05-16 12:50:21.073 -0400,11549.216215375,0.72869873046875,0.26104736328125,-0.0127716064453125,1,0.95
2020-05-16 12:50:21.143 -0400,11549.286061375,0.6730194091796875,0.1304931640625,0.015960693359375,1,0.95
2020-05-16 12:50:21.213 -0400,11549.355904375,0.5738525390625,0.0687408447265625,0.096343994140625,1,0.95
2020-05-16 12:50:21.283 -0400,11549.425743375,0.2915802001953125,0.2189178466796875,0.02130126953125,1,0.95
2020-05-16 12:50:21.353 -0400,11549.495582375,0.9933929443359375,0.7721710205078125,-0.0506591796875,1,0.95
2020-05-16 12:50:21.423 -0400,11549.565423375,1.73394775390625,0.9035491943359375,-0.73052978515625,1,0.95
2020-05-16 12:50:21.492 -0400,11549.635265375,1.1190185546875,1.007858276367188,-0.6090850830078125,1,0.95
2020-05-16 12:50:21.562 -0400,11549.705108375,0.7801666259765625,-0.0833740234375,-0.3097991943359375,1,0.95
2020-05-16 12:50:21.632 -0400,11549.774950375,0.612274169921875,0.27923583984375,-0.3545074462890625,1,0.95
2020-05-16 12:50:21.702 -0400,11549.844792375,0.8024444580078125,1.154434204101562,-0.63385009765625,1,0.95
2020-05-16 12:50:21.772 -0400,11549.914630375,1.070755004882812,0.932952880859375,-0.624176025390625,1,0.95
2020-05-16 12:50:21.841 -0400,11549.984465625,1.821258544921875,0.3354949951171875,-0.3295135498046875,1,0.95
2020-05-16 12:50:21.911 -0400,11550.054302625,1.967971801757812,0.2929229736328125,-0.1264495849609375,1,0.95
2020-05-16 12:50:21.981 -0400,11550.124136625,1.116287231445312,0.6667938232421875,-0.3087921142578125,1,0.95
2020-05-16 12:50:22.051 -0400,11550.193969625,0.73370361328125,0.43109130859375,-0.0659027099609375,1,0.95
2020-05-16 12:50:22.121 -0400,11550.263800625,0.653778076171875,0.218017578125,0.0269317626953125,1,0.95
2020-05-16 12:50:22.191 -0400,11550.333637625,0.5519866943359375,0.0983734130859375,0.023162841796875,1,0.95
2020-05-16 12:50:22.261 -0400,11550.403475625,0.5647430419921875,0.1051788330078125,0.1025848388671875,1,0.95
2020-05-16 12:50:22.330 -0400,11550.473310625,0.5787506103515625,0.2469635009765625,0.068572998046875,1,0.95
2020-05-16 12:50:22.400 -0400,11550.543147625,0.9871063232421875,0.849334716796875,-0.116485595703125,1,0.95
2020-05-16 12:50:22.470 -0400,11550.612978625,2.3843994140625,1.058364868164062,-0.7938690185546875,1,0.95
2020-05-16 12:50:22.540 -0400,11550.682807625,1.065750122070312,0.11737060546875,-0.1635894775390625,1,0.95
2020-05-16 12:50:22.610 -0400,11550.752635625,0.675933837890625,-0.280181884765625,-0.347076416015625,1,0.95
2020-05-16 12:50:22.680 -0400,11550.822470625,0.4979248046875,0.8247528076171875,-0.3626556396484375,1,0.95
2020-05-16 12:50:22.749 -0400,11550.892304625,0.3835601806640625,1.121612548828125,-0.4668731689453125,1,0.95
2020-05-16 12:50:22.819 -0400,11550.9621395,0.9095611572265625,1.020553588867188,-0.51190185546875,1,0.95
2020-05-16 12:50:22.889 -0400,11551.0319735,1.965011596679688,0.48193359375,-0.6163787841796875,1,0.95
2020-05-16 12:50:22.959 -0400,11551.1018065,2.232284545898438,0.3787689208984375,-0.13983154296875,1,0.95
2020-05-16 12:50:23.029 -0400,11551.1716455,1.9718017578125,0.8266754150390625,-0.3477783203125,1,0.95
2020-05-16 12:50:23.099 -0400,11551.2414805,1.173385620117188,0.4534454345703125,-0.1915740966796875,1,0.95
2020-05-16 12:50:23.168 -0400,11551.3113105,0.7570648193359375,0.2309722900390625,0.0390472412109375,1,0.95
2020-05-16 12:50:23.238 -0400,11551.3811405,0.48388671875,-0.0437164306640625,0.0718841552734375,1,0.95
2020-05-16 12:50:23.308 -0400,11551.4509725,0.370697021484375,-0.0241241455078125,0.0718994140625,1,0.95
2020-05-16 12:50:23.378 -0400,11551.5208045,0.2717742919921875,0.1076507568359375,0.0825653076171875,1,0.95
2020-05-16 12:50:23.448 -0400,11551.5906365,0.5467529296875,0.4492034912109375,-0.105560302734375,1,0.95
2020-05-16 12:50:23.518 -0400,11551.6604635,1.762832641601562,1.371200561523438,-0.6082611083984375,1,0.95
2020-05-16 12:50:23.587 -0400,11551.7302925,2.057113647460938,0.7281646728515625,-0.6179962158203125,1,0.95
2020-05-16 12:50:23.657 -0400,11551.8001245,1.281646728515625,0.7715911865234375,-0.643280029296875,1,0.95
2020-05-16 12:50:23.727 -0400,11551.8699585,0.664398193359375,0.3362579345703125,-0.5749359130859375,1,0.95
2020-05-16 12:50:23.797 -0400,11551.939789125,0.389312744140625,0.6552581787109375,-0.4650115966796875,1,0.95
2020-05-16 12:50:23.869 -0400,11552.009621125,0.5668792724609375,0.9091644287109375,-0.6307830810546875,1,0.95
2020-05-16 12:50:23.936 -0400,11552.079454125,1.21319580078125,0.51483154296875,-0.4133148193359375,1,0.95
2020-05-16 12:50:24.006 -0400,11552.149288125,2.158615112304688,0.3015594482421875,-0.421112060546875,1,0.95
2020-05-16 12:50:24.076 -0400,11552.219124125,2.158203125,0.5521087646484375,-0.1640472412109375,1,0.95
2020-05-16 12:50:24.146 -0400,11552.288955125,1.409881591796875,0.7026824951171875,-0.3394927978515625,1,0.95
2020-05-16 12:50:24.216 -0400,11552.358794125,0.9301300048828125,0.3325653076171875,-0.089935302734375,1,0.95
2020-05-16 12:50:24.286 -0400,11552.428631125,0.6727447509765625,0.1147308349609375,0.029052734375,1,0.95
2020-05-16 12:50:24.355 -0400,11552.498469125,0.362335205078125,-0.06640625,0.0595550537109375,1,0.95
2020-05-16 12:50:24.425 -0400,11552.568305125,0.2259368896484375,0.0016937255859375,0.0472564697265625,1,0.95
2020-05-16 12:50:24.495 -0400,11552.638144125,0.3092193603515625,0.33697509765625,0.03759765625,1,0.95
2020-05-16 12:50:24.565 -0400,11552.707981125,1.005935668945312,1.140411376953125,-0.3997802734375,1,0.95
2020-05-16 12:50:24.635 -0400,11552.777818125,2.131668090820312,0.6855621337890625,-0.87847900390625,1,0.95
2020-05-16 12:50:24.705 -0400,11552.847660125,1.343978881835938,0.4302978515625,-0.375885009765625,1,0.95
2020-05-16 12:50:24.774 -0400,11552.917499125,0.8406219482421875,0.2477264404296875,-0.3784637451171875,1,0.95
2020-05-16 12:50:24.844 -0400,11552.987340625,0.5212860107421875,0.596527099609375,-0.4549102783203125,1,0.95
2020-05-16 12:50:24.914 -0400,11553.057184625,0.5658721923828125,0.871063232421875,-0.4305267333984375,1,0.95
2020-05-16 12:50:24.984 -0400,11553.127027625,1.091339111328125,1.182357788085938,-0.334747314453125,1,0.95
2020-05-16 12:50:25.054 -0400,11553.196870625,1.392822265625,0.3636932373046875,-0.68829345703125,1,0.95
2020-05-16 12:50:25.123 -0400,11553.266713625,1.970657348632812,0.6679534912109375,-0.3419647216796875,1,0.95
2020-05-16 12:50:25.193 -0400,11553.336556625,1.555755615234375,0.506683349609375,-0.2859039306640625,1,0.95
2020-05-16 12:50:25.263 -0400,11553.406397625,0.9267578125,0.3762054443359375,-0.2260589599609375,1,0.95
2020-05-16 12:50:25.333 -0400,11553.476235625,0.8021240234375,0.2894744873046875,-0.0468292236328125,1,0.95
2020-05-16 12:50:25.403 -0400,11553.546070625,0.665313720703125,0.1862030029296875,-0.0069732666015625,1,0.95
2020-05-16 12:50:25.473 -0400,11553.615905625,0.781768798828125,0.1250152587890625,0.0100860595703125,1,0.95
2020-05-16 12:50:25.543 -0400,11553.685747625,0.667266845703125,0.140472412109375,0.0089874267578125,1,0.95
2020-05-16 12:50:25.612 -0400,11553.755585625,0.9172210693359375,0.4360198974609375,0.037841796875,1,0.95
2020-05-16 12:50:25.682 -0400,11553.825420625,1.181533813476562,1.159027099609375,-0.94854736328125,1,0.95
2020-05-16 12:50:25.753 -0400,11553.895252625,1.782470703125,0.8850860595703125,-0.2907257080078125,1,0.95
2020-05-16 12:50:25.822 -0400,11553.96508716667,1.2850341796875,0.8402557373046875,-0.579132080078125,1,0.95
2020-05-16 12:50:25.892 -0400,11554.03492316667,0.73748779296875,0.69232177734375,-0.54827880859375,1,0.95
2020-05-16 12:50:25.962 -0400,11554.10476216667,0.4118194580078125,0.6911773681640625,-0.43646240234375,1,0.95
2020-05-16 12:50:26.032 -0400,11554.17459216667,0.56988525390625,1.031402587890625,-0.361083984375,1,0.95
2020-05-16 12:50:26.101 -0400,11554.24442316667,1.7103271484375,1.058349609375,-0.585205078125,1,0.95
2020-05-16 12:50:26.171 -0400,11554.31425716667,2.040191650390625,0.5850830078125,-0.0057525634765625,1,0.95
2020-05-16 12:50:26.241 -0400,11554.38408916667,1.572952270507812,0.699859619140625,-0.309967041015625,1,0.95
2020-05-16 12:50:26.311 -0400,11554.45392116667,1.27386474609375,0.3212127685546875,-0.050689697265625,1,0.95
2020-05-16 12:50:26.381 -0400,11554.52375516667,0.5401763916015625,-0.161651611328125,-0.0610809326171875,1,0.95
2020-05-16 12:50:26.451 -0400,11554.59359116667,0.4871978759765625,-0.11773681640625,-0.0802001953125,1,0.95
2020-05-16 12:50:26.520 -0400,11554.66342816667,0.5145263671875,0.0889892578125,-0.0290679931640625,1,0.95
2020-05-16 12:50:26.590 -0400,11554.73326916667,0.705718994140625,0.1883392333984375,-0.0019989013671875,1,0.95
2020-05-16 12:50:26.660 -0400,11554.80310716667,1.648208618164062,0.87896728515625,-0.105743408203125,1,0.95
2020-05-16 12:50:26.730 -0400,11554.87294416667,2.023117065429688,0.8944091796875,-0.7512054443359375,1,0.95
2020-05-16 12:50:26.800 -0400,11554.9427835,1.189346313476562,0.5569305419921875,-0.2194061279296875,1,0.95
2020-05-16 12:50:26.870 -0400,11555.0126195,0.8790283203125,0.4331512451171875,-0.2050018310546875,1,0.95
2020-05-16 12:50:26.939 -0400,11555.0824565,0.58319091796875,0.67791748046875,-0.3815460205078125,1,0.95
2020-05-16 12:50:27.009 -0400,11555.1522905,0.3490753173828125,0.6935272216796875,-0.34429931640625,1,0.95
2020-05-16 12:50:27.079 -0400,11555.2221265,0.6433258056640625,0.68719482421875,-0.4082183837890625,1,0.95
2020-05-16 12:50:27.149 -0400,11555.2919645,2.050323486328125,0.4339752197265625,-0.2721405029296875,1,0.95
2020-05-16 12:50:27.219 -0400,11555.3617995,2.139328002929688,0.6604156494140625,-0.322540283203125,1,0.95
2020-05-16 12:50:27.289 -0400,11555.4316315,1.697784423828125,0.7195281982421875,-0.333343505859375,1,0.95
2020-05-16 12:50:27.359 -0400,11555.5014685,1.14556884765625,0.294342041015625,0.064056396484375,1,0.95
2020-05-16 12:50:27.428 -0400,11555.5713065,0.65716552734375,0.0860137939453125,0.10186767578125,1,0.95
2020-05-16 12:50:27.498 -0400,11555.6411475,0.44915771484375,0.050628662109375,0.068878173828125,1,0.95
2020-05-16 12:50:27.568 -0400,11555.7109845,0.5061187744140625,0.078033447265625,0.0543975830078125,1,0.95
2020-05-16 12:50:27.638 -0400,11555.7808185,1.118148803710938,0.458282470703125,0.0755767822265625,1,0.95
2020-05-16 12:50:27.708 -0400,11555.8506495,1.582275390625,0.9919281005859375,-0.448638916015625,1,0.95
2020-05-16 12:50:27.777 -0400,11555.9204855,1.3795166015625,0.599212646484375,-0.291839599609375,1,0.95
2020-05-16 12:50:27.847 -0400,11555.99032129167,1.233871459960938,0.6695709228515625,-0.38018798828125,1,0.95
2020-05-16 12:50:27.917 -0400,11556.06015529167,0.741302490234375,0.535736083984375,-0.2196044921875,1,0.95
2020-05-16 12:50:27.987 -0400,11556.12998929167,0.697296142578125,0.68804931640625,-0.414764404296875,1,0.95
2020-05-16 12:50:28.057 -0400,11556.19982429167,1.046630859375,0.759796142578125,-0.430755615234375,1,0.95
2020-05-16 12:50:28.127 -0400,11556.26965929167,1.125503540039062,0.59234619140625,-0.5569000244140625,1,0.95
2020-05-16 12:50:28.197 -0400,11556.33949229167,1.8160400390625,0.424652099609375,-0.219482421875,1,0.95
2020-05-16 12:50:28.267 -0400,11556.40932229167,2.118942260742188,0.1585235595703125,-0.1978302001953125,1,0.95
2020-05-16 12:50:28.336 -0400,11556.47915529167,1.263290405273438,0.480316162109375,-0.3076629638671875,1,0.95
2020-05-16 12:50:28.406 -0400,11556.54898829167,0.79150390625,0.391387939453125,-0.0826568603515625,1,0.95
2020-05-16 12:50:28.476 -0400,11556.61882729167,0.7576141357421875,0.11163330078125,0.065704345703125,1,0.95
2020-05-16 12:50:28.546 -0400,11556.68866329167,0.6295166015625,-0.0513153076171875,0.075103759765625,1,0.95
2020-05-16 12:50:28.615 -0400,11556.75849629167,0.4820098876953125,0.0513153076171875,0.083160400390625,1,0.95
2020-05-16 12:50:28.685 -0400,11556.82833229167,0.56146240234375,0.4035491943359375,-0.0690460205078125,1,0.95
2020-05-16 12:50:28.755 -0400,11556.89816929167,1.349838256835938,1.372817993164062,-0.3077392578125,1,0.95
2020-05-16 12:50:28.825 -0400,11556.96800916667,1.617263793945312,1.057907104492188,-0.6047515869140625,1,0.95
2020-05-16 12:50:28.895 -0400,11557.03784716667,1.324844360351562,1.138824462890625,-0.5731048583984375,1,0.95
2020-05-16 12:50:28.965 -0400,11557.10768516667,0.465850830078125,0.7152252197265625,-0.5923004150390625,1,0.95
2020-05-16 12:50:29.034 -0400,11557.17752516667,0.142852783203125,0.6728515625,-0.361236572265625,1,0.95
2020-05-16 12:50:29.104 -0400,11557.24736916667,0.4724578857421875,0.8395843505859375,-0.338836669921875,1,0.95
2020-05-16 12:50:29.174 -0400,11557.31721416667,1.87225341796875,0.8463287353515625,-0.2940521240234375,1,0.95
2020-05-16 12:50:29.244 -0400,11557.38705216667,2.002975463867188,0.5020904541015625,0.0958251953125,1,0.95
2020-05-16 12:50:29.314 -0400,11557.45689216667,1.91815185546875,0.62872314453125,-0.2003173828125,1,0.95
2020-05-16 12:50:29.384 -0400,11557.52673416667,1.142425537109375,0.3730621337890625,-0.0555572509765625,1,0.95
2020-05-16 12:50:29.454 -0400,11557.59657616667,0.753143310546875,0.31182861328125,0.02349853515625,1,0.95
2020-05-16 12:50:29.523 -0400,11557.66641716667,0.69366455078125,0.113037109375,0.0576171875,1,0.95
2020-05-16 12:50:29.593 -0400,11557.73626216667,0.8433380126953125,0.06134033203125,0.08587646484375,1,0.95
2020-05-16 12:50:29.663 -0400,11557.80610416667,0.903076171875,0.1272735595703125,0.14569091796875,1,0.95
2020-05-16 12:50:29.733 -0400,11557.87594616667,0.660675048828125,0.548187255859375,0.0203094482421875,1,0.95
2020-05-16 12:50:29.803 -0400,11557.945784125,1.248245239257812,1.302322387695312,-0.1294708251953125,1,0.95
2020-05-16 12:50:29.873 -0400,11558.015621125,1.174514770507812,1.488296508789062,-0.016387939453125,1,0.95
2020-05-16 12:50:29.942 -0400,11558.085462125,0.8801422119140625,0.97930908203125,-0.1173248291015625,1,0.95
2020-05-16 12:50:30.012 -0400,11558.155300125,0.669525146484375,0.8936614990234375,-0.3162384033203125,1,0.95
2020-05-16 12:50:30.082 -0400,11558.225138125,0.6580047607421875,0.917633056640625,-0.3308258056640625,1,0.95
2020-05-16 12:50:30.152 -0400,11558.294974125,1.086593627929688,0.9035797119140625,-0.363861083984375,1,0.95
2020-05-16 12:50:30.222 -0400,11558.364810125,2.092605590820312,0.4464569091796875,-0.20697021484375,1,0.95
2020-05-16 12:50:30.292 -0400,11558.434646125,1.8492431640625,0.454315185546875,-0.1870880126953125,1,0.95
2020-05-16 12:50:30.362 -0400,11558.504483125,1.354827880859375,0.609466552734375,-0.22216796875,1,0.95
2020-05-16 12:50:30.431 -0400,11558.574324125,1.022964477539062,0.3240966796875,-0.031036376953125,1,0.95
2020-05-16 12:50:30.501 -0400,11558.644167125,0.75616455078125,0.1317901611328125,0.0460662841796875,1,0.95
2020-05-16 12:50:30.571 -0400,11558.714007125,0.7220611572265625,-0.0303192138671875,0.066314697265625,1,0.95
2020-05-16 12:50:30.641 -0400,11558.783842125,0.364654541015625,0.142364501953125,0.058135986328125,1,0.95
2020-05-16 12:50:30.711 -0400,11558.853673125,0.35235595703125,0.681884765625,-0.005859375,1,0.95
2020-05-16 12:50:30.780 -0400,11558.923507125,0.777862548828125,1.17291259765625,-0.186920166015625,1,0.95
2020-05-16 12:50:30.850 -0400,11558.9933435,1.2457275390625,1.039260864257812,-0.30926513671875,1,0.95
2020-05-16 12:50:30.920 -0400,11559.0631805,0.82757568359375,0.9627838134765625,-0.335601806640625,1,0.95
2020-05-16 12:50:30.990 -0400,11559.1330105,0.53778076171875,0.5401153564453125,-0.2373809814453125,1,0.95
2020-05-16 12:50:31.060 -0400,11559.2028435,0.6251983642578125,0.7146453857421875,-0.3287506103515625,1,0.95
2020-05-16 12:50:31.130 -0400,11559.2726745,0.8897857666015625,0.792083740234375,-0.4078216552734375,1,0.95
2020-05-16 12:50:31.199 -0400,11559.3425055,1.642669677734375,0.80316162109375,-0.54833984375,1,0.95
2020-05-16 12:50:31.269 -0400,11559.4123335,2.113906860351562,0.5512237548828125,-0.235107421875,1,0.95
2020-05-16 12:50:31.339 -0400,11559.4821685,1.55194091796875,0.3289337158203125,-0.227874755859375,1,0.95
2020-05-16 12:50:31.409 -0400,11559.5519995,0.9490966796875,0.4229583740234375,-0.1944732666015625,1,0.95
2020-05-16 12:50:31.479 -0400,11559.6218335,0.617767333984375,0.280303955078125,0.0111083984375,1,0.95
2020-05-16 12:50:31.549 -0400,11559.6916705,0.5433349609375,0.1021728515625,0.03594970703125,1,0.95
2020-05-16 12:50:31.618 -0400,11559.7615045,0.3778076171875,0.0371246337890625,0.0364227294921875,1,0.95
2020-05-16 12:50:31.688 -0400,11559.8313395,0.358428955078125,0.31805419921875,0.02886962890625,1,0.95
2020-05-16 12:50:31.758 -0400,11559.9011785,1.065628051757812,1.187744140625,-0.046051025390625,1,0.95
2020-05-16 12:50:31.828 -0400,11559.971019875,1.183990478515625,0.7202301025390625,-0.8106536865234375,1,0.95
2020-05-16 12:50:31.898 -0400,11560.040862875,1.745407104492188,0.88946533203125,-0.1395111083984375,1,0.95
2020-05-16 12:50:31.968 -0400,11560.110702875,0.84735107421875,0.6820526123046875,-0.48779296875,1,0.95
2020-05-16 12:50:32.037 -0400,11560.180544875,0.617889404296875,0.4415283203125,-0.3313140869140625,1,0.95
2020-05-16 12:50:32.108 -0400,11560.250387875,0.4699249267578125,0.46484375,-0.2312774658203125,1,0.95
2020-05-16 12:50:32.177 -0400,11560.320232875,0.5826873779296875,0.9378509521484375,-0.2871551513671875,1,0.95
2020-05-16 12:50:32.251 -0400,11560.390074875,1.286392211914062,0.842071533203125,-0.561248779296875,1,0.95
2020-05-16 12:50:32.317 -0400,11560.459914875,2.493240356445312,0.5022125244140625,0.159027099609375,1,0.95
2020-05-16 12:50:32.387 -0400,11560.529753875,2.040542602539062,0.4335784912109375,-0.5053558349609375,1,0.95
2020-05-16 12:50:32.457 -0400,11560.599590875,1.156784057617188,0.5993499755859375,-0.3552093505859375,1,0.95
2020-05-16 12:50:32.526 -0400,11560.669427875,0.6377716064453125,0.2075042724609375,-0.0430145263671875,1,0.95
2020-05-16 12:50:32.596 -0400,11560.739263875,0.384490966796875,0.0159149169921875,0.0211029052734375,1,0.95
2020-05-16 12:50:32.666 -0400,11560.809100875,0.4360504150390625,0.0376739501953125,0.0365142822265625,1,0.95
2020-05-16 12:50:32.736 -0400,11560.878937875,0.8679046630859375,0.4190216064453125,0.0476226806640625,1,0.95
2020-05-16 12:50:32.806 -0400,11560.948776,0.7507171630859375,0.7507476806640625,-0.374359130859375,1,0.95
2020-05-16 12:50:32.876 -0400,11561.018614,1.556320190429688,0.708221435546875,-0.3390350341796875,1,0.95
2020-05-16 12:50:32.945 -0400,11561.088456,1.295700073242188,0.6798248291015625,-0.3227386474609375,1,0.95
2020-05-16 12:50:33.015 -0400,11561.158297,1.036544799804688,0.6285858154296875,-0.2467041015625,1,0.95
2020-05-16 12:50:33.085 -0400,11561.228139,0.8803253173828125,0.7602691650390625,-0.326934814453125,1,0.95
2020-05-16 12:50:33.155 -0400,11561.297984,1.004806518554688,0.988128662109375,-0.45025634765625,1,0.95
2020-05-16 12:50:33.225 -0400,11561.36783,0.6395721435546875,1.180191040039062,-0.357879638671875,1,0.95
2020-05-16 12:50:33.301 -0400,11561.437674,1.3619384765625,1.461380004882812,-0.54034423828125,1,0.95
2020-05-16 12:50:33.364 -0400,11561.507518,2.354324340820312,0.4001922607421875,-0.01165771484375,1,0.95
2020-05-16 12:50:33.434 -0400,11561.57736,1.69207763671875,0.30084228515625,-0.214599609375,1,0.95
2020-05-16 12:50:33.504 -0400,11561.647206,1.149185180664062,0.5610809326171875,-0.1321563720703125,1,0.95
2020-05-16 12:50:33.574 -0400,11561.717049,1.017166137695312,0.2585601806640625,0.0439910888671875,1,0.95
2020-05-16 12:50:33.644 -0400,11561.78689,0.8170928955078125,-0.0006256103515625,0.040771484375,1,0.95
2020-05-16 12:50:33.714 -0400,11561.856733,0.6511077880859375,0.02215576171875,0.0303497314453125,1,0.95
2020-05-16 12:50:33.783 -0400,11561.926579,0.76495361328125,0.3182373046875,-0.07122802734375,1,0.95
2020-05-16 12:50:33.853 -0400,11561.99642525,0.746185302734375,1.184112548828125,-0.3741912841796875,1,0.95
2020-05-16 12:50:33.923 -0400,11562.06626925,1.097747802734375,1.001739501953125,-0.3872528076171875,1,0.95
2020-05-16 12:50:33.993 -0400,11562.13611125,1.258712768554688,0.9158935546875,-0.41448974609375,1,0.95
2020-05-16 12:50:34.063 -0400,11562.20595025,0.8894805908203125,1.0943603515625,-0.28680419921875,1,0.95
2020-05-16 12:50:34.133 -0400,11562.27578825,0.3452301025390625,0.897857666015625,-0.2824859619140625,1,0.95
2020-05-16 12:50:34.203 -0400,11562.34562825,0.4446563720703125,1.32586669921875,-0.2801055908203125,1,0.95
2020-05-16 12:50:34.272 -0400,11562.41547125,1.971542358398438,1.597930908203125,-0.659881591796875,1,0.95
2020-05-16 12:50:34.342 -0400,11562.48531025,2.041473388671875,0.55621337890625,0.1730499267578125,1,0.95
2020-05-16 12:50:34.412 -0400,11562.55514925,1.762405395507812,0.44683837890625,-0.1881866455078125,1,0.95
2020-05-16 12:50:34.482 -0400,11562.62498525,1.051315307617188,0.3391571044921875,-0.0302276611328125,1,0.95
2020-05-16 12:50:34.552 -0400,11562.69482025,0.747894287109375,0.107086181640625,0.0555572509765625,1,0.95
2020-05-16 12:50:34.622 -0400,11562.76465425,0.670318603515625,-0.074951171875,0.0370025634765625,1,0.95
2020-05-16 12:50:34.691 -0400,11562.83449225,0.6748046875,-0.08026123046875,0.0294036865234375,1,0.95
2020-05-16 12:50:34.761 -0400,11562.90433025,0.6581878662109375,0.250701904296875,0.082275390625,1,0.95
2020-05-16 12:50:34.831 -0400,11562.9741655,0.9253082275390625,1.4912109375,-0.2443695068359375,1,0.95
2020-05-16 12:50:34.901 -0400,11563.0439965,1.314865112304688,0.9759979248046875,-0.6247406005859375,1,0.95
2020-05-16 12:50:34.971 -0400,11563.1138255,1.069671630859375,1.074295043945312,-0.2716522216796875,1,0.95
2020-05-16 12:50:35.040 -0400,11563.1836505,0.52752685546875,0.66571044921875,-0.210906982421875,1,0.95
2020-05-16 12:50:35.110 -0400,11563.2534725,0.399810791015625,0.7943878173828125,-0.3204345703125,1,0.95
2020-05-16 12:50:35.180 -0400,11563.3232935,0.58990478515625,1.06317138671875,-0.5384674072265625,1,0.95
2020-05-16 12:50:35.250 -0400,11563.3931155,1.072265625,0.49420166015625,-0.207061767578125,1,0.95
2020-05-16 12:50:35.320 -0400,11563.4629415,2.086578369140625,0.814239501953125,0.1214599609375,1,0.95
2020-05-16 12:50:35.390 -0400,11563.5327705,2.117431640625,0.2952728271484375,-0.22760009765625,1,0.95
2020-05-16 12:50:35.460 -0400,11563.6026035,1.231185913085938,0.458099365234375,0.0168914794921875,1,0.95
2020-05-16 12:50:35.529 -0400,11563.6724415,0.853851318359375,0.3259735107421875,-0.0109710693359375,1,0.95
2020-05-16 12:50:35.599 -0400,11563.7422735,0.6098785400390625,0.0646820068359375,0.0542144775390625,1,0.95
2020-05-16 12:50:35.669 -0400,11563.8121085,0.68096923828125,-0.1076507568359375,0.0076141357421875,1,0.95
2020-05-16 12:50:35.739 -0400,11563.8819415,0.5891876220703125,0.0973358154296875,-0.0016937255859375,1,0.95
2020-05-16 12:50:35.809 -0400,11563.951772125,0.7941131591796875,1.009628295898438,0.0357513427734375,1,0.95
2020-05-16 12:50:35.878 -0400,11564.021607125,1.572265625,0.8149261474609375,-0.5805206298828125,1,0.95
2020-05-16 12:50:35.949 -0400,11564.091448125,1.488433837890625,0.8773193359375,-0.33306884765625,1,0.95
2020-05-16 12:50:36.018 -0400,11564.161287125,0.6833953857421875,0.568511962890625,-0.17987060546875,1,0.95
2020-05-16 12:50:36.088 -0400,11564.231128125,0.4617156982421875,0.491363525390625,-0.2393035888671875,1,0.95
2020-05-16 12:50:36.158 -0400,11564.300974125,0.69610595703125,0.9959869384765625,-0.23577880859375,1,0.95
2020-05-16 12:50:36.228 -0400,11564.370818125,0.828155517578125,1.066864013671875,-0.143218994140625,1,0.95
2020-05-16 12:50:36.298 -0400,11564.440663125,2.202728271484375,0.83905029296875,-0.5912322998046875,1,0.95
2020-05-16 12:50:36.368 -0400,11564.510506125,2.097320556640625,0.623291015625,-0.1318359375,1,0.95
2020-05-16 12:50:36.438 -0400,11564.580349125,1.580642700195312,0.579681396484375,-0.2942352294921875,1,0.95
2020-05-16 12:50:36.507 -0400,11564.650194125,1.010604858398438,0.322174072265625,-0.0753326416015625,1,0.95
2020-05-16 12:50:36.577 -0400,11564.720043125,0.814788818359375,0.176971435546875,0.0186767578125,1,0.95
2020-05-16 12:50:36.647 -0400,11564.789887125,0.439056396484375,0.0105133056640625,0.0140228271484375,1,0.95
2020-05-16 12:50:36.717 -0400,11564.859732125,0.6247406005859375,0.2476806640625,-0.0637054443359375,1,0.95
2020-05-16 12:50:36.786 -0400,11564.929574125,0.4177398681640625,0.386505126953125,-0.145111083984375,1,0.95
2020-05-16 12:50:36.856 -0400,11564.999415875,1.007522583007812,1.118408203125,-0.3910980224609375,1,0.95
2020-05-16 12:50:36.926 -0400,11565.069258875,0.9837799072265625,0.90771484375,-0.5280914306640625,1,0.95
2020-05-16 12:50:36.996 -0400,11565.139102875,0.909759521484375,0.7555389404296875,-0.5055389404296875,1,0.95
2020-05-16 12:50:37.066 -0400,11565.208943875,0.6590423583984375,0.6865386962890625,-0.2580108642578125,1,0.95
2020-05-16 12:50:37.136 -0400,11565.278785875,0.6255340576171875,0.8858642578125,-0.2224578857421875,1,0.95
2020-05-16 12:50:37.205 -0400,11565.348626875,0.968994140625,0.9888916015625,-0.254791259765625,1,0.95
2020-05-16 12:50:37.276 -0400,11565.418471875,1.779708862304688,1.367431640625,-0.319427490234375,1,0.95
2020-05-16 12:50:37.345 -0400,11565.488314875,1.5289306640625,0.5200958251953125,-0.2420196533203125,1,0.95
2020-05-16 12:50:37.415 -0400,11565.558156875,1.881790161132812,0.7195587158203125,-0.2882537841796875,1,0.95
2020-05-16 12:50:37.485 -0400,11565.627996875,1.124862670898438,0.240203857421875,-0.2086944580078125,1,0.95
2020-05-16 12:50:37.555 -0400,11565.697837875,0.7535400390625,0.2399749755859375,-0.110504150390625,1,0.95
2020-05-16 12:50:37.625 -0400,11565.767679875,0.6884002685546875,0.1271209716796875,-0.0485687255859375,1,0.95
2020-05-16 12:50:37.694 -0400,11565.837520875,0.6611480712890625,0.0830078125,-0.082427978515625,1,0.95
2020-05-16 12:50:37.764 -0400,11565.907361875,0.533538818359375,0.1680450439453125,0.0240020751953125,1,0.95
2020-05-16 12:50:37.838 -0400,11565.977204875,0.865692138671875,0.719573974609375,-0.157684326171875,1,0.95
2020-05-16 12:50:37.904 -0400,11566.047047875,1.331405639648438,0.7704010009765625,-0.3809814453125,1,0.95
2020-05-16 12:50:37.974 -0400,11566.116884875,1.42340087890625,0.852813720703125,-0.40423583984375,1,0.95
2020-05-16 12:50:38.044 -0400,11566.186722875,0.86083984375,0.6304779052734375,-0.36175537109375,1,0.95
2020-05-16 12:50:38.114 -0400,11566.256564875,0.601104736328125,0.7286224365234375,-0.328643798828125,1,0.95
2020-05-16 12:50:38.183 -0400,11566.326407875,0.5652313232421875,0.9128570556640625,-0.2497406005859375,1,0.95
2020-05-16 12:50:38.253 -0400,11566.396248875,0.9598846435546875,1.09088134765625,-0.3118896484375,1,0.95
