loggingTime(txt),locationTimestamp_since1970(s),locationLatitude(WGS84),locationLongitude(WGS84),locationAltitude(m),locationSpeed(m/s),locationCourse(°),locationVerticalAccuracy(m),locationHorizontalAccuracy(m),locationFloor(Z),accelerometerTimestamp_sinceReboot(s),accelerometerAccelerationX(G),accelerometerAccelerationY(G),accelerometerAccelerationZ(G),batteryState,batteryLevel
2020-05-20 00:52:39.427 -0400,1589950358.999725,41.3519752859226,-71.8449205426692,17.86416,0.4526344,-1,3.355241788053201,4.750462038211693,-9999,16074.634687375,0.10760498046875,-0.2463531494140625,-0.969940185546875,1,0.62
2020-05-20 00:52:39.467 -0400,1589950358.999725,41.3519752859226,-71.8449205426692,17.86416,0.4526344,-1,3.355241788053201,4.750462038211693,-9999,16074.68458325,0.090423583984375,-0.2747650146484375,-0.930084228515625,1,0.62
2020-05-20 00:52:39.517 -0400,1589950358.999725,41.3519752859226,-71.8449205426692,17.86416,0.4526344,-1,3.355241788053201,4.750462038211693,-9999,16074.73447625,0.0835723876953125,-0.281585693359375,-0.9505462646484375,1,0.62
2020-05-20 00:52:39.566 -0400,1589950358.999725,41.3519752859226,-71.8449205426692,17.86416,0.4526344,-1,3.355241788053201,4.750462038211693,-9999,16074.78436925,0.08746337890625,-0.2656402587890625,-0.9645233154296875,1,0.62
2020-05-20 00:52:39.616 -0400,1589950358.999725,41.3519752859226,-71.8449205426692,17.86416,0.4526344,-1,3.355241788053201,4.750462038211693,-9999,16074.83426025,0.0930938720703125,-0.281097412109375,-0.9593658447265625,1,0.62
2020-05-20 00:52:39.666 -0400,1589950358.999725,41.3519752859226,-71.8449205426692,17.86416,0.4526344,-1,3.355241788053201,4.750462038211693,-9999,16074.88415025,0.08929443359375,-0.27789306640625,-0.951812744140625,1,0.62
2020-05-20 00:52:39.716 -0400,1589950358.999725,41.3519752859226,-71.8449205426692,17.86416,0.4526344,-1,3.355241788053201,4.750462038211693,-9999,16074.93404525,0.078125,-0.287261962890625,-0.9264984130859375,1,0.62
2020-05-20 00:52:39.766 -0400,1589950358.999725,41.3519752859226,-71.8449205426692,17.86416,0.4526344,-1,3.355241788053201,4.750462038211693,-9999,16074.98393825,0.0784912109375,-0.3058624267578125,-0.9113311767578125,1,0.62
2020-05-20 00:52:39.816 -0400,1589950358.999725,41.3519752859226,-71.8449205426692,17.86416,0.4526344,-1,3.355241788053201,4.750462038211693,-9999,16075.03383125,0.1145477294921875,-0.238067626953125,-0.991912841796875,1,0.62
2020-05-20 00:52:39.866 -0400,1589950358.999725,41.3519752859226,-71.8449205426692,17.86416,0.4526344,-1,3.355241788053201,4.750462038211693,-9999,16075.08372625,0.108428955078125,-0.2225799560546875,-0.929443359375,1,0.62
2020-05-20 00:52:39.916 -0400,1589950358.999725,41.3519752859226,-71.8449205426692,17.86416,0.4526344,-1,3.355241788053201,4.750462038211693,-9999,16075.13362225,0.13311767578125,-0.183013916015625,-1.012741088867188,1,0.62
2020-05-20 00:52:39.966 -0400,1589950358.999725,41.3519752859226,-71.8449205426692,17.86416,0.4526344,-1,3.355241788053201,4.750462038211693,-9999,16075.18351525,0.1397552490234375,-0.0388946533203125,-1.025497436523438,1,0.62
2020-05-20 00:52:40.016 -0400,1589950358.999725,41.3519752859226,-71.8449205426692,17.86416,0.4526344,-1,3.355241788053201,4.750462038211693,-9999,16075.23340825,0.1300048828125,-0.058868408203125,-0.9780426025390625,1,0.62
2020-05-20 00:52:40.065 -0400,1589950358.999725,41.3519752859226,-71.8449205426692,17.86416,0.4526344,-1,3.355241788053201,4.750462038211693,-9999,16075.28330225,0.1295166015625,0.0363922119140625,-0.9705657958984375,1,0.62
2020-05-20 00:52:40.115 -0400,1589950358.999725,41.3519752859226,-71.8449205426692,17.86416,0.4526344,-1,3.355241788053201,4.750462038211693,-9999,16075.33319825,0.1470489501953125,-0.0078125,-1.055007934570312,1,0.62
2020-05-20 00:52:40.165 -0400,1589950358.999725,41.3519752859226,-71.8449205426692,17.86416,0.4526344,-1,3.355241788053201,4.750462038211693,-9999,16075.38309425,0.1474151611328125,-0.0885162353515625,-0.930938720703125,1,0.62
2020-05-20 00:52:40.215 -0400,1589950358.999725,41.3519752859226,-71.8449205426692,17.86416,0.4526344,-1,3.355241788053201,4.750462038211693,-9999,16075.43298825,0.15869140625,-0.156829833984375,-1.00238037109375,1,0.62
2020-05-20 00:52:40.265 -0400,1589950358.999725,41.3519752859226,-71.8449205426692,17.86416,0.4526344,-1,3.355241788053201,4.750462038211693,-9999,16075.48288025,0.16436767578125,-0.0757598876953125,-0.972412109375,1,0.62
2020-05-20 00:52:40.315 -0400,1589950358.999725,41.3519752859226,-71.8449205426692,17.86416,0.4526344,-1,3.355241788053201,4.750462038211693,-9999,16075.53277325,0.1389312744140625,0.2075042724609375,-0.962921142578125,1,0.62
2020-05-20 00:52:40.365 -0400,1589950359.99976,41.35197413453285,-71.84492519303009,18.49165,0,-1,3.338672441746985,4.762121728757893,-9999,16075.58266425,0.14984130859375,0.21923828125,-0.982879638671875,1,0.62
2020-05-20 00:52:40.415 -0400,1589950359.99976,41.35197413453285,-71.84492519303009,18.49165,0,-1,3.338672441746985,4.762121728757893,-9999,16075.63255625,0.151336669921875,0.458282470703125,-0.90557861328125,1,0.62
2020-05-20 00:52:40.465 -0400,1589950359.99976,41.35197413453285,-71.84492519303009,18.49165,0,-1,3.338672441746985,4.762121728757893,-9999,16075.682447625,0.1347503662109375,0.4071197509765625,-0.906280517578125,1,0.62
2020-05-20 00:52:40.515 -0400,1589950359.99976,41.35197413453285,-71.84492519303009,18.49165,0,-1,3.338672441746985,4.762121728757893,-9999,16075.732340625,0.1390228271484375,0.424224853515625,-0.9119415283203125,1,0.62
2020-05-20 00:52:40.565 -0400,1589950359.99976,41.35197413453285,-71.84492519303009,18.49165,0,-1,3.338672441746985,4.762121728757893,-9999,16075.782233625,0.1356353759765625,0.248870849609375,-0.920440673828125,1,0.62
2020-05-20 00:52:40.615 -0400,1589950359.99976,41.35197413453285,-71.84492519303009,18.49165,0,-1,3.338672441746985,4.762121728757893,-9999,16075.832127625,0.1623382568359375,0.353302001953125,-0.9706268310546875,1,0.62
2020-05-20 00:52:40.665 -0400,1589950359.99976,41.35197413453285,-71.84492519303009,18.49165,0,-1,3.338672441746985,4.762121728757893,-9999,16075.882020625,0.1328887939453125,0.3577880859375,-0.9224853515625,1,0.62
2020-05-20 00:52:40.715 -0400,1589950359.99976,41.35197413453285,-71.84492519303009,18.49165,0,-1,3.338672441746985,4.762121728757893,-9999,16075.931914625,0.121429443359375,0.3445892333984375,-0.9222412109375,1,0.62
2020-05-20 00:52:40.764 -0400,1589950359.99976,41.35197413453285,-71.84492519303009,18.49165,0,-1,3.338672441746985,4.762121728757893,-9999,16075.981808625,0.1306610107421875,0.332305908203125,-0.93756103515625,1,0.62
2020-05-20 00:52:40.814 -0400,1589950359.99976,41.35197413453285,-71.84492519303009,18.49165,0,-1,3.338672441746985,4.762121728757893,-9999,16076.031702625,0.1413726806640625,0.3267822265625,-0.938018798828125,1,0.62
2020-05-20 00:52:40.864 -0400,1589950359.99976,41.35197413453285,-71.84492519303009,18.49165,0,-1,3.338672441746985,4.762121728757893,-9999,16076.081598625,0.1379852294921875,0.323211669921875,-0.937255859375,1,0.62
2020-05-20 00:52:40.914 -0400,1589950359.99976,41.35197413453285,-71.84492519303009,18.49165,0,-1,3.338672441746985,4.762121728757893,-9999,16076.131494625,0.1342010498046875,0.3295745849609375,-0.9439544677734375,1,0.62
2020-05-20 00:52:40.964 -0400,1589950359.99976,41.35197413453285,-71.84492519303009,18.49165,0,-1,3.338672441746985,4.762121728757893,-9999,16076.181389625,0.132080078125,0.3360748291015625,-0.9348602294921875,1,0.62
2020-05-20 00:52:41.014 -0400,1589950359.99976,41.35197413453285,-71.84492519303009,18.49165,0,-1,3.338672441746985,4.762121728757893,-9999,16076.231287625,0.133026123046875,0.3295440673828125,-0.9376220703125,1,0.62
2020-05-20 00:52:41.064 -0400,1589950359.99976,41.35197413453285,-71.84492519303009,18.49165,0,-1,3.338672441746985,4.762121728757893,-9999,16076.281185625,0.1334991455078125,0.3247222900390625,-0.9399566650390625,1,0.62
2020-05-20 00:52:41.114 -0400,1589950359.99976,41.35197413453285,-71.84492519303009,18.49165,0,-1,3.338672441746985,4.762121728757893,-9999,16076.331078625,0.131805419921875,0.3301849365234375,-0.9346771240234375,1,0.62
2020-05-20 00:52:41.164 -0400,1589950359.99976,41.35197413453285,-71.84492519303009,18.49165,0,-1,3.338672441746985,4.762121728757893,-9999,16076.380970625,0.134918212890625,0.3267669677734375,-0.93743896484375,1,0.62
2020-05-20 00:52:41.213 -0400,1589950359.99976,41.35197413453285,-71.84492519303009,18.49165,0,-1,3.338672441746985,4.762121728757893,-9999,16076.430862625,0.1327362060546875,0.33447265625,-0.94189453125,1,0.62
2020-05-20 00:52:41.263 -0400,1589950360.999732,41.3519832421374,-71.84492763906981,20.04216,0,-1,3.314984954938058,4.778641206590337,-9999,16076.480755625,0.132537841796875,0.3350372314453125,-0.9344482421875,1,0.62
2020-05-20 00:52:41.313 -0400,1589950360.999732,41.3519832421374,-71.84492763906981,20.04216,0,-1,3.314984954938058,4.778641206590337,-9999,16076.530648625,0.1318511962890625,0.3397674560546875,-0.9337921142578125,1,0.62
2020-05-20 00:52:41.363 -0400,1589950360.999732,41.3519832421374,-71.84492763906981,20.04216,0,-1,3.314984954938058,4.778641206590337,-9999,16076.580539625,0.1296844482421875,0.326934814453125,-0.9376678466796875,1,0.62
2020-05-20 00:52:41.413 -0400,1589950360.999732,41.3519832421374,-71.84492763906981,20.04216,0,-1,3.314984954938058,4.778641206590337,-9999,16076.630432625,0.131591796875,0.3331451416015625,-0.94476318359375,1,0.62
2020-05-20 00:52:41.463 -0400,1589950360.999732,41.3519832421374,-71.84492763906981,20.04216,0,-1,3.314984954938058,4.778641206590337,-9999,16076.6803265,0.1337890625,0.3410797119140625,-0.9381256103515625,1,0.62
2020-05-20 00:52:41.513 -0400,1589950360.999732,41.3519832421374,-71.84492763906981,20.04216,0,-1,3.314984954938058,4.778641206590337,-9999,16076.7302155,0.131561279296875,0.3285980224609375,-0.935302734375,1,0.62
2020-05-20 00:52:41.563 -0400,1589950360.999732,41.3519832421374,-71.84492763906981,20.04216,0,-1,3.314984954938058,4.778641206590337,-9999,16076.7801035,0.131256103515625,0.3326873779296875,-0.936126708984375,1,0.62
2020-05-20 00:52:41.613 -0400,1589950360.999732,41.3519832421374,-71.84492763906981,20.04216,0,-1,3.314984954938058,4.778641206590337,-9999,16076.8299935,0.1335906982421875,0.33306884765625,-0.944366455078125,1,0.62
2020-05-20 00:52:41.662 -0400,1589950360.999732,41.3519832421374,-71.84492763906981,20.04216,0,-1,3.314984954938058,4.778641206590337,-9999,16076.8798845,0.1311492919921875,0.342559814453125,-0.9384613037109375,1,0.62
2020-05-20 00:52:41.712 -0400,1589950360.999732,41.3519832421374,-71.84492763906981,20.04216,0,-1,3.314984954938058,4.778641206590337,-9999,16076.9297765,0.129547119140625,0.3329620361328125,-0.9347381591796875,1,0.62
2020-05-20 00:52:41.762 -0400,1589950360.999732,41.3519832421374,-71.84492763906981,20.04216,0,-1,3.314984954938058,4.778641206590337,-9999,16076.9796655,0.1294708251953125,0.3337554931640625,-0.934112548828125,1,0.62
2020-05-20 00:52:41.812 -0400,1589950360.999732,41.3519832421374,-71.84492763906981,20.04216,0,-1,3.314984954938058,4.778641206590337,-9999,16077.0295525,0.130340576171875,0.331451416015625,-0.9353179931640625,1,0.62
2020-05-20 00:52:41.862 -0400,1589950360.999732,41.3519832421374,-71.84492763906981,20.04216,0,-1,3.314984954938058,4.778641206590337,-9999,16077.0794425,0.131378173828125,0.33197021484375,-0.9352874755859375,1,0.62
2020-05-20 00:52:41.912 -0400,1589950360.999732,41.3519832421374,-71.84492763906981,20.04216,0,-1,3.314984954938058,4.778641206590337,-9999,16077.1293345,0.1307373046875,0.332427978515625,-0.9359130859375,1,0.62
2020-05-20 00:52:41.962 -0400,1589950360.999732,41.3519832421374,-71.84492763906981,20.04216,0,-1,3.314984954938058,4.778641206590337,-9999,16077.1792235,0.128448486328125,0.329498291015625,-0.9354248046875,1,0.62
2020-05-20 00:52:42.012 -0400,1589950360.999732,41.3519832421374,-71.84492763906981,20.04216,0,-1,3.314984954938058,4.778641206590337,-9999,16077.2291135,0.1307525634765625,0.324859619140625,-0.93890380859375,1,0.62
2020-05-20 00:52:42.061 -0400,1589950360.999732,41.3519832421374,-71.84492763906981,20.04216,0,-1,3.314984954938058,4.778641206590337,-9999,16077.2790015,0.1277008056640625,0.34393310546875,-0.92938232421875,1,0.62
2020-05-20 00:52:42.111 -0400,1589950360.999732,41.3519832421374,-71.84492763906981,20.04216,0,-1,3.314984954938058,4.778641206590337,-9999,16077.3288885,0.133697509765625,0.3331756591796875,-0.937896728515625,1,0.62
2020-05-20 00:52:42.161 -0400,1589950360.999732,41.3519832421374,-71.84492763906981,20.04216,0,-1,3.314984954938058,4.778641206590337,-9999,16077.3787755,0.1296539306640625,0.3332061767578125,-0.9379730224609375,1,0.62
2020-05-20 00:52:42.211 -0400,1589950360.999732,41.3519832421374,-71.84492763906981,20.04216,0,-1,3.314984954938058,4.778641206590337,-9999,16077.4286615,0.1248626708984375,0.322235107421875,-0.9342193603515625,1,0.62
2020-05-20 00:52:42.261 -0400,1589950361.99973,41.35198894316616,-71.84492680677269,20.00512,0,-1,3.364988284566692,4.743563099350292,-9999,16077.4785455,0.127471923828125,0.331085205078125,-0.9373779296875,1,0.62
2020-05-20 00:52:42.311 -0400,1589950361.99973,41.35198894316616,-71.84492680677269,20.00512,0,-1,3.364988284566692,4.743563099350292,-9999,16077.5284345,0.1290130615234375,0.3300323486328125,-0.936279296875,1,0.62
2020-05-20 00:52:42.361 -0400,1589950361.99973,41.35198894316616,-71.84492680677269,20.00512,0,-1,3.364988284566692,4.743563099350292,-9999,16077.5783255,0.128204345703125,0.3327178955078125,-0.933502197265625,1,0.62
2020-05-20 00:52:42.411 -0400,1589950361.99973,41.35198894316616,-71.84492680677269,20.00512,0,-1,3.364988284566692,4.743563099350292,-9999,16077.6282155,0.13134765625,0.33258056640625,-0.936614990234375,1,0.62
2020-05-20 00:52:42.461 -0400,1589950361.99973,41.35198894316616,-71.84492680677269,20.00512,0,-1,3.364988284566692,4.743563099350292,-9999,16077.67810254167,0.1288909912109375,0.3388824462890625,-0.94390869140625,1,0.62
2020-05-20 00:52:42.510 -0400,1589950361.99973,41.35198894316616,-71.84492680677269,20.00512,0,-1,3.364988284566692,4.743563099350292,-9999,16077.72799054167,0.1302490234375,0.3101043701171875,-0.9487152099609375,1,0.62
2020-05-20 00:52:42.560 -0400,1589950361.99973,41.35198894316616,-71.84492680677269,20.00512,0,-1,3.364988284566692,4.743563099350292,-9999,16077.77787954167,0.1316680908203125,0.3052215576171875,-0.9390869140625,1,0.62
2020-05-20 00:52:42.610 -0400,1589950361.99973,41.35198894316616,-71.84492680677269,20.00512,0,-1,3.364988284566692,4.743563099350292,-9999,16077.82776754167,0.1383819580078125,0.3289947509765625,-0.953765869140625,1,0.62
2020-05-20 00:52:42.660 -0400,1589950361.99973,41.35198894316616,-71.84492680677269,20.00512,0,-1,3.364988284566692,4.743563099350292,-9999,16077.87765854167,0.1800384521484375,0.27777099609375,-1.014022827148438,1,0.62
2020-05-20 00:52:42.710 -0400,1589950361.99973,41.35198894316616,-71.84492680677269,20.00512,0,-1,3.364988284566692,4.743563099350292,-9999,16077.92755154167,0.194671630859375,0.30126953125,-0.9642181396484375,1,0.62
2020-05-20 00:52:42.760 -0400,1589950361.99973,41.35198894316616,-71.84492680677269,20.00512,0,-1,3.364988284566692,4.743563099350292,-9999,16077.97744154167,0.185302734375,0.342071533203125,-0.9463958740234375,1,0.62
2020-05-20 00:52:42.810 -0400,1589950361.99973,41.35198894316616,-71.84492680677269,20.00512,0,-1,3.364988284566692,4.743563099350292,-9999,16078.02733154167,0.193084716796875,0.4018096923828125,-0.93243408203125,1,0.62
2020-05-20 00:52:42.860 -0400,1589950361.99973,41.35198894316616,-71.84492680677269,20.00512,0,-1,3.364988284566692,4.743563099350292,-9999,16078.07721854167,0.188995361328125,0.39874267578125,-0.8828887939453125,1,0.62
2020-05-20 00:52:42.910 -0400,1589950361.99973,41.35198894316616,-71.84492680677269,20.00512,0,-1,3.364988284566692,4.743563099350292,-9999,16078.12710854167,0.09539794921875,0.4273834228515625,-0.8595733642578125,1,0.62
2020-05-20 00:52:42.959 -0400,1589950361.99973,41.35198894316616,-71.84492680677269,20.00512,0,-1,3.364988284566692,4.743563099350292,-9999,16078.17699954167,0.0712127685546875,0.412200927734375,-0.854827880859375,1,0.62
2020-05-20 00:52:43.009 -0400,1589950361.99973,41.35198894316616,-71.84492680677269,20.00512,0,-1,3.364988284566692,4.743563099350292,-9999,16078.22689254167,0.0147247314453125,0.4647064208984375,-0.8488311767578125,1,0.62
2020-05-20 00:52:43.059 -0400,1589950361.99973,41.35198894316616,-71.84492680677269,20.00512,0,-1,3.364988284566692,4.743563099350292,-9999,16078.27678254167,-0.0279541015625,0.50506591796875,-0.832183837890625,1,0.62
2020-05-20 00:52:43.109 -0400,1589950361.99973,41.35198894316616,-71.84492680677269,20.00512,0,-1,3.364988284566692,4.743563099350292,-9999,16078.32667354167,-0.147491455078125,0.5934906005859375,-0.7487335205078125,1,0.62
2020-05-20 00:52:43.159 -0400,1589950361.99973,41.35198894316616,-71.84492680677269,20.00512,0,-1,3.364988284566692,4.743563099350292,-9999,16078.37656254167,-0.22113037109375,0.7905731201171875,-0.6791534423828125,1,0.62
2020-05-20 00:52:43.209 -0400,1589950361.99973,41.35198894316616,-71.84492680677269,20.00512,0,-1,3.364988284566692,4.743563099350292,-9999,16078.42645354167,-0.2671051025390625,0.93719482421875,-0.614898681640625,1,0.62
2020-05-20 00:52:43.259 -0400,1589950361.99973,41.35198894316616,-71.84492680677269,20.00512,0,-1,3.364988284566692,4.743563099350292,-9999,16078.47634154167,-0.3080596923828125,0.826995849609375,-0.5152587890625,1,0.62
2020-05-20 00:52:43.309 -0400,1589950362.99973,41.35199284333059,-71.84492697492726,19.77369,0,-1,3.391999642598115,4.724285708697464,-9999,16078.52622954167,-0.2348480224609375,0.935516357421875,-0.3619842529296875,1,0.62
2020-05-20 00:52:43.359 -0400,1589950362.99973,41.35199284333059,-71.84492697492726,19.77369,0,-1,3.391999642598115,4.724285708697464,-9999,16078.57611854167,-0.233978271484375,0.7981109619140625,-0.371795654296875,1,0.62
2020-05-20 00:52:43.408 -0400,1589950362.99973,41.35199284333059,-71.84492697492726,19.77369,0,-1,3.391999642598115,4.724285708697464,-9999,16078.62600654167,-0.22149658203125,0.7516632080078125,-0.439361572265625,1,0.62
2020-05-20 00:52:43.458 -0400,1589950362.99973,41.35199284333059,-71.84492697492726,19.77369,0,-1,3.391999642598115,4.724285708697464,-9999,16078.67589541667,-0.2991180419921875,0.956451416015625,-0.4697418212890625,1,0.62
2020-05-20 00:52:43.508 -0400,1589950362.99973,41.35199284333059,-71.84492697492726,19.77369,0,-1,3.391999642598115,4.724285708697464,-9999,16078.72578341667,-0.211395263671875,0.899932861328125,-0.3680877685546875,1,0.62
2020-05-20 00:52:43.558 -0400,1589950362.99973,41.35199284333059,-71.84492697492726,19.77369,0,-1,3.391999642598115,4.724285708697464,-9999,16078.77567441667,-0.1867828369140625,0.9030609130859375,-0.1121978759765625,1,0.62
2020-05-20 00:52:43.608 -0400,1589950362.99973,41.35199284333059,-71.84492697492726,19.77369,0,-1,3.391999642598115,4.724285708697464,-9999,16078.82556641667,-0.078460693359375,0.98004150390625,-0.168731689453125,1,0.62
2020-05-20 00:52:43.658 -0400,1589950362.99973,41.35199284333059,-71.84492697492726,19.77369,0,-1,3.391999642598115,4.724285708697464,-9999,16078.87545941667,-0.013885498046875,1.035690307617188,-0.0838623046875,1,0.62
2020-05-20 00:52:43.708 -0400,1589950362.99973,41.35199284333059,-71.84492697492726,19.77369,0,-1,3.391999642598115,4.724285708697464,-9999,16078.92534941667,0.0442962646484375,1.067291259765625,-0.1353759765625,1,0.62
2020-05-20 00:52:43.758 -0400,1589950362.99973,41.35199284333059,-71.84492697492726,19.77369,0,-1,3.391999642598115,4.724285708697464,-9999,16078.97523941667,0.013916015625,1.079238891601562,-0.1497650146484375,1,0.62
2020-05-20 00:52:43.810 -0400,1589950362.99973,41.35199284333059,-71.84492697492726,19.77369,0,-1,3.391999642598115,4.724285708697464,-9999,16079.02512741667,-0.0227203369140625,1.143539428710938,-0.4618072509765625,1,0.62
2020-05-20 00:52:43.857 -0400,1589950362.99973,41.35199284333059,-71.84492697492726,19.77369,0,-1,3.391999642598115,4.724285708697464,-9999,16079.07501641667,-0.16339111328125,1.026260375976562,-0.420623779296875,1,0.62
2020-05-20 00:52:43.907 -0400,1589950362.99973,41.35199284333059,-71.84492697492726,19.77369,0,-1,3.391999642598115,4.724285708697464,-9999,16079.12490541667,-0.290679931640625,0.758026123046875,-0.386016845703125,1,0.62
2020-05-20 00:52:43.957 -0400,1589950362.99973,41.35199284333059,-71.84492697492726,19.77369,0,-1,3.391999642598115,4.724285708697464,-9999,16079.17479241667,-0.3383636474609375,0.9676361083984375,-0.2917633056640625,1,0.62
2020-05-20 00:52:44.008 -0400,1589950362.99973,41.35199284333059,-71.84492697492726,19.77369,0,-1,3.391999642598115,4.724285708697464,-9999,16079.22468041667,-0.3808135986328125,1.044326782226562,-0.2787933349609375,1,0.62
2020-05-20 00:52:44.057 -0400,1589950362.99973,41.35199284333059,-71.84492697492726,19.77369,0,-1,3.391999642598115,4.724285708697464,-9999,16079.27457041667,-0.3482513427734375,0.7409210205078125,-0.4149169921875,1,0.62
2020-05-20 00:52:44.107 -0400,1589950362.99973,41.35199284333059,-71.84492697492726,19.77369,0,-1,3.391999642598115,4.724285708697464,-9999,16079.32445741667,-0.2261199951171875,0.763671875,-0.5721588134765625,1,0.62
2020-05-20 00:52:44.157 -0400,1589950362.99973,41.35199284333059,-71.84492697492726,19.77369,0,-1,3.391999642598115,4.724285708697464,-9999,16079.37434441667,-0.1504669189453125,0.6244049072265625,-0.668243408203125,1,0.62
2020-05-20 00:52:44.207 -0400,1589950362.99973,41.35199284333059,-71.84492697492726,19.77369,0,-1,3.391999642598115,4.724285708697464,-9999,16079.42423441667,-0.0890350341796875,0.6389007568359375,-0.7940521240234375,1,0.62
2020-05-20 00:52:44.265 -0400,1589950362.99973,41.35199284333059,-71.84492697492726,19.77369,0,-1,3.391999642598115,4.724285708697464,-9999,16079.47412641667,-0.02557373046875,0.5201873779296875,-0.841522216796875,1,0.62
2020-05-20 00:52:44.307 -0400,1589950363.99973,41.35199252423692,-71.8449249123274,20.04845,0,-1,3.410485233467435,4.710958236398345,-9999,16079.52401741667,0.0126800537109375,0.368560791015625,-0.892333984375,1,0.62
2020-05-20 00:52:44.356 -0400,1589950363.99973,41.35199252423692,-71.8449249123274,20.04845,0,-1,3.410485233467435,4.710958236398345,-9999,16079.57390441667,0.05767822265625,0.3364410400390625,-0.880615234375,1,0.62
2020-05-20 00:52:44.406 -0400,1589950363.99973,41.35199252423692,-71.8449249123274,20.04845,0,-1,3.410485233467435,4.710958236398345,-9999,16079.62379341667,0.1219940185546875,0.2354736328125,-0.913238525390625,1,0.62
2020-05-20 00:52:44.456 -0400,1589950363.99973,41.35199252423692,-71.8449249123274,20.04845,0,-1,3.410485233467435,4.710958236398345,-9999,16079.673684125,0.1679229736328125,0.2326812744140625,-0.9635009765625,1,0.62
2020-05-20 00:52:44.506 -0400,1589950363.99973,41.35199252423692,-71.8449249123274,20.04845,0,-1,3.410485233467435,4.710958236398345,-9999,16079.723575125,0.21844482421875,0.1892852783203125,-0.9659576416015625,1,0.62
2020-05-20 00:52:44.556 -0400,1589950363.99973,41.35199252423692,-71.8449249123274,20.04845,0,-1,3.410485233467435,4.710958236398345,-9999,16079.773462125,0.2065277099609375,0.2762451171875,-0.9946746826171875,1,0.62
2020-05-20 00:52:44.606 -0400,1589950363.99973,41.35199252423692,-71.8449249123274,20.04845,0,-1,3.410485233467435,4.710958236398345,-9999,16079.823350125,0.1433563232421875,0.2656097412109375,-0.9632720947265625,1,0.62
2020-05-20 00:52:44.656 -0400,1589950363.99973,41.35199252423692,-71.8449249123274,20.04845,0,-1,3.410485233467435,4.710958236398345,-9999,16079.873237125,0.0730743408203125,0.242279052734375,-0.9796142578125,1,0.62
2020-05-20 00:52:44.706 -0400,1589950363.99973,41.35199252423692,-71.8449249123274,20.04845,0,-1,3.410485233467435,4.710958236398345,-9999,16079.923127125,0.0740509033203125,0.29937744140625,-0.9979400634765625,1,0.62
2020-05-20 00:52:44.755 -0400,1589950363.99973,41.35199252423692,-71.8449249123274,20.04845,0,-1,3.410485233467435,4.710958236398345,-9999,16079.973017125,0.187347412109375,0.5040130615234375,-1.09124755859375,1,0.62
2020-05-20 00:52:44.805 -0400,1589950363.99973,41.35199252423692,-71.8449249123274,20.04845,0,-1,3.410485233467435,4.710958236398345,-9999,16080.022909125,0.0048675537109375,0.2911834716796875,-0.9359588623046875,1,0.62
2020-05-20 00:52:44.855 -0400,1589950363.99973,41.35199252423692,-71.8449249123274,20.04845,0,-1,3.410485233467435,4.710958236398345,-9999,16080.072799125,0.0998992919921875,0.283050537109375,-0.933929443359375,1,0.62
2020-05-20 00:52:44.905 -0400,1589950363.99973,41.35199252423692,-71.8449249123274,20.04845,0,-1,3.410485233467435,4.710958236398345,-9999,16080.122686125,0.0405731201171875,0.2689971923828125,-0.923858642578125,1,0.62
2020-05-20 00:52:44.955 -0400,1589950363.99973,41.35199252423692,-71.8449249123274,20.04845,0,-1,3.410485233467435,4.710958236398345,-9999,16080.172575125,0.016357421875,0.236114501953125,-0.9420318603515625,1,0.62
2020-05-20 00:52:45.005 -0400,1589950363.99973,41.35199252423692,-71.8449249123274,20.04845,0,-1,3.410485233467435,4.710958236398345,-9999,16080.222464125,-0.038055419921875,0.2967681884765625,-0.9645843505859375,1,0.62
2020-05-20 00:52:45.054 -0400,1589950363.99973,41.35199252423692,-71.8449249123274,20.04845,0,-1,3.410485233467435,4.710958236398345,-9999,16080.272354125,-0.0446319580078125,0.3344268798828125,-0.9583282470703125,1,0.62
2020-05-20 00:52:45.105 -0400,1589950363.99973,41.35199252423692,-71.8449249123274,20.04845,0,-1,3.410485233467435,4.710958236398345,-9999,16080.322243125,0.000335693359375,0.2733917236328125,-0.96990966796875,1,0.62
2020-05-20 00:52:45.155 -0400,1589950363.99973,41.35199252423692,-71.8449249123274,20.04845,0,-1,3.410485233467435,4.710958236398345,-9999,16080.372131125,-0.0362548828125,0.3089447021484375,-0.968994140625,1,0.62
2020-05-20 00:52:45.204 -0400,1589950363.99973,41.35199252423692,-71.8449249123274,20.04845,0,-1,3.410485233467435,4.710958236398345,-9999,16080.422020125,-0.0394134521484375,0.3575592041015625,-0.9797515869140625,1,0.62
2020-05-20 00:52:45.255 -0400,1589950364.999732,41.35198685690008,-71.84492851240989,19.64783,0,-1,3.42973270419113,4.696963977995853,-9999,16080.471909125,-0.0176849365234375,0.3280029296875,-0.9530792236328125,1,0.62
2020-05-20 00:52:45.304 -0400,1589950364.999732,41.35198685690008,-71.84492851240989,19.64783,0,-1,3.42973270419113,4.696963977995853,-9999,16080.521797125,-0.0192413330078125,0.3240509033203125,-0.94903564453125,1,0.62
2020-05-20 00:52:45.354 -0400,1589950364.999732,41.35198685690008,-71.84492851240989,19.64783,0,-1,3.42973270419113,4.696963977995853,-9999,16080.571684125,-0.0303192138671875,0.33209228515625,-0.95281982421875,1,0.62
2020-05-20 00:52:45.404 -0400,1589950364.999732,41.35198685690008,-71.84492851240989,19.64783,0,-1,3.42973270419113,4.696963977995853,-9999,16080.621573125,-0.0231170654296875,0.3142852783203125,-0.9477081298828125,1,0.62
2020-05-20 00:52:45.454 -0400,1589950364.999732,41.35198685690008,-71.84492851240989,19.64783,0,-1,3.42973270419113,4.696963977995853,-9999,16080.67146216667,-0.01873779296875,0.332427978515625,-0.9448699951171875,1,0.62
2020-05-20 00:52:45.504 -0400,1589950364.999732,41.35198685690008,-71.84492851240989,19.64783,0,-1,3.42973270419113,4.696963977995853,-9999,16080.72134916667,-0.032318115234375,0.344635009765625,-0.939910888671875,1,0.62
2020-05-20 00:52:45.554 -0400,1589950364.999732,41.35198685690008,-71.84492851240989,19.64783,0,-1,3.42973270419113,4.696963977995853,-9999,16080.77123616667,-0.025848388671875,0.32391357421875,-0.9627685546875,1,0.62
2020-05-20 00:52:45.604 -0400,1589950364.999732,41.35198685690008,-71.84492851240989,19.64783,0,-1,3.42973270419113,4.696963977995853,-9999,16080.82112116667,-0.0207977294921875,0.319122314453125,-0.953216552734375,1,0.62
2020-05-20 00:52:45.653 -0400,1589950364.999732,41.35198685690008,-71.84492851240989,19.64783,0,-1,3.42973270419113,4.696963977995853,-9999,16080.87100616667,-0.0143890380859375,0.3217315673828125,-0.9465179443359375,1,0.62
2020-05-20 00:52:45.704 -0400,1589950364.999732,41.35198685690008,-71.84492851240989,19.64783,0,-1,3.42973270419113,4.696963977995853,-9999,16080.92089416667,-0.015472412109375,0.332672119140625,-0.9530029296875,1,0.62
2020-05-20 00:52:45.753 -0400,1589950364.999732,41.35198685690008,-71.84492851240989,19.64783,0,-1,3.42973270419113,4.696963977995853,-9999,16080.97077916667,-0.01055908203125,0.3190765380859375,-0.9437713623046875,1,0.62
2020-05-20 00:52:45.803 -0400,1589950364.999732,41.35198685690008,-71.84492851240989,19.64783,0,-1,3.42973270419113,4.696963977995853,-9999,16081.02066616667,-0.0214080810546875,0.3406982421875,-0.93914794921875,1,0.62
2020-05-20 00:52:45.853 -0400,1589950364.999732,41.35198685690008,-71.84492851240989,19.64783,0,-1,3.42973270419113,4.696963977995853,-9999,16081.07055416667,-0.0131072998046875,0.3215789794921875,-0.9455718994140625,1,0.62
2020-05-20 00:52:45.903 -0400,1589950364.999732,41.35198685690008,-71.84492851240989,19.64783,0,-1,3.42973270419113,4.696963977995853,-9999,16081.12044216667,-0.01324462890625,0.3423309326171875,-0.9411163330078125,1,0.62
2020-05-20 00:52:45.953 -0400,1589950364.999732,41.35198685690008,-71.84492851240989,19.64783,0,-1,3.42973270419113,4.696963977995853,-9999,16081.17032916667,-0.010772705078125,0.3246917724609375,-0.93853759765625,1,0.62
2020-05-20 00:52:46.003 -0400,1589950364.999732,41.35198685690008,-71.84492851240989,19.64783,0,-1,3.42973270419113,4.696963977995853,-9999,16081.22021416667,-0.01031494140625,0.3462066650390625,-0.938690185546875,1,0.62
2020-05-20 00:52:46.053 -0400,1589950364.999732,41.35198685690008,-71.84492851240989,19.64783,0,-1,3.42973270419113,4.696963977995853,-9999,16081.27010216667,-0.015716552734375,0.3445892333984375,-0.9467926025390625,1,0.62
2020-05-20 00:52:46.102 -0400,1589950364.999732,41.35198685690008,-71.84492851240989,19.64783,0,-1,3.42973270419113,4.696963977995853,-9999,16081.31999316667,-0.030914306640625,0.3462066650390625,-0.9489898681640625,1,0.62
2020-05-20 00:52:46.152 -0400,1589950364.999732,41.35198685690008,-71.84492851240989,19.64783,0,-1,3.42973270419113,4.696963977995853,-9999,16081.36988416667,-0.013641357421875,0.3362274169921875,-0.9387969970703125,1,0.62
2020-05-20 00:52:46.202 -0400,1589950364.999732,41.35198685690008,-71.84492851240989,19.64783,0,-1,3.42973270419113,4.696963977995853,-9999,16081.41977416667,-0.0221710205078125,0.3447418212890625,-0.9458770751953125,1,0.62
2020-05-20 00:52:46.252 -0400,1589950365.999732,41.35198516090917,-71.84493131985691,19.94461,0,-1,3.397922017363399,4.720027859738318,-9999,16081.46966216667,-0.0156402587890625,0.33941650390625,-0.9290008544921875,1,0.62
2020-05-20 00:52:46.302 -0400,1589950365.999732,41.35198516090917,-71.84493131985691,19.94461,0,-1,3.397922017363399,4.720027859738318,-9999,16081.51955016667,-0.0171661376953125,0.3542327880859375,-0.9386138916015625,1,0.62
2020-05-20 00:52:46.352 -0400,1589950365.999732,41.35198516090917,-71.84493131985691,19.94461,0,-1,3.397922017363399,4.720027859738318,-9999,16081.56943716667,-0.01922607421875,0.3506622314453125,-0.937774658203125,1,0.62
2020-05-20 00:52:46.402 -0400,1589950365.999732,41.35198516090917,-71.84493131985691,19.94461,0,-1,3.397922017363399,4.720027859738318,-9999,16081.61932416667,-0.012969970703125,0.3464508056640625,-0.9398193359375,1,0.62
2020-05-20 00:52:46.452 -0400,1589950365.999732,41.35198516090917,-71.84493131985691,19.94461,0,-1,3.397922017363399,4.720027859738318,-9999,16081.66920875,-0.0236053466796875,0.3577117919921875,-0.9335784912109375,1,0.62
2020-05-20 00:52:46.501 -0400,1589950365.999732,41.35198516090917,-71.84493131985691,19.94461,0,-1,3.397922017363399,4.720027859738318,-9999,16081.71909275,-0.015533447265625,0.3605804443359375,-0.9313812255859375,1,0.62
2020-05-20 00:52:46.551 -0400,1589950365.999732,41.35198516090917,-71.84493131985691,19.94461,0,-1,3.397922017363399,4.720027859738318,-9999,16081.76897875,-0.0157318115234375,0.3555755615234375,-0.932708740234375,1,0.62
2020-05-20 00:52:46.601 -0400,1589950365.999732,41.35198516090917,-71.84493131985691,19.94461,0,-1,3.397922017363399,4.720027859738318,-9999,16081.81886375,-0.0198974609375,0.3618927001953125,-0.9350738525390625,1,0.62
2020-05-20 00:52:46.651 -0400,1589950365.999732,41.35198516090917,-71.84493131985691,19.94461,0,-1,3.397922017363399,4.720027859738318,-9999,16081.86874775,-0.0186309814453125,0.3672027587890625,-0.9296875,1,0.62
2020-05-20 00:52:46.701 -0400,1589950365.999732,41.35198516090917,-71.84493131985691,19.94461,0,-1,3.397922017363399,4.720027859738318,-9999,16081.91863175,-0.017486572265625,0.3662872314453125,-0.9355621337890625,1,0.62
2020-05-20 00:52:46.751 -0400,1589950365.999732,41.35198516090917,-71.84493131985691,19.94461,0,-1,3.397922017363399,4.720027859738318,-9999,16081.96851575,-0.0174102783203125,0.3658447265625,-0.9339752197265625,1,0.62
2020-05-20 00:52:46.801 -0400,1589950365.999732,41.35198516090917,-71.84493131985691,19.94461,0,-1,3.397922017363399,4.720027859738318,-9999,16082.01840175,-0.0205841064453125,0.36175537109375,-0.9340057373046875,1,0.62
2020-05-20 00:52:46.851 -0400,1589950365.999732,41.35198516090917,-71.84493131985691,19.94461,0,-1,3.397922017363399,4.720027859738318,-9999,16082.06828875,-0.0181121826171875,0.3738861083984375,-0.9383087158203125,1,0.62
2020-05-20 00:52:46.901 -0400,1589950365.999732,41.35198516090917,-71.84493131985691,19.94461,0,-1,3.397922017363399,4.720027859738318,-9999,16082.11817475,-0.0184173583984375,0.364959716796875,-0.93402099609375,1,0.62
2020-05-20 00:52:46.951 -0400,1589950365.999732,41.35198516090917,-71.84493131985691,19.94461,0,-1,3.397922017363399,4.720027859738318,-9999,16082.16806275,-0.0106658935546875,0.371307373046875,-0.9393310546875,1,0.62
2020-05-20 00:52:47.001 -0400,1589950365.999732,41.35198516090917,-71.84493131985691,19.94461,0,-1,3.397922017363399,4.720027859738318,-9999,16082.21795275,0.0259246826171875,0.3726348876953125,-0.9709320068359375,1,0.62
2020-05-20 00:52:47.050 -0400,1589950365.999732,41.35198516090917,-71.84493131985691,19.94461,0,-1,3.397922017363399,4.720027859738318,-9999,16082.26784075,-0.042724609375,0.3949737548828125,-0.9283294677734375,1,0.62
2020-05-20 00:52:47.100 -0400,1589950365.999732,41.35198516090917,-71.84493131985691,19.94461,0,-1,3.397922017363399,4.720027859738318,-9999,16082.31773075,-0.019439697265625,0.3592071533203125,-0.930999755859375,1,0.62
2020-05-20 00:52:47.150 -0400,1589950365.999732,41.35198516090917,-71.84493131985691,19.94461,0,-1,3.397922017363399,4.720027859738318,-9999,16082.36762175,-0.0021209716796875,0.3766937255859375,-0.9192657470703125,1,0.62
2020-05-20 00:52:47.200 -0400,1589950365.999732,41.35198516090917,-71.84493131985691,19.94461,0,-1,3.397922017363399,4.720027859738318,-9999,16082.41751175,-0.01629638671875,0.3744354248046875,-0.927398681640625,1,0.62
2020-05-20 00:52:47.250 -0400,1589950365.999732,41.35198516090917,-71.84493131985691,19.94461,0,-1,3.397922017363399,4.720027859738318,-9999,16082.46740275,-0.009735107421875,0.370086669921875,-0.9284820556640625,1,0.62
2020-05-20 00:52:47.300 -0400,1589950366.999735,41.3519907104245,-71.84493391544513,19.92662,0,-1,3.339566841581783,4.761494549340186,-9999,16082.51729575,-0.0089111328125,0.3766021728515625,-0.924957275390625,1,0.62
2020-05-20 00:52:47.350 -0400,1589950366.999735,41.3519907104245,-71.84493391544513,19.92662,0,-1,3.339566841581783,4.761494549340186,-9999,16082.56718675,-0.013824462890625,0.3715362548828125,-0.932830810546875,1,0.62
2020-05-20 00:52:47.400 -0400,1589950366.999735,41.3519907104245,-71.84493391544513,19.92662,0,-1,3.339566841581783,4.761494549340186,-9999,16082.61707675,-0.0040283203125,0.3767242431640625,-0.9361724853515625,1,0.62
2020-05-20 00:52:47.449 -0400,1589950366.999735,41.3519907104245,-71.84493391544513,19.92662,0,-1,3.339566841581783,4.761494549340186,-9999,16082.666964625,-0.00384521484375,0.405364990234375,-0.9423675537109375,1,0.62
2020-05-20 00:52:47.499 -0400,1589950366.999735,41.3519907104245,-71.84493391544513,19.92662,0,-1,3.339566841581783,4.761494549340186,-9999,16082.716854625,-0.00482177734375,0.3602447509765625,-0.8822784423828125,1,0.62
2020-05-20 00:52:47.549 -0400,1589950366.999735,41.3519907104245,-71.84493391544513,19.92662,0,-1,3.339566841581783,4.761494549340186,-9999,16082.766744625,0.0086517333984375,0.34814453125,-0.9456024169921875,1,0.62
2020-05-20 00:52:47.599 -0400,1589950366.999735,41.3519907104245,-71.84493391544513,19.92662,0,-1,3.339566841581783,4.761494549340186,-9999,16082.816634625,0.0060577392578125,0.355194091796875,-0.9113616943359375,1,0.62
2020-05-20 00:52:47.649 -0400,1589950366.999735,41.3519907104245,-71.84493391544513,19.92662,0,-1,3.339566841581783,4.761494549340186,-9999,16082.866523625,0.0185699462890625,0.3186492919921875,-0.92913818359375,1,0.62
2020-05-20 00:52:47.699 -0400,1589950366.999735,41.3519907104245,-71.84493391544513,19.92662,0,-1,3.339566841581783,4.761494549340186,-9999,16082.916413625,0.0112457275390625,0.3047637939453125,-0.919891357421875,1,0.62
2020-05-20 00:52:47.749 -0400,1589950366.999735,41.3519907104245,-71.84493391544513,19.92662,0,-1,3.339566841581783,4.761494549340186,-9999,16082.966300625,0.0365447998046875,0.2903289794921875,-0.9217987060546875,1,0.62
2020-05-20 00:52:47.799 -0400,1589950366.999735,41.3519907104245,-71.84493391544513,19.92662,0,-1,3.339566841581783,4.761494549340186,-9999,16083.016190625,0.0319976806640625,0.264404296875,-0.986114501953125,1,0.62
2020-05-20 00:52:47.849 -0400,1589950366.999735,41.3519907104245,-71.84493391544513,19.92662,0,-1,3.339566841581783,4.761494549340186,-9999,16083.066078625,0.00689697265625,0.2429046630859375,-1.004302978515625,1,0.62
2020-05-20 00:52:47.898 -0400,1589950366.999735,41.3519907104245,-71.84493391544513,19.92662,0,-1,3.339566841581783,4.761494549340186,-9999,16083.115964625,-0.013397216796875,0.2356109619140625,-1.028244018554688,1,0.62
2020-05-20 00:52:47.948 -0400,1589950366.999735,41.3519907104245,-71.84493391544513,19.92662,0,-1,3.339566841581783,4.761494549340186,-9999,16083.165850625,0.0591583251953125,0.2536773681640625,-0.978851318359375,1,0.62
2020-05-20 00:52:47.998 -0400,1589950366.999735,41.3519907104245,-71.84493391544513,19.92662,0,-1,3.339566841581783,4.761494549340186,-9999,16083.215738625,0.0637054443359375,0.220733642578125,-0.96295166015625,1,0.62
2020-05-20 00:52:48.048 -0400,1589950366.999735,41.3519907104245,-71.84493391544513,19.92662,0,-1,3.339566841581783,4.761494549340186,-9999,16083.265624625,0.027557373046875,0.2478179931640625,-0.977691650390625,1,0.62
2020-05-20 00:52:48.098 -0400,1589950366.999735,41.3519907104245,-71.84493391544513,19.92662,0,-1,3.339566841581783,4.761494549340186,-9999,16083.315510625,0.0479583740234375,0.2434844970703125,-0.9578094482421875,1,0.62
2020-05-20 00:52:48.148 -0400,1589950366.999735,41.3519907104245,-71.84493391544513,19.92662,0,-1,3.339566841581783,4.761494549340186,-9999,16083.365397625,0.0465850830078125,0.23602294921875,-0.9622650146484375,1,0.62
2020-05-20 00:52:48.198 -0400,1589950366.999735,41.3519907104245,-71.84493391544513,19.92662,0,-1,3.339566841581783,4.761494549340186,-9999,16083.415286625,0.03851318359375,0.231597900390625,-0.9632110595703125,1,0.62
2020-05-20 00:52:48.248 -0400,1589950366.999735,41.3519907104245,-71.84493391544513,19.92662,0,-1,3.339566841581783,4.761494549340186,-9999,16083.465175625,0.053497314453125,0.253570556640625,-0.9784698486328125,1,0.62
2020-05-20 00:52:48.298 -0400,1589950367.999735,41.35199081524888,-71.84493471817927,19.9542,0,-1,3.249017861854453,4.823735063842079,-9999,16083.515065625,0.0438079833984375,0.25762939453125,-0.961669921875,1,0.62
2020-05-20 00:52:48.347 -0400,1589950367.999735,41.35199081524888,-71.84493471817927,19.9542,0,-1,3.249017861854453,4.823735063842079,-9999,16083.564952625,0.0439910888671875,0.2455291748046875,-0.9695892333984375,1,0.62
2020-05-20 00:52:48.397 -0400,1589950367.999735,41.35199081524888,-71.84493471817927,19.9542,0,-1,3.249017861854453,4.823735063842079,-9999,16083.614838625,0.0482177734375,0.2494659423828125,-0.9578857421875,1,0.62
2020-05-20 00:52:48.448 -0400,1589950367.999735,41.35199081524888,-71.84493471817927,19.9542,0,-1,3.249017861854453,4.823735063842079,-9999,16083.6647245,0.0460052490234375,0.243438720703125,-0.973052978515625,1,0.62
2020-05-20 00:52:48.497 -0400,1589950367.999735,41.35199081524888,-71.84493471817927,19.9542,0,-1,3.249017861854453,4.823735063842079,-9999,16083.7146095,0.046539306640625,0.243377685546875,-0.9630889892578125,1,0.62
2020-05-20 00:52:48.547 -0400,1589950367.999735,41.35199081524888,-71.84493471817927,19.9542,0,-1,3.249017861854453,4.823735063842079,-9999,16083.7644965,0.047607421875,0.2461090087890625,-0.9669647216796875,1,0.62
2020-05-20 00:52:48.597 -0400,1589950367.999735,41.35199081524888,-71.84493471817927,19.9542,0,-1,3.249017861854453,4.823735063842079,-9999,16083.8143845,0.0442962646484375,0.2486724853515625,-0.96624755859375,1,0.62
2020-05-20 00:52:48.647 -0400,1589950367.999735,41.35199081524888,-71.84493471817927,19.9542,0,-1,3.249017861854453,4.823735063842079,-9999,16083.8642715,0.0462493896484375,0.2567596435546875,-0.970458984375,1,0.62
2020-05-20 00:52:48.697 -0400,1589950367.999735,41.35199081524888,-71.84493471817927,19.9542,0,-1,3.249017861854453,4.823735063842079,-9999,16083.9141605,0.042877197265625,0.26373291015625,-0.9659423828125,1,0.62
2020-05-20 00:52:48.746 -0400,1589950367.999735,41.35199081524888,-71.84493471817927,19.9542,0,-1,3.249017861854453,4.823735063842079,-9999,16083.9640485,0.0450286865234375,0.262939453125,-0.965179443359375,1,0.62
2020-05-20 00:52:48.796 -0400,1589950367.999735,41.35199081524888,-71.84493471817927,19.9542,0,-1,3.249017861854453,4.823735063842079,-9999,16084.0139365,0.046478271484375,0.260040283203125,-0.9628448486328125,1,0.62
2020-05-20 00:52:48.846 -0400,1589950367.999735,41.35199081524888,-71.84493471817927,19.9542,0,-1,3.249017861854453,4.823735063842079,-9999,16084.0638235,0.04486083984375,0.2679595947265625,-0.96728515625,1,0.62
2020-05-20 00:52:48.896 -0400,1589950367.999735,41.35199081524888,-71.84493471817927,19.9542,0,-1,3.249017861854453,4.823735063842079,-9999,16084.1137115,0.043792724609375,0.2592926025390625,-0.9602203369140625,1,0.62
2020-05-20 00:52:48.946 -0400,1589950367.999735,41.35199081524888,-71.84493471817927,19.9542,0,-1,3.249017861854453,4.823735063842079,-9999,16084.1636025,0.0438385009765625,0.272186279296875,-0.9636383056640625,1,0.62
2020-05-20 00:52:48.996 -0400,1589950367.999735,41.35199081524888,-71.84493471817927,19.9542,0,-1,3.249017861854453,4.823735063842079,-9999,16084.2134945,0.0515899658203125,0.2681121826171875,-0.9584503173828125,1,0.62
2020-05-20 00:52:49.046 -0400,1589950367.999735,41.35199081524888,-71.84493471817927,19.9542,0,-1,3.249017861854453,4.823735063842079,-9999,16084.2633855,0.047393798828125,0.2660064697265625,-0.95654296875,1,0.62
2020-05-20 00:52:49.096 -0400,1589950367.999735,41.35199081524888,-71.84493471817927,19.9542,0,-1,3.249017861854453,4.823735063842079,-9999,16084.3132745,0.0457305908203125,0.2664337158203125,-0.9613494873046875,1,0.62
2020-05-20 00:52:49.146 -0400,1589950367.999735,41.35199081524888,-71.84493471817927,19.9542,0,-1,3.249017861854453,4.823735063842079,-9999,16084.3631605,0.0425872802734375,0.2608642578125,-0.9609527587890625,1,0.62
2020-05-20 00:52:49.196 -0400,1589950367.999735,41.35199081524888,-71.84493471817927,19.9542,0,-1,3.249017861854453,4.823735063842079,-9999,16084.4130495,0.0470428466796875,0.266204833984375,-0.9611663818359375,1,0.62
2020-05-20 00:52:49.245 -0400,1589950367.999735,41.35199081524888,-71.84493471817927,19.9542,0,-1,3.249017861854453,4.823735063842079,-9999,16084.4629405,0.043731689453125,0.2694854736328125,-0.9586944580078125,1,0.62
2020-05-20 00:52:49.295 -0400,1589950367.999735,41.35199081524888,-71.84493471817927,19.9542,0,-1,3.249017861854453,4.823735063842079,-9999,16084.5128335,0.0488739013671875,0.273651123046875,-0.96099853515625,1,0.62
2020-05-20 00:52:49.345 -0400,1589950368.999735,41.35199081524888,-71.84493471817927,19.9542,0,-1,3.17714760118763,4.871372512245037,-9999,16084.5627255,0.04486083984375,0.2733306884765625,-0.9600982666015625,1,0.62
2020-05-20 00:52:49.395 -0400,1589950368.999735,41.35199081524888,-71.84493471817927,19.9542,0,-1,3.17714760118763,4.871372512245037,-9999,16084.6126165,0.044525146484375,0.2744140625,-0.9557647705078125,1,0.62
2020-05-20 00:52:49.445 -0400,1589950368.999735,41.35199081524888,-71.84493471817927,19.9542,0,-1,3.17714760118763,4.871372512245037,-9999,16084.662508875,0.048004150390625,0.2701568603515625,-0.9563140869140625,1,0.62
2020-05-20 00:52:49.495 -0400,1589950368.999735,41.35199081524888,-71.84493471817927,19.9542,0,-1,3.17714760118763,4.871372512245037,-9999,16084.712399875,0.0484161376953125,0.2758941650390625,-0.9649505615234375,1,0.62
2020-05-20 00:52:49.545 -0400,1589950368.999735,41.35199081524888,-71.84493471817927,19.9542,0,-1,3.17714760118763,4.871372512245037,-9999,16084.762290875,0.0467681884765625,0.280029296875,-0.96160888671875,1,0.62
2020-05-20 00:52:49.595 -0400,1589950368.999735,41.35199081524888,-71.84493471817927,19.9542,0,-1,3.17714760118763,4.871372512245037,-9999,16084.812181875,0.0464324951171875,0.2731475830078125,-0.95733642578125,1,0.62
2020-05-20 00:52:49.645 -0400,1589950368.999735,41.35199081524888,-71.84493471817927,19.9542,0,-1,3.17714760118763,4.871372512245037,-9999,16084.862073875,0.04693603515625,0.2808837890625,-0.9619598388671875,1,0.62
2020-05-20 00:52:49.694 -0400,1589950368.999735,41.35199081524888,-71.84493471817927,19.9542,0,-1,3.17714760118763,4.871372512245037,-9999,16084.911963875,0.0459442138671875,0.2814483642578125,-0.9588775634765625,1,0.62
2020-05-20 00:52:49.744 -0400,1589950368.999735,41.35199081524888,-71.84493471817927,19.9542,0,-1,3.17714760118763,4.871372512245037,-9999,16084.961851875,0.046112060546875,0.2783050537109375,-0.96051025390625,1,0.62
2020-05-20 00:52:49.794 -0400,1589950368.999735,41.35199081524888,-71.84493471817927,19.9542,0,-1,3.17714760118763,4.871372512245037,-9999,16085.011741875,0.0538177490234375,0.29193115234375,-0.95751953125,1,0.62
2020-05-20 00:52:49.844 -0400,1589950368.999735,41.35199081524888,-71.84493471817927,19.9542,0,-1,3.17714760118763,4.871372512245037,-9999,16085.061631875,0.0390167236328125,0.2836761474609375,-0.9612884521484375,1,0.62
2020-05-20 00:52:49.894 -0400,1589950368.999735,41.35199081524888,-71.84493471817927,19.9542,0,-1,3.17714760118763,4.871372512245037,-9999,16085.111519875,0.0496673583984375,0.2775115966796875,-0.9607696533203125,1,0.62
2020-05-20 00:52:49.944 -0400,1589950368.999735,41.35199081524888,-71.84493471817927,19.9542,0,-1,3.17714760118763,4.871372512245037,-9999,16085.161407875,0.046844482421875,0.2847137451171875,-0.954833984375,1,0.62
2020-05-20 00:52:49.994 -0400,1589950368.999735,41.35199081524888,-71.84493471817927,19.9542,0,-1,3.17714760118763,4.871372512245037,-9999,16085.211296875,0.0496368408203125,0.2857666015625,-0.963287353515625,1,0.62
2020-05-20 00:52:50.044 -0400,1589950368.999735,41.35199081524888,-71.84493471817927,19.9542,0,-1,3.17714760118763,4.871372512245037,-9999,16085.261188875,0.048248291015625,0.279571533203125,-0.9616546630859375,1,0.62
2020-05-20 00:52:50.094 -0400,1589950368.999735,41.35199081524888,-71.84493471817927,19.9542,0,-1,3.17714760118763,4.871372512245037,-9999,16085.311079875,0.0467681884765625,0.2850189208984375,-0.9635772705078125,1,0.62
2020-05-20 00:52:50.143 -0400,1589950368.999735,41.35199081524888,-71.84493471817927,19.9542,0,-1,3.17714760118763,4.871372512245037,-9999,16085.360969875,0.048858642578125,0.283172607421875,-0.9600067138671875,1,0.62
2020-05-20 00:52:50.193 -0400,1589950368.999735,41.35199081524888,-71.84493471817927,19.9542,0,-1,3.17714760118763,4.871372512245037,-9999,16085.410860875,0.0473480224609375,0.290985107421875,-0.9606170654296875,1,0.62
2020-05-20 00:52:50.243 -0400,1589950368.999735,41.35199081524888,-71.84493471817927,19.9542,0,-1,3.17714760118763,4.871372512245037,-9999,16085.460754875,0.0497589111328125,0.28564453125,-0.95477294921875,1,0.62
2020-05-20 00:52:50.294 -0400,1589950369.999742,41.35199081524888,-71.84493471817927,19.9542,0,-1,3.076653365510192,4.935457537177647,-9999,16085.510647875,0.04595947265625,0.2862701416015625,-0.961029052734375,1,0.62
2020-05-20 00:52:50.343 -0400,1589950369.999742,41.35199081524888,-71.84493471817927,19.9542,0,-1,3.076653365510192,4.935457537177647,-9999,16085.560536875,0.04888916015625,0.283172607421875,-0.9640350341796875,1,0.62
2020-05-20 00:52:50.393 -0400,1589950369.999742,41.35199081524888,-71.84493471817927,19.9542,0,-1,3.076653365510192,4.935457537177647,-9999,16085.610425875,0.0501861572265625,0.2833099365234375,-0.9573974609375,1,0.62
2020-05-20 00:52:50.443 -0400,1589950369.999742,41.35199081524888,-71.84493471817927,19.9542,0,-1,3.076653365510192,4.935457537177647,-9999,16085.66031529167,0.04888916015625,0.2880401611328125,-0.9615325927734375,1,0.62
2020-05-20 00:52:50.493 -0400,1589950369.999742,41.35199081524888,-71.84493471817927,19.9542,0,-1,3.076653365510192,4.935457537177647,-9999,16085.71020429167,0.0535430908203125,0.2780914306640625,-0.958648681640625,1,0.62
2020-05-20 00:52:50.542 -0400,1589950369.999742,41.35199081524888,-71.84493471817927,19.9542,0,-1,3.076653365510192,4.935457537177647,-9999,16085.76009329167,0.0491485595703125,0.2803802490234375,-0.9719085693359375,1,0.62
2020-05-20 00:52:50.592 -0400,1589950369.999742,41.35199081524888,-71.84493471817927,19.9542,0,-1,3.076653365510192,4.935457537177647,-9999,16085.80998229167,0.06097412109375,0.28277587890625,-0.9606475830078125,1,0.62
2020-05-20 00:52:50.642 -0400,1589950369.999742,41.35199081524888,-71.84493471817927,19.9542,0,-1,3.076653365510192,4.935457537177647,-9999,16085.85987029167,0.048736572265625,0.2873687744140625,-0.973175048828125,1,0.62
2020-05-20 00:52:50.692 -0400,1589950369.999742,41.35199081524888,-71.84493471817927,19.9542,0,-1,3.076653365510192,4.935457537177647,-9999,16085.90975829167,0.06494140625,0.2758026123046875,-0.96142578125,1,0.62
2020-05-20 00:52:50.742 -0400,1589950369.999742,41.35199081524888,-71.84493471817927,19.9542,0,-1,3.076653365510192,4.935457537177647,-9999,16085.95964829167,0.036529541015625,0.2816009521484375,-0.95281982421875,1,0.62
2020-05-20 00:52:50.792 -0400,1589950369.999742,41.35199081524888,-71.84493471817927,19.9542,0,-1,3.076653365510192,4.935457537177647,-9999,16086.00953829167,0.0462799072265625,0.31488037109375,-0.9827423095703125,1,0.62
2020-05-20 00:52:50.842 -0400,1589950369.999742,41.35199081524888,-71.84493471817927,19.9542,0,-1,3.076653365510192,4.935457537177647,-9999,16086.05942829167,0.0610809326171875,0.2883148193359375,-0.98944091796875,1,0.62
2020-05-20 00:52:50.892 -0400,1589950369.999742,41.35199081524888,-71.84493471817927,19.9542,0,-1,3.076653365510192,4.935457537177647,-9999,16086.10931829167,0.0400390625,0.3414764404296875,-0.98211669921875,1,0.62
2020-05-20 00:52:50.942 -0400,1589950369.999742,41.35199081524888,-71.84493471817927,19.9542,0,-1,3.076653365510192,4.935457537177647,-9999,16086.15920729167,0.0128631591796875,0.2989501953125,-0.977081298828125,1,0.62
2020-05-20 00:52:50.994 -0400,1589950369.999742,41.35199081524888,-71.84493471817927,19.9542,0,-1,3.076653365510192,4.935457537177647,-9999,16086.20909929167,0.02288818359375,0.2926788330078125,-0.961456298828125,1,0.62
2020-05-20 00:52:51.041 -0400,1589950369.999742,41.35199081524888,-71.84493471817927,19.9542,0,-1,3.076653365510192,4.935457537177647,-9999,16086.25899029167,-0.03143310546875,0.3122711181640625,-0.9430084228515625,1,0.62
2020-05-20 00:52:51.091 -0400,1589950369.999742,41.35199081524888,-71.84493471817927,19.9542,0,-1,3.076653365510192,4.935457537177647,-9999,16086.30888229167,-0.0468902587890625,0.272308349609375,-0.92626953125,1,0.62
2020-05-20 00:52:51.141 -0400,1589950369.999742,41.35199081524888,-71.84493471817927,19.9542,0,-1,3.076653365510192,4.935457537177647,-9999,16086.35877129167,-0.0522308349609375,0.348236083984375,-0.954742431640625,1,0.62
2020-05-20 00:52:51.191 -0400,1589950369.999742,41.35199081524888,-71.84493471817927,19.9542,0,-1,3.076653365510192,4.935457537177647,-9999,16086.40866229167,-0.0331268310546875,0.358367919921875,-0.9444122314453125,1,0.62
2020-05-20 00:52:51.241 -0400,1589950369.999742,41.35199081524888,-71.84493471817927,19.9542,0,-1,3.076653365510192,4.935457537177647,-9999,16086.45854929167,-0.0136566162109375,0.2930908203125,-0.89654541015625,1,0.62
2020-05-20 00:52:51.291 -0400,1589950370.999738,41.35199081524888,-71.84493471817927,19.9542,0,-1,2.979712262697695,4.99458225123161,-9999,16086.50843629167,-0.0114898681640625,0.3180389404296875,-0.876983642578125,1,0.62
2020-05-20 00:52:51.341 -0400,1589950370.999738,41.35199081524888,-71.84493471817927,19.9542,0,-1,2.979712262697695,4.99458225123161,-9999,16086.55832429167,0.0582427978515625,0.3215179443359375,-0.9184417724609375,1,0.62
2020-05-20 00:52:51.391 -0400,1589950370.999738,41.35199081524888,-71.84493471817927,19.9542,0,-1,2.979712262697695,4.99458225123161,-9999,16086.60821129167,0.0684051513671875,0.3051910400390625,-0.945831298828125,1,0.62
2020-05-20 00:52:51.440 -0400,1589950370.999738,41.35199081524888,-71.84493471817927,19.9542,0,-1,2.979712262697695,4.99458225123161,-9999,16086.658101125,0.0308990478515625,0.2974700927734375,-0.97894287109375,1,0.62
2020-05-20 00:52:51.491 -0400,1589950370.999738,41.35199081524888,-71.84493471817927,19.9542,0,-1,2.979712262697695,4.99458225123161,-9999,16086.707991125,-0.0275726318359375,0.2918548583984375,-0.917938232421875,1,0.62
2020-05-20 00:52:51.540 -0400,1589950370.999738,41.35199081524888,-71.84493471817927,19.9542,0,-1,2.979712262697695,4.99458225123161,-9999,16086.757882125,-0.059417724609375,0.3007659912109375,-0.9888458251953125,1,0.62
2020-05-20 00:52:51.590 -0400,1589950370.999738,41.35199081524888,-71.84493471817927,19.9542,0,-1,2.979712262697695,4.99458225123161,-9999,16086.807770125,-0.028839111328125,0.31024169921875,-1.032150268554688,1,0.62
2020-05-20 00:52:51.640 -0400,1589950370.999738,41.35199081524888,-71.84493471817927,19.9542,0,-1,2.979712262697695,4.99458225123161,-9999,16086.857662125,-0.0107421875,0.208740234375,-0.870849609375,1,0.62
2020-05-20 00:52:51.690 -0400,1589950370.999738,41.35199081524888,-71.84493471817927,19.9542,0,-1,2.979712262697695,4.99458225123161,-9999,16086.907553125,0.059478759765625,0.24920654296875,-0.8039703369140625,1,0.62
2020-05-20 00:52:51.740 -0400,1589950370.999738,41.35199081524888,-71.84493471817927,19.9542,0,-1,2.979712262697695,4.99458225123161,-9999,16086.957444125,0.0367279052734375,0.3111572265625,-0.994384765625,1,0.62
2020-05-20 00:52:51.790 -0400,1589950370.999738,41.35199081524888,-71.84493471817927,19.9542,0,-1,2.979712262697695,4.99458225123161,-9999,16087.007333125,-0.0129241943359375,0.360870361328125,-0.95318603515625,1,0.62
2020-05-20 00:52:51.840 -0400,1589950370.999738,41.35199081524888,-71.84493471817927,19.9542,0,-1,2.979712262697695,4.99458225123161,-9999,16087.057224125,-0.0010833740234375,0.303955078125,-0.97637939453125,1,0.62
2020-05-20 00:52:51.890 -0400,1589950370.999738,41.35199081524888,-71.84493471817927,19.9542,0,-1,2.979712262697695,4.99458225123161,-9999,16087.107117125,-0.0759429931640625,0.3269195556640625,-0.9870452880859375,1,0.62
2020-05-20 00:52:51.939 -0400,1589950370.999738,41.35199081524888,-71.84493471817927,19.9542,0,-1,2.979712262697695,4.99458225123161,-9999,16087.157008125,-0.0328521728515625,0.3441162109375,-1.010910034179688,1,0.62
2020-05-20 00:52:51.996 -0400,1589950370.999738,41.35199081524888,-71.84493471817927,19.9542,0,-1,2.979712262697695,4.99458225123161,-9999,16087.206898125,0.00421142578125,0.29315185546875,-0.9128875732421875,1,0.62
2020-05-20 00:52:52.039 -0400,1589950370.999738,41.35199081524888,-71.84493471817927,19.9542,0,-1,2.979712262697695,4.99458225123161,-9999,16087.256788125,0.0435638427734375,0.3423614501953125,-0.98822021484375,1,0.62
2020-05-20 00:52:52.089 -0400,1589950370.999738,41.35199081524888,-71.84493471817927,19.9542,0,-1,2.979712262697695,4.99458225123161,-9999,16087.306676125,-0.024932861328125,0.2511749267578125,-0.9478759765625,1,0.62
2020-05-20 00:52:52.139 -0400,1589950370.999738,41.35199081524888,-71.84493471817927,19.9542,0,-1,2.979712262697695,4.99458225123161,-9999,16087.356563125,0.0051727294921875,0.3825531005859375,-0.95550537109375,1,0.62
2020-05-20 00:52:52.189 -0400,1589950370.999738,41.35199081524888,-71.84493471817927,19.9542,0,-1,2.979712262697695,4.99458225123161,-9999,16087.406449125,-0.0089569091796875,0.3092193603515625,-0.9771881103515625,1,0.62
2020-05-20 00:52:52.239 -0400,1589950370.999738,41.35199081524888,-71.84493471817927,19.9542,0,-1,2.979712262697695,4.99458225123161,-9999,16087.456337125,-0.0048828125,0.305633544921875,-0.9393310546875,1,0.62
2020-05-20 00:52:52.289 -0400,1589950370.999738,41.35199081524888,-71.84493471817927,19.9542,0,-1,2.979712262697695,4.99458225123161,-9999,16087.506228125,0.01580810546875,0.3473968505859375,-0.9472503662109375,1,0.62
2020-05-20 00:52:52.339 -0400,1589950371.999738,41.35199081524888,-71.84493471817927,19.9542,0,-1,3.011302813830816,4.97559970216691,-9999,16087.556118125,0.0018157958984375,0.3574981689453125,-0.9453277587890625,1,0.62
2020-05-20 00:52:52.389 -0400,1589950371.999738,41.35199081524888,-71.84493471817927,19.9542,0,-1,3.011302813830816,4.97559970216691,-9999,16087.606009125,0.0028228759765625,0.33544921875,-0.9280548095703125,1,0.62
2020-05-20 00:52:52.438 -0400,1589950371.999738,41.35199081524888,-71.84493471817927,19.9542,0,-1,3.011302813830816,4.97559970216691,-9999,16087.65589875,0.0184478759765625,0.341644287109375,-0.942474365234375,1,0.62
2020-05-20 00:52:52.488 -0400,1589950371.999738,41.35199081524888,-71.84493471817927,19.9542,0,-1,3.011302813830816,4.97559970216691,-9999,16087.70578775,0.0403900146484375,0.3238677978515625,-0.9391326904296875,1,0.62
2020-05-20 00:52:52.538 -0400,1589950371.999738,41.35199081524888,-71.84493471817927,19.9542,0,-1,3.011302813830816,4.97559970216691,-9999,16087.75567675,0.0076141357421875,0.326446533203125,-0.952911376953125,1,0.62
2020-05-20 00:52:52.588 -0400,1589950371.999738,41.35199081524888,-71.84493471817927,19.9542,0,-1,3.011302813830816,4.97559970216691,-9999,16087.80556675,-0.0026702880859375,0.35498046875,-0.9841156005859375,1,0.62
2020-05-20 00:52:52.638 -0400,1589950371.999738,41.35199081524888,-71.84493471817927,19.9542,0,-1,3.011302813830816,4.97559970216691,-9999,16087.85545575,0.0347137451171875,0.316558837890625,-0.9417877197265625,1,0.62
2020-05-20 00:52:52.688 -0400,1589950371.999738,41.35199081524888,-71.84493471817927,19.9542,0,-1,3.011302813830816,4.97559970216691,-9999,16087.90534275,0.02508544921875,0.3108673095703125,-0.945770263671875,1,0.62
2020-05-20 00:52:52.738 -0400,1589950371.999738,41.35199081524888,-71.84493471817927,19.9542,0,-1,3.011302813830816,4.97559970216691,-9999,16087.95522975,-0.003387451171875,0.3275909423828125,-0.9365692138671875,1,0.62
2020-05-20 00:52:52.788 -0400,1589950371.999738,41.35199081524888,-71.84493471817927,19.9542,0,-1,3.011302813830816,4.97559970216691,-9999,16088.00511875,0.02264404296875,0.3182220458984375,-0.955474853515625,1,0.62
2020-05-20 00:52:52.837 -0400,1589950371.999738,41.35199081524888,-71.84493471817927,19.9542,0,-1,3.011302813830816,4.97559970216691,-9999,16088.05501075,-0.0020599365234375,0.3148956298828125,-0.9469757080078125,1,0.62
2020-05-20 00:52:52.888 -0400,1589950371.999738,41.35199081524888,-71.84493471817927,19.9542,0,-1,3.011302813830816,4.97559970216691,-9999,16088.10490275,0.01141357421875,0.324493408203125,-1.022506713867188,1,0.62
2020-05-20 00:52:52.937 -0400,1589950371.999738,41.35199081524888,-71.84493471817927,19.9542,0,-1,3.011302813830816,4.97559970216691,-9999,16088.15479675,-0.0111083984375,0.276214599609375,-0.984375,1,0.62
2020-05-20 00:52:52.987 -0400,1589950371.999738,41.35199081524888,-71.84493471817927,19.9542,0,-1,3.011302813830816,4.97559970216691,-9999,16088.20468775,0.0421295166015625,0.2551727294921875,-0.8758087158203125,1,0.62
2020-05-20 00:52:53.037 -0400,1589950371.999738,41.35199081524888,-71.84493471817927,19.9542,0,-1,3.011302813830816,4.97559970216691,-9999,16088.25457875,0.0467529296875,0.2840576171875,-0.88653564453125,1,0.62
2020-05-20 00:52:53.087 -0400,1589950371.999738,41.35199081524888,-71.84493471817927,19.9542,0,-1,3.011302813830816,4.97559970216691,-9999,16088.30446875,0.0458221435546875,0.2969512939453125,-0.9055633544921875,1,0.62
2020-05-20 00:52:53.137 -0400,1589950371.999738,41.35199081524888,-71.84493471817927,19.9542,0,-1,3.011302813830816,4.97559970216691,-9999,16088.35435875,-0.0173797607421875,0.3848724365234375,-1.01983642578125,1,0.62
2020-05-20 00:52:53.187 -0400,1589950371.999738,41.35199081524888,-71.84493471817927,19.9542,0,-1,3.011302813830816,4.97559970216691,-9999,16088.40424775,-0.0146942138671875,0.31890869140625,-0.992584228515625,1,0.62
2020-05-20 00:52:53.237 -0400,1589950371.999738,41.35199081524888,-71.84493471817927,19.9542,0,-1,3.011302813830816,4.97559970216691,-9999,16088.45413775,0.0057220458984375,0.2844696044921875,-0.944122314453125,1,0.62
2020-05-20 00:52:53.295 -0400,1589950371.999738,41.35199081524888,-71.84493471817927,19.9542,0,-1,3.011302813830816,4.97559970216691,-9999,16088.50402875,0.0375213623046875,0.313079833984375,-0.9490509033203125,1,0.62
2020-05-20 00:52:53.336 -0400,1589950372.999742,41.35199860015712,-71.84494436556673,18.80863,0,-1,2.844400263830729,5.072861536835844,-9999,16088.55391875,0.0550689697265625,0.3077392578125,-0.97216796875,1,0.62
2020-05-20 00:52:53.386 -0400,1589950372.999742,41.35199860015712,-71.84494436556673,18.80863,0,-1,2.844400263830729,5.072861536835844,-9999,16088.60381175,-0.02520751953125,0.2729034423828125,-0.9020233154296875,1,0.62
2020-05-20 00:52:53.436 -0400,1589950372.999742,41.35199860015712,-71.84494436556673,18.80863,0,-1,2.844400263830729,5.072861536835844,-9999,16088.65370275,0.0367584228515625,0.3931121826171875,-0.950836181640625,1,0.62
2020-05-20 00:52:53.486 -0400,1589950372.999742,41.35199860015712,-71.84494436556673,18.80863,0,-1,2.844400263830729,5.072861536835844,-9999,16088.70359375,-0.00543212890625,0.2937164306640625,-0.8570709228515625,1,0.62
2020-05-20 00:52:53.536 -0400,1589950372.999742,41.35199860015712,-71.84494436556673,18.80863,0,-1,2.844400263830729,5.072861536835844,-9999,16088.75348675,0.07196044921875,0.3712615966796875,-1.000534057617188,1,0.62
2020-05-20 00:52:53.586 -0400,1589950372.999742,41.35199860015712,-71.84494436556673,18.80863,0,-1,2.844400263830729,5.072861536835844,-9999,16088.80337875,-0.013275146484375,0.3995361328125,-0.9758453369140625,1,0.62
2020-05-20 00:52:53.636 -0400,1589950372.999742,41.35199860015712,-71.84494436556673,18.80863,0,-1,2.844400263830729,5.072861536835844,-9999,16088.85327075,0.00079345703125,0.3768310546875,-0.9634552001953125,1,0.62
2020-05-20 00:52:53.686 -0400,1589950372.999742,41.35199860015712,-71.84494436556673,18.80863,0,-1,2.844400263830729,5.072861536835844,-9999,16088.90316175,0.06988525390625,0.424346923828125,-0.9026947021484375,1,0.62
2020-05-20 00:52:53.735 -0400,1589950372.999742,41.35199860015712,-71.84494436556673,18.80863,0,-1,2.844400263830729,5.072861536835844,-9999,16088.95305075,0.0325469970703125,0.3519439697265625,-0.8112335205078125,1,0.62
2020-05-20 00:52:53.785 -0400,1589950372.999742,41.35199860015712,-71.84494436556673,18.80863,0,-1,2.844400263830729,5.072861536835844,-9999,16089.00294075,0.085693359375,0.3334808349609375,-1.025848388671875,1,0.62
2020-05-20 00:52:53.835 -0400,1589950372.999742,41.35199860015712,-71.84494436556673,18.80863,0,-1,2.844400263830729,5.072861536835844,-9999,16089.05282975,-0.037506103515625,0.41802978515625,-0.8585968017578125,1,0.62
2020-05-20 00:52:53.885 -0400,1589950372.999742,41.35199860015712,-71.84494436556673,18.80863,0,-1,2.844400263830729,5.072861536835844,-9999,16089.10271875,0.0446014404296875,0.3797607421875,-0.976806640625,1,0.62
2020-05-20 00:52:53.935 -0400,1589950372.999742,41.35199860015712,-71.84494436556673,18.80863,0,-1,2.844400263830729,5.072861536835844,-9999,16089.15260975,0.03857421875,0.30694580078125,-0.9051666259765625,1,0.62
2020-05-20 00:52:53.986 -0400,1589950372.999742,41.35199860015712,-71.84494436556673,18.80863,0,-1,2.844400263830729,5.072861536835844,-9999,16089.20250175,0.0492706298828125,0.459014892578125,-0.9546661376953125,1,0.62
2020-05-20 00:52:54.035 -0400,1589950372.999742,41.35199860015712,-71.84494436556673,18.80863,0,-1,2.844400263830729,5.072861536835844,-9999,16089.25239275,-0.0015869140625,0.35638427734375,-1.006149291992188,1,0.62
2020-05-20 00:52:54.085 -0400,1589950372.999742,41.35199860015712,-71.84494436556673,18.80863,0,-1,2.844400263830729,5.072861536835844,-9999,16089.30228275,0.041473388671875,0.3026123046875,-0.8722381591796875,1,0.62
2020-05-20 00:52:54.135 -0400,1589950372.999742,41.35199860015712,-71.84494436556673,18.80863,0,-1,2.844400263830729,5.072861536835844,-9999,16089.35217475,0.09832763671875,0.280548095703125,-0.8880157470703125,1,0.62
2020-05-20 00:52:54.185 -0400,1589950372.999742,41.35199860015712,-71.84494436556673,18.80863,0,-1,2.844400263830729,5.072861536835844,-9999,16089.40206575,-0.021575927734375,0.4586029052734375,-1.05316162109375,1,0.62
2020-05-20 00:52:54.234 -0400,1589950372.999742,41.35199860015712,-71.84494436556673,18.80863,0,-1,2.844400263830729,5.072861536835844,-9999,16089.45195475,-0.0102081298828125,0.373077392578125,-0.9758453369140625,1,0.62
2020-05-20 00:52:54.285 -0400,1589950373.999741,41.35199860015712,-71.84494436556673,18.80863,0,-1,2.852752407749835,5.068169367026556,-9999,16089.50184675,0.012939453125,0.4355316162109375,-0.8968658447265625,1,0.62
2020-05-20 00:52:54.334 -0400,1589950373.999741,41.35199860015712,-71.84494436556673,18.80863,0,-1,2.852752407749835,5.068169367026556,-9999,16089.55173875,0.0006256103515625,0.357208251953125,-0.820648193359375,1,0.62
2020-05-20 00:52:54.384 -0400,1589950373.999741,41.35199860015712,-71.84494436556673,18.80863,0,-1,2.852752407749835,5.068169367026556,-9999,16089.60162875,0.091796875,0.282012939453125,-0.9648284912109375,1,0.62
2020-05-20 00:52:54.434 -0400,1589950373.999741,41.35199860015712,-71.84494436556673,18.80863,0,-1,2.852752407749835,5.068169367026556,-9999,16089.65151975,-0.0003662109375,0.3293304443359375,-0.9968719482421875,1,0.62
2020-05-20 00:52:54.484 -0400,1589950373.999741,41.35199860015712,-71.84494436556673,18.80863,0,-1,2.852752407749835,5.068169367026556,-9999,16089.701408875,-0.0034332275390625,0.3074798583984375,-0.9435272216796875,1,0.62
2020-05-20 00:52:54.534 -0400,1589950373.999741,41.35199860015712,-71.84494436556673,18.80863,0,-1,2.852752407749835,5.068169367026556,-9999,16089.751295875,0.01141357421875,0.3040771484375,-0.9880828857421875,1,0.62
2020-05-20 00:52:54.584 -0400,1589950373.999741,41.35199860015712,-71.84494436556673,18.80863,0,-1,2.852752407749835,5.068169367026556,-9999,16089.801184875,0.019378662109375,0.2494354248046875,-0.977813720703125,1,0.62
2020-05-20 00:52:54.633 -0400,1589950373.999741,41.35199860015712,-71.84494436556673,18.80863,0,-1,2.852752407749835,5.068169367026556,-9999,16089.851072875,0.034454345703125,0.283294677734375,-0.963470458984375,1,0.62
2020-05-20 00:52:54.684 -0400,1589950373.999741,41.35199860015712,-71.84494436556673,18.80863,0,-1,2.852752407749835,5.068169367026556,-9999,16089.900962875,0.010467529296875,0.210784912109375,-0.950042724609375,1,0.62
2020-05-20 00:52:54.733 -0400,1589950373.999741,41.35199860015712,-71.84494436556673,18.80863,0,-1,2.852752407749835,5.068169367026556,-9999,16089.950849875,0.015350341796875,0.2311553955078125,-0.9558258056640625,1,0.62
2020-05-20 00:52:54.783 -0400,1589950373.999741,41.35199860015712,-71.84494436556673,18.80863,0,-1,2.852752407749835,5.068169367026556,-9999,16090.000737875,0.0020599365234375,0.2427978515625,-1.009765625,1,0.62
2020-05-20 00:52:54.833 -0400,1589950373.999741,41.35199860015712,-71.84494436556673,18.80863,0,-1,2.852752407749835,5.068169367026556,-9999,16090.050625875,-0.003875732421875,0.1234283447265625,-1.001724243164062,1,0.62
2020-05-20 00:52:54.883 -0400,1589950373.999741,41.35199860015712,-71.84494436556673,18.80863,0,-1,2.852752407749835,5.068169367026556,-9999,16090.100515875,0.024078369140625,0.197235107421875,-0.78118896484375,1,0.62
2020-05-20 00:52:54.933 -0400,1589950373.999741,41.35199860015712,-71.84494436556673,18.80863,0,-1,2.852752407749835,5.068169367026556,-9999,16090.150406875,0.0039520263671875,0.2872314453125,-1.129730224609375,1,0.62
2020-05-20 00:52:54.983 -0400,1589950373.999741,41.35199860015712,-71.84494436556673,18.80863,0,-1,2.852752407749835,5.068169367026556,-9999,16090.200296875,-0.038421630859375,0.2039031982421875,-0.8611602783203125,1,0.62
2020-05-20 00:52:55.033 -0400,1589950373.999741,41.35199860015712,-71.84494436556673,18.80863,0,-1,2.852752407749835,5.068169367026556,-9999,16090.250186875,0.053619384765625,0.21868896484375,-1.108444213867188,1,0.62
2020-05-20 00:52:55.082 -0400,1589950373.999741,41.35199860015712,-71.84494436556673,18.80863,0,-1,2.852752407749835,5.068169367026556,-9999,16090.300076875,-0.00537109375,0.2195892333984375,-0.949310302734375,1,0.62
2020-05-20 00:52:55.132 -0400,1589950373.999741,41.35199860015712,-71.84494436556673,18.80863,0,-1,2.852752407749835,5.068169367026556,-9999,16090.349969875,0.0223236083984375,0.2153167724609375,-0.9780731201171875,1,0.62
2020-05-20 00:52:55.182 -0400,1589950373.999741,41.35199860015712,-71.84494436556673,18.80863,0,-1,2.852752407749835,5.068169367026556,-9999,16090.399862875,-0.0342254638671875,0.2955322265625,-1.022369384765625,1,0.62
2020-05-20 00:52:55.232 -0400,1589950373.999741,41.35199860015712,-71.84494436556673,18.80863,0,-1,2.852752407749835,5.068169367026556,-9999,16090.449754875,0.013336181640625,0.2062530517578125,-0.864593505859375,1,0.62
2020-05-20 00:52:55.282 -0400,1589950374.999743,41.35199860015712,-71.84494436556673,18.80863,0,-1,2.810293147230025,5.091835568772895,-9999,16090.499646875,0.0935211181640625,0.216644287109375,-0.9353790283203125,1,0.62
2020-05-20 00:52:55.332 -0400,1589950374.999743,41.35199860015712,-71.84494436556673,18.80863,0,-1,2.810293147230025,5.091835568772895,-9999,16090.549539875,-0.0436859130859375,0.29400634765625,-0.9728546142578125,1,0.62
2020-05-20 00:52:55.382 -0400,1589950374.999743,41.35199860015712,-71.84494436556673,18.80863,0,-1,2.810293147230025,5.091835568772895,-9999,16090.599433875,-0.0149078369140625,0.2583465576171875,-0.999267578125,1,0.62
2020-05-20 00:52:55.432 -0400,1589950374.999743,41.35199860015712,-71.84494436556673,18.80863,0,-1,2.810293147230025,5.091835568772895,-9999,16090.649327875,0.029693603515625,0.2634429931640625,-1.030624389648438,1,0.62
2020-05-20 00:52:55.482 -0400,1589950374.999743,41.35199860015712,-71.84494436556673,18.80863,0,-1,2.810293147230025,5.091835568772895,-9999,16090.6992175,0.021392822265625,0.2552490234375,-0.957244873046875,1,0.62
2020-05-20 00:52:55.531 -0400,1589950374.999743,41.35199860015712,-71.84494436556673,18.80863,0,-1,2.810293147230025,5.091835568772895,-9999,16090.7491085,0.0218963623046875,0.2670135498046875,-0.9333648681640625,1,0.62
2020-05-20 00:52:55.581 -0400,1589950374.999743,41.35199860015712,-71.84494436556673,18.80863,0,-1,2.810293147230025,5.091835568772895,-9999,16090.7989995,0.01910400390625,0.2639923095703125,-0.967803955078125,1,0.62
2020-05-20 00:52:55.631 -0400,1589950374.999743,41.35199860015712,-71.84494436556673,18.80863,0,-1,2.810293147230025,5.091835568772895,-9999,16090.8488915,0.015625,0.246917724609375,-0.9606475830078125,1,0.62
2020-05-20 00:52:55.681 -0400,1589950374.999743,41.35199860015712,-71.84494436556673,18.80863,0,-1,2.810293147230025,5.091835568772895,-9999,16090.8987835,0.0206756591796875,0.2483367919921875,-0.991119384765625,1,0.62
2020-05-20 00:52:55.731 -0400,1589950374.999743,41.35199860015712,-71.84494436556673,18.80863,0,-1,2.810293147230025,5.091835568772895,-9999,16090.9486785,0.0023345947265625,0.25146484375,-0.9781036376953125,1,0.62
2020-05-20 00:52:55.781 -0400,1589950374.999743,41.35199860015712,-71.84494436556673,18.80863,0,-1,2.810293147230025,5.091835568772895,-9999,16090.9985745,0.0098876953125,0.2369537353515625,-0.9668121337890625,1,0.62
2020-05-20 00:52:55.831 -0400,1589950374.999743,41.35199860015712,-71.84494436556673,18.80863,0,-1,2.810293147230025,5.091835568772895,-9999,16091.0484685,0.0115814208984375,0.2305450439453125,-0.9647216796875,1,0.62
2020-05-20 00:52:55.881 -0400,1589950374.999743,41.35199860015712,-71.84494436556673,18.80863,0,-1,2.810293147230025,5.091835568772895,-9999,16091.0983615,-0.0012664794921875,0.2266845703125,-0.955413818359375,1,0.62
2020-05-20 00:52:55.931 -0400,1589950374.999743,41.35199860015712,-71.84494436556673,18.80863,0,-1,2.810293147230025,5.091835568772895,-9999,16091.1482545,-0.00347900390625,0.2046356201171875,-1.02130126953125,1,0.62
2020-05-20 00:52:55.981 -0400,1589950374.999743,41.35199860015712,-71.84494436556673,18.80863,0,-1,2.810293147230025,5.091835568772895,-9999,16091.1981455,0.04669189453125,0.200347900390625,-0.9149932861328125,1,0.62
2020-05-20 00:52:56.046 -0400,1589950374.999743,41.35199860015712,-71.84494436556673,18.80863,0,-1,2.810293147230025,5.091835568772895,-9999,16091.2480375,-0.0132293701171875,0.32940673828125,-0.855621337890625,1,0.62
2020-05-20 00:52:56.080 -0400,1589950374.999743,41.35199860015712,-71.84494436556673,18.80863,0,-1,2.810293147230025,5.091835568772895,-9999,16091.2979305,0.0335235595703125,0.3795623779296875,-0.994354248046875,1,0.62
2020-05-20 00:52:56.130 -0400,1589950374.999743,41.35199860015712,-71.84494436556673,18.80863,0,-1,2.810293147230025,5.091835568772895,-9999,16091.3478225,0.0406036376953125,0.2698211669921875,-0.88592529296875,1,0.62
2020-05-20 00:52:56.180 -0400,1589950374.999743,41.35199860015712,-71.84494436556673,18.80863,0,-1,2.810293147230025,5.091835568772895,-9999,16091.3977135,0.0812530517578125,0.3533935546875,-1.124191284179688,1,0.62
2020-05-20 00:52:56.235 -0400,1589950375.999748,41.35199860015712,-71.84494436556673,18.80863,0,-1,2.68795948708855,5.157461665253509,-9999,16091.4476025,-0.089599609375,0.35821533203125,-0.9809722900390625,1,0.62
2020-05-20 00:52:56.280 -0400,1589950375.999748,41.35199860015712,-71.84494436556673,18.80863,0,-1,2.68795948708855,5.157461665253509,-9999,16091.4974975,0.0330047607421875,0.1231231689453125,-0.9114990234375,1,0.62
2020-05-20 00:52:56.330 -0400,1589950375.999748,41.35199860015712,-71.84494436556673,18.80863,0,-1,2.68795948708855,5.157461665253509,-9999,16091.5473915,0.0616302490234375,0.2858123779296875,-0.999420166015625,1,0.62
2020-05-20 00:52:56.380 -0400,1589950375.999748,41.35199860015712,-71.84494436556673,18.80863,0,-1,2.68795948708855,5.157461665253509,-9999,16091.5972835,0.01678466796875,0.2998809814453125,-0.9072265625,1,0.62
2020-05-20 00:52:56.430 -0400,1589950375.999748,41.35199860015712,-71.84494436556673,18.80863,0,-1,2.68795948708855,5.157461665253509,-9999,16091.6471785,0.06256103515625,0.2432098388671875,-0.9705047607421875,1,0.62
2020-05-20 00:52:56.480 -0400,1589950375.999748,41.35199860015712,-71.84494436556673,18.80863,0,-1,2.68795948708855,5.157461665253509,-9999,16091.69707279167,0.024383544921875,0.3388214111328125,-0.9836883544921875,1,0.62
2020-05-20 00:52:56.529 -0400,1589950375.999748,41.35199860015712,-71.84494436556673,18.80863,0,-1,2.68795948708855,5.157461665253509,-9999,16091.74696579167,0.0066680908203125,0.21368408203125,-0.8865814208984375,1,0.62
2020-05-20 00:52:56.579 -0400,1589950375.999748,41.35199860015712,-71.84494436556673,18.80863,0,-1,2.68795948708855,5.157461665253509,-9999,16091.79685979167,0.1366424560546875,0.2563323974609375,-0.9947662353515625,1,0.62
2020-05-20 00:52:56.629 -0400,1589950375.999748,41.35199860015712,-71.84494436556673,18.80863,0,-1,2.68795948708855,5.157461665253509,-9999,16091.84675279167,0.0040435791015625,0.423095703125,-0.9960479736328125,1,0.62
2020-05-20 00:52:56.679 -0400,1589950375.999748,41.35199860015712,-71.84494436556673,18.80863,0,-1,2.68795948708855,5.157461665253509,-9999,16091.89664579167,0.0263824462890625,0.1032257080078125,-0.8515777587890625,1,0.62
2020-05-20 00:52:56.729 -0400,1589950375.999748,41.35199860015712,-71.84494436556673,18.80863,0,-1,2.68795948708855,5.157461665253509,-9999,16091.94653879167,0.007049560546875,0.406341552734375,-1.014511108398438,1,0.62
2020-05-20 00:52:56.779 -0400,1589950375.999748,41.35199860015712,-71.84494436556673,18.80863,0,-1,2.68795948708855,5.157461665253509,-9999,16091.99643179167,0.0711517333984375,0.281890869140625,-1.022598266601562,1,0.62
2020-05-20 00:52:56.829 -0400,1589950375.999748,41.35199860015712,-71.84494436556673,18.80863,0,-1,2.68795948708855,5.157461665253509,-9999,16092.04632279167,0.032073974609375,0.296142578125,-0.9486083984375,1,0.62
2020-05-20 00:52:56.879 -0400,1589950375.999748,41.35199860015712,-71.84494436556673,18.80863,0,-1,2.68795948708855,5.157461665253509,-9999,16092.09621279167,0.0422210693359375,0.259490966796875,-1.002227783203125,1,0.62
2020-05-20 00:52:56.929 -0400,1589950375.999748,41.35199860015712,-71.84494436556673,18.80863,0,-1,2.68795948708855,5.157461665253509,-9999,16092.14610379167,0.0514068603515625,0.228912353515625,-0.89520263671875,1,0.62
2020-05-20 00:52:56.979 -0400,1589950375.999748,41.35199860015712,-71.84494436556673,18.80863,0,-1,2.68795948708855,5.157461665253509,-9999,16092.19599479167,0.059417724609375,0.1895751953125,-0.7642364501953125,1,0.62
2020-05-20 00:52:57.028 -0400,1589950375.999748,41.35199860015712,-71.84494436556673,18.80863,0,-1,2.68795948708855,5.157461665253509,-9999,16092.24588479167,0.0603179931640625,0.4177398681640625,-0.9996490478515625,1,0.62
2020-05-20 00:52:57.078 -0400,1589950375.999748,41.35199860015712,-71.84494436556673,18.80863,0,-1,2.68795948708855,5.157461665253509,-9999,16092.29577179167,0.0788421630859375,0.336639404296875,-1.148284912109375,1,0.62
2020-05-20 00:52:57.128 -0400,1589950375.999748,41.35199860015712,-71.84494436556673,18.80863,0,-1,2.68795948708855,5.157461665253509,-9999,16092.34565979167,-0.0333404541015625,0.352294921875,-0.843414306640625,1,0.62
2020-05-20 00:52:57.178 -0400,1589950375.999748,41.35199860015712,-71.84494436556673,18.80863,0,-1,2.68795948708855,5.157461665253509,-9999,16092.39554779167,0.071319580078125,0.4537506103515625,-1.048553466796875,1,0.62
2020-05-20 00:52:57.228 -0400,1589950375.999748,41.35199860015712,-71.84494436556673,18.80863,0,-1,2.68795948708855,5.157461665253509,-9999,16092.44543779167,0.0159149169921875,0.415435791015625,-0.9315643310546875,1,0.62
2020-05-20 00:52:57.284 -0400,1589950375.999748,41.35199860015712,-71.84494436556673,18.80863,0,-1,2.68795948708855,5.157461665253509,-9999,16092.49533079167,0.04937744140625,0.4256744384765625,-0.95672607421875,1,0.62
2020-05-20 00:52:57.328 -0400,1589950376.999746,41.35199860015712,-71.84494436556673,18.80863,0,-1,3.06170460572423,4.944744881192141,-9999,16092.54522079167,0.0704803466796875,0.30059814453125,-0.90594482421875,1,0.62
2020-05-20 00:52:57.378 -0400,1589950376.999746,41.35199860015712,-71.84494436556673,18.80863,0,-1,3.06170460572423,4.944744881192141,-9999,16092.59510879167,0.05224609375,0.32293701171875,-0.91778564453125,1,0.62
2020-05-20 00:52:57.428 -0400,1589950376.999746,41.35199860015712,-71.84494436556673,18.80863,0,-1,3.06170460572423,4.944744881192141,-9999,16092.64499779167,0.0156402587890625,0.38995361328125,-1.021926879882812,1,0.62
2020-05-20 00:52:57.477 -0400,1589950376.999746,41.35199860015712,-71.84494436556673,18.80863,0,-1,3.06170460572423,4.944744881192141,-9999,16092.694887,0.0165557861328125,0.239959716796875,-0.921417236328125,1,0.62
2020-05-20 00:52:57.527 -0400,1589950376.999746,41.35199860015712,-71.84494436556673,18.80863,0,-1,3.06170460572423,4.944744881192141,-9999,16092.744774,0.06158447265625,0.361907958984375,-0.920013427734375,1,0.62
2020-05-20 00:52:57.577 -0400,1589950376.999746,41.35199860015712,-71.84494436556673,18.80863,0,-1,3.06170460572423,4.944744881192141,-9999,16092.794664,0.030792236328125,0.3148956298828125,-0.9537506103515625,1,0.62
2020-05-20 00:52:57.627 -0400,1589950376.999746,41.35199860015712,-71.84494436556673,18.80863,0,-1,3.06170460572423,4.944744881192141,-9999,16092.844553,0.04571533203125,0.3236083984375,-0.963134765625,1,0.62
2020-05-20 00:52:57.677 -0400,1589950376.999746,41.35199860015712,-71.84494436556673,18.80863,0,-1,3.06170460572423,4.944744881192141,-9999,16092.894444,0.0342559814453125,0.2848663330078125,-1.05267333984375,1,0.62
2020-05-20 00:52:57.727 -0400,1589950376.999746,41.35199860015712,-71.84494436556673,18.80863,0,-1,3.06170460572423,4.944744881192141,-9999,16092.944335,-0.05340576171875,0.1965179443359375,-0.858001708984375,1,0.62
2020-05-20 00:52:57.777 -0400,1589950376.999746,41.35199860015712,-71.84494436556673,18.80863,0,-1,3.06170460572423,4.944744881192141,-9999,16092.994227,0.094970703125,0.245208740234375,-0.8433074951171875,1,0.62
2020-05-20 00:52:57.826 -0400,1589950376.999746,41.35199860015712,-71.84494436556673,18.80863,0,-1,3.06170460572423,4.944744881192141,-9999,16093.044121,0.065155029296875,0.3480072021484375,-1.238510131835938,1,0.62
2020-05-20 00:52:57.876 -0400,1589950376.999746,41.35199860015712,-71.84494436556673,18.80863,0,-1,3.06170460572423,4.944744881192141,-9999,16093.094015,0.0113983154296875,0.2892608642578125,-0.904388427734375,1,0.62
2020-05-20 00:52:57.926 -0400,1589950376.999746,41.35199860015712,-71.84494436556673,18.80863,0,-1,3.06170460572423,4.944744881192141,-9999,16093.143908,0.0383148193359375,0.230682373046875,-0.8910675048828125,1,0.62
2020-05-20 00:52:57.976 -0400,1589950376.999746,41.35199860015712,-71.84494436556673,18.80863,0,-1,3.06170460572423,4.944744881192141,-9999,16093.193802,0.035369873046875,0.21417236328125,-0.81854248046875,1,0.62
2020-05-20 00:52:58.026 -0400,1589950376.999746,41.35199860015712,-71.84494436556673,18.80863,0,-1,3.06170460572423,4.944744881192141,-9999,16093.243694,0.082489013671875,0.3929443359375,-1.057403564453125,1,0.62
2020-05-20 00:52:58.076 -0400,1589950376.999746,41.35199860015712,-71.84494436556673,18.80863,0,-1,3.06170460572423,4.944744881192141,-9999,16093.293584,-0.016357421875,0.278411865234375,-0.9784088134765625,1,0.62
2020-05-20 00:52:58.126 -0400,1589950376.999746,41.35199860015712,-71.84494436556673,18.80863,0,-1,3.06170460572423,4.944744881192141,-9999,16093.343474,0.000457763671875,0.2587890625,-0.955902099609375,1,0.62
2020-05-20 00:52:58.176 -0400,1589950376.999746,41.35199860015712,-71.84494436556673,18.80863,0,-1,3.06170460572423,4.944744881192141,-9999,16093.393363,0.060791015625,0.345245361328125,-0.987518310546875,1,0.62
2020-05-20 00:52:58.226 -0400,1589950376.999746,41.35199860015712,-71.84494436556673,18.80863,0,-1,3.06170460572423,4.944744881192141,-9999,16093.443251,0.0518798828125,0.31646728515625,-0.9560089111328125,1,0.62
2020-05-20 00:52:58.276 -0400,1589950376.999746,41.35199860015712,-71.84494436556673,18.80863,0,-1,3.06170460572423,4.944744881192141,-9999,16093.49314,0.03314208984375,0.391937255859375,-1.000030517578125,1,0.62
2020-05-20 00:52:58.326 -0400,1589950377.999748,41.35199860015712,-71.84494436556673,18.80863,0,-1,3.12304252273828,4.906235056941052,-9999,16093.543029,0.0285797119140625,0.3427581787109375,-0.9151611328125,1,0.62
2020-05-20 00:52:58.375 -0400,1589950377.999748,41.35199860015712,-71.84494436556673,18.80863,0,-1,3.12304252273828,4.906235056941052,-9999,16093.59292,0.100860595703125,0.1702880859375,-0.8955230712890625,1,0.62
2020-05-20 00:52:58.425 -0400,1589950377.999748,41.35199860015712,-71.84494436556673,18.80863,0,-1,3.12304252273828,4.906235056941052,-9999,16093.64281,0.0299224853515625,0.4869232177734375,-0.94635009765625,1,0.62
2020-05-20 00:52:58.475 -0400,1589950377.999748,41.35199860015712,-71.84494436556673,18.80863,0,-1,3.12304252273828,4.906235056941052,-9999,16093.692700125,0.0165557861328125,0.3430938720703125,-0.95208740234375,1,0.62
2020-05-20 00:52:58.525 -0400,1589950377.999748,41.35199860015712,-71.84494436556673,18.80863,0,-1,3.12304252273828,4.906235056941052,-9999,16093.742589125,0.063720703125,0.3587646484375,-0.9847564697265625,1,0.62
2020-05-20 00:52:58.575 -0400,1589950377.999748,41.35199860015712,-71.84494436556673,18.80863,0,-1,3.12304252273828,4.906235056941052,-9999,16093.792478125,0.041748046875,0.313629150390625,-0.9555206298828125,1,0.62
2020-05-20 00:52:58.625 -0400,1589950377.999748,41.35199860015712,-71.84494436556673,18.80863,0,-1,3.12304252273828,4.906235056941052,-9999,16093.842369125,0.05084228515625,0.3045654296875,-0.971649169921875,1,0.62
2020-05-20 00:52:58.675 -0400,1589950377.999748,41.35199860015712,-71.84494436556673,18.80863,0,-1,3.12304252273828,4.906235056941052,-9999,16093.892260125,0.029571533203125,0.273101806640625,-0.9353790283203125,1,0.62
2020-05-20 00:52:58.725 -0400,1589950377.999748,41.35199860015712,-71.84494436556673,18.80863,0,-1,3.12304252273828,4.906235056941052,-9999,16093.942156125,0.0584716796875,0.3267822265625,-0.975006103515625,1,0.62
2020-05-20 00:52:58.775 -0400,1589950377.999748,41.35199860015712,-71.84494436556673,18.80863,0,-1,3.12304252273828,4.906235056941052,-9999,16093.992049125,0.0332489013671875,0.29595947265625,-0.9276275634765625,1,0.62
2020-05-20 00:52:58.824 -0400,1589950377.999748,41.35199860015712,-71.84494436556673,18.80863,0,-1,3.12304252273828,4.906235056941052,-9999,16094.041942125,0.0306549072265625,0.333740234375,-0.930908203125,1,0.62
2020-05-20 00:52:58.874 -0400,1589950377.999748,41.35199860015712,-71.84494436556673,18.80863,0,-1,3.12304252273828,4.906235056941052,-9999,16094.091834125,0.02239990234375,0.2978668212890625,-1.011428833007812,1,0.62
2020-05-20 00:52:58.924 -0400,1589950377.999748,41.35199860015712,-71.84494436556673,18.80863,0,-1,3.12304252273828,4.906235056941052,-9999,16094.141728125,0.03228759765625,0.37078857421875,-0.927520751953125,1,0.62
2020-05-20 00:52:58.974 -0400,1589950377.999748,41.35199860015712,-71.84494436556673,18.80863,0,-1,3.12304252273828,4.906235056941052,-9999,16094.191621125,0.0027008056640625,0.33941650390625,-0.829254150390625,1,0.62
2020-05-20 00:52:59.024 -0400,1589950377.999748,41.35199860015712,-71.84494436556673,18.80863,0,-1,3.12304252273828,4.906235056941052,-9999,16094.241514125,0.0323638916015625,0.2867584228515625,-0.979248046875,1,0.62
2020-05-20 00:52:59.074 -0400,1589950377.999748,41.35199860015712,-71.84494436556673,18.80863,0,-1,3.12304252273828,4.906235056941052,-9999,16094.291409125,0.06072998046875,0.249237060546875,-0.8619842529296875,1,0.62
2020-05-20 00:52:59.124 -0400,1589950377.999748,41.35199860015712,-71.84494436556673,18.80863,0,-1,3.12304252273828,4.906235056941052,-9999,16094.341305125,0.0416412353515625,0.3479461669921875,-0.9594573974609375,1,0.62
2020-05-20 00:52:59.174 -0400,1589950377.999748,41.35199860015712,-71.84494436556673,18.80863,0,-1,3.12304252273828,4.906235056941052,-9999,16094.391196125,0.0291748046875,0.358306884765625,-0.9641571044921875,1,0.62
2020-05-20 00:52:59.224 -0400,1589950377.999748,41.35199860015712,-71.84494436556673,18.80863,0,-1,3.12304252273828,4.906235056941052,-9999,16094.441088125,0.0320587158203125,0.3545989990234375,-0.9351348876953125,1,0.62
2020-05-20 00:52:59.274 -0400,1589950378.999753,41.35199860015712,-71.84494436556673,18.80863,0,-1,3.173776428373923,4.87356955582732,-9999,16094.490977125,0.0408782958984375,0.3589935302734375,-0.9803009033203125,1,0.62
2020-05-20 00:52:59.323 -0400,1589950378.999753,41.35199860015712,-71.84494436556673,18.80863,0,-1,3.173776428373923,4.87356955582732,-9999,16094.540866125,0.0528411865234375,0.3311920166015625,-0.9328765869140625,1,0.62
2020-05-20 00:52:59.373 -0400,1589950378.999753,41.35199860015712,-71.84494436556673,18.80863,0,-1,3.173776428373923,4.87356955582732,-9999,16094.590755125,0.040985107421875,0.2410125732421875,-0.866241455078125,1,0.62
2020-05-20 00:52:59.423 -0400,1589950378.999753,41.35199860015712,-71.84494436556673,18.80863,0,-1,3.173776428373923,4.87356955582732,-9999,16094.640644125,0.04180908203125,0.448028564453125,-0.91827392578125,1,0.62
2020-05-20 00:52:59.473 -0400,1589950378.999753,41.35199860015712,-71.84494436556673,18.80863,0,-1,3.173776428373923,4.87356955582732,-9999,16094.69052975,0.013641357421875,0.362701416015625,-0.9240875244140625,1,0.62
2020-05-20 00:52:59.523 -0400,1589950378.999753,41.35199860015712,-71.84494436556673,18.80863,0,-1,3.173776428373923,4.87356955582732,-9999,16094.74041675,0.0432586669921875,0.2251739501953125,-0.86370849609375,1,0.62
2020-05-20 00:52:59.573 -0400,1589950378.999753,41.35199860015712,-71.84494436556673,18.80863,0,-1,3.173776428373923,4.87356955582732,-9999,16094.79030375,0.1206207275390625,0.2864227294921875,-0.9515533447265625,1,0.62
2020-05-20 00:52:59.623 -0400,1589950378.999753,41.35199860015712,-71.84494436556673,18.80863,0,-1,3.173776428373923,4.87356955582732,-9999,16094.84019175,0.027099609375,0.3834991455078125,-0.9156494140625,1,0.62
2020-05-20 00:52:59.673 -0400,1589950378.999753,41.35199860015712,-71.84494436556673,18.80863,0,-1,3.173776428373923,4.87356955582732,-9999,16094.89007875,0.017333984375,0.3552703857421875,-0.9039306640625,1,0.62
2020-05-20 00:52:59.722 -0400,1589950378.999753,41.35199860015712,-71.84494436556673,18.80863,0,-1,3.173776428373923,4.87356955582732,-9999,16094.93996475,0.04974365234375,0.2820281982421875,-0.804534912109375,1,0.62
2020-05-20 00:52:59.772 -0400,1589950378.999753,41.35199860015712,-71.84494436556673,18.80863,0,-1,3.173776428373923,4.87356955582732,-9999,16094.98985375,0.0468902587890625,0.43450927734375,-1.052825927734375,1,0.62
2020-05-20 00:52:59.822 -0400,1589950378.999753,41.35199860015712,-71.84494436556673,18.80863,0,-1,3.173776428373923,4.87356955582732,-9999,16095.03973875,-0.0023345947265625,0.365264892578125,-0.92376708984375,1,0.62
2020-05-20 00:52:59.872 -0400,1589950378.999753,41.35199860015712,-71.84494436556673,18.80863,0,-1,3.173776428373923,4.87356955582732,-9999,16095.08962475,0.0606536865234375,0.369842529296875,-0.9395751953125,1,0.62
2020-05-20 00:52:59.922 -0400,1589950378.999753,41.35199860015712,-71.84494436556673,18.80863,0,-1,3.173776428373923,4.87356955582732,-9999,16095.13951275,0.031005859375,0.3548126220703125,-0.915252685546875,1,0.62
2020-05-20 00:52:59.972 -0400,1589950378.999753,41.35199860015712,-71.84494436556673,18.80863,0,-1,3.173776428373923,4.87356955582732,-9999,16095.18940275,0.06158447265625,0.371978759765625,-0.9210662841796875,1,0.62
2020-05-20 00:53:00.022 -0400,1589950378.999753,41.35199860015712,-71.84494436556673,18.80863,0,-1,3.173776428373923,4.87356955582732,-9999,16095.23929175,0.0509796142578125,0.350067138671875,-0.93658447265625,1,0.62
2020-05-20 00:53:00.072 -0400,1589950378.999753,41.35199860015712,-71.84494436556673,18.80863,0,-1,3.173776428373923,4.87356955582732,-9999,16095.28918375,0.049530029296875,0.3414306640625,-0.931884765625,1,0.62
2020-05-20 00:53:00.121 -0400,1589950378.999753,41.35199860015712,-71.84494436556673,18.80863,0,-1,3.173776428373923,4.87356955582732,-9999,16095.33907375,0.04754638671875,0.35272216796875,-0.9469146728515625,1,0.62
2020-05-20 00:53:00.171 -0400,1589950378.999753,41.35199860015712,-71.84494436556673,18.80863,0,-1,3.173776428373923,4.87356955582732,-9999,16095.38896275,0.0561981201171875,0.341339111328125,-0.94476318359375,1,0.62
2020-05-20 00:53:00.221 -0400,1589950378.999753,41.35199860015712,-71.84494436556673,18.80863,0,-1,3.173776428373923,4.87356955582732,-9999,16095.43885475,0.049713134765625,0.3523101806640625,-0.94793701171875,1,0.62
2020-05-20 00:53:00.271 -0400,1589950379.999751,41.35199860015712,-71.84494436556673,18.80863,0,-1,3.180075241485791,4.86946182768465,-9999,16095.48874675,0.041778564453125,0.3452301025390625,-0.9357147216796875,1,0.62
2020-05-20 00:53:00.321 -0400,1589950379.999751,41.35199860015712,-71.84494436556673,18.80863,0,-1,3.180075241485791,4.86946182768465,-9999,16095.53863975,0.0531158447265625,0.340667724609375,-0.9353790283203125,1,0.62
2020-05-20 00:53:00.371 -0400,1589950379.999751,41.35199860015712,-71.84494436556673,18.80863,0,-1,3.180075241485791,4.86946182768465,-9999,16095.58852875,0.049835205078125,0.3540802001953125,-0.955047607421875,1,0.62
2020-05-20 00:53:00.421 -0400,1589950379.999751,41.35199860015712,-71.84494436556673,18.80863,0,-1,3.180075241485791,4.86946182768465,-9999,16095.63842175,0.0679931640625,0.3529052734375,-0.939788818359375,1,0.62
2020-05-20 00:53:00.471 -0400,1589950379.999751,41.35199860015712,-71.84494436556673,18.80863,0,-1,3.180075241485791,4.86946182768465,-9999,16095.68831229167,0.0561981201171875,0.3710174560546875,-0.940032958984375,1,0.62
2020-05-20 00:53:00.521 -0400,1589950379.999751,41.35199860015712,-71.84494436556673,18.80863,0,-1,3.180075241485791,4.86946182768465,-9999,16095.73820229167,0.0306243896484375,0.3670806884765625,-0.919219970703125,1,0.62
2020-05-20 00:53:00.571 -0400,1589950379.999751,41.35199860015712,-71.84494436556673,18.80863,0,-1,3.180075241485791,4.86946182768465,-9999,16095.78809729167,0.039703369140625,0.35797119140625,-0.913848876953125,1,0.62
2020-05-20 00:53:00.620 -0400,1589950379.999751,41.35199860015712,-71.84494436556673,18.80863,0,-1,3.180075241485791,4.86946182768465,-9999,16095.83799029167,0.0223846435546875,0.3654022216796875,-0.93328857421875,1,0.62
2020-05-20 00:53:00.670 -0400,1589950379.999751,41.35199860015712,-71.84494436556673,18.80863,0,-1,3.180075241485791,4.86946182768465,-9999,16095.88788529167,0.035186767578125,0.358734130859375,-0.9213714599609375,1,0.62
2020-05-20 00:53:00.721 -0400,1589950379.999751,41.35199860015712,-71.84494436556673,18.80863,0,-1,3.180075241485791,4.86946182768465,-9999,16095.93777729167,0.047698974609375,0.363861083984375,-0.9276275634765625,1,0.62
2020-05-20 00:53:00.770 -0400,1589950379.999751,41.35199860015712,-71.84494436556673,18.80863,0,-1,3.180075241485791,4.86946182768465,-9999,16095.98766929167,0.054656982421875,0.3584442138671875,-0.925689697265625,1,0.62
2020-05-20 00:53:00.820 -0400,1589950379.999751,41.35199860015712,-71.84494436556673,18.80863,0,-1,3.180075241485791,4.86946182768465,-9999,16096.03756229167,0.0399322509765625,0.353973388671875,-0.946502685546875,1,0.62
2020-05-20 00:53:00.870 -0400,1589950379.999751,41.35199860015712,-71.84494436556673,18.80863,0,-1,3.180075241485791,4.86946182768465,-9999,16096.08745329167,0.0458526611328125,0.3631439208984375,-0.942474365234375,1,0.62
2020-05-20 00:53:00.920 -0400,1589950379.999751,41.35199860015712,-71.84494436556673,18.80863,0,-1,3.180075241485791,4.86946182768465,-9999,16096.13734529167,0.0546112060546875,0.3539581298828125,-0.9466705322265625,1,0.62
2020-05-20 00:53:00.970 -0400,1589950379.999751,41.35199860015712,-71.84494436556673,18.80863,0,-1,3.180075241485791,4.86946182768465,-9999,16096.18723829167,0.0621795654296875,0.3327789306640625,-0.94134521484375,1,0.62
2020-05-20 00:53:01.020 -0400,1589950379.999751,41.35199860015712,-71.84494436556673,18.80863,0,-1,3.180075241485791,4.86946182768465,-9999,16096.23713029167,0.05120849609375,0.3221893310546875,-0.9799041748046875,1,0.62
2020-05-20 00:53:01.069 -0400,1589950379.999751,41.35199860015712,-71.84494436556673,18.80863,0,-1,3.180075241485791,4.86946182768465,-9999,16096.28702329167,0.0591278076171875,0.3397674560546875,-0.9218597412109375,1,0.62
2020-05-20 00:53:01.119 -0400,1589950379.999751,41.35199860015712,-71.84494436556673,18.80863,0,-1,3.180075241485791,4.86946182768465,-9999,16096.33691829167,0.065216064453125,0.264801025390625,-0.8623809814453125,1,0.62
2020-05-20 00:53:01.169 -0400,1589950379.999751,41.35199860015712,-71.84494436556673,18.80863,0,-1,3.180075241485791,4.86946182768465,-9999,16096.38681029167,0.056182861328125,0.2960357666015625,-0.93621826171875,1,0.62
2020-05-20 00:53:01.219 -0400,1589950379.999751,41.35199860015712,-71.84494436556673,18.80863,0,-1,3.180075241485791,4.86946182768465,-9999,16096.43670529167,0.0193939208984375,0.332916259765625,-0.95452880859375,1,0.62
2020-05-20 00:53:01.269 -0400,1589950379.999751,41.35199860015712,-71.84494436556673,18.80863,0,-1,3.180075241485791,4.86946182768465,-9999,16096.48660129167,0.00372314453125,0.3292388916015625,-0.9541015625,1,0.62
2020-05-20 00:53:01.319 -0400,1589950380.999752,41.35199860015712,-71.84494436556673,18.80863,0,-1,3.186168728810541,4.865476941096182,-9999,16096.53649829167,0.051971435546875,0.3094940185546875,-0.9350738525390625,1,0.62
2020-05-20 00:53:01.369 -0400,1589950380.999752,41.35199860015712,-71.84494436556673,18.80863,0,-1,3.186168728810541,4.865476941096182,-9999,16096.58639229167,0.0625457763671875,0.3108978271484375,-0.973876953125,1,0.62
2020-05-20 00:53:01.419 -0400,1589950380.999752,41.35199860015712,-71.84494436556673,18.80863,0,-1,3.186168728810541,4.865476941096182,-9999,16096.63628529167,0.0559844970703125,0.29937744140625,-0.950927734375,1,0.62
2020-05-20 00:53:01.469 -0400,1589950380.999752,41.35199860015712,-71.84494436556673,18.80863,0,-1,3.186168728810541,4.865476941096182,-9999,16096.68617725,0.048004150390625,0.3227386474609375,-0.9393157958984375,1,0.62
2020-05-20 00:53:01.519 -0400,1589950380.999752,41.35199860015712,-71.84494436556673,18.80863,0,-1,3.186168728810541,4.865476941096182,-9999,16096.73606825,0.039794921875,0.291961669921875,-0.929931640625,1,0.62
2020-05-20 00:53:01.568 -0400,1589950380.999752,41.35199860015712,-71.84494436556673,18.80863,0,-1,3.186168728810541,4.865476941096182,-9999,16096.78596025,0.0487213134765625,0.343292236328125,-0.952911376953125,1,0.62
2020-05-20 00:53:01.618 -0400,1589950380.999752,41.35199860015712,-71.84494436556673,18.80863,0,-1,3.186168728810541,4.865476941096182,-9999,16096.83585525,0.0647430419921875,0.3245391845703125,-0.9508514404296875,1,0.62
2020-05-20 00:53:01.668 -0400,1589950380.999752,41.35199860015712,-71.84494436556673,18.80863,0,-1,3.186168728810541,4.865476941096182,-9999,16096.88574725,0.06915283203125,0.3229522705078125,-0.97064208984375,1,0.62
2020-05-20 00:53:01.718 -0400,1589950380.999752,41.35199860015712,-71.84494436556673,18.80863,0,-1,3.186168728810541,4.865476941096182,-9999,16096.93563925,0.053955078125,0.3304901123046875,-0.95904541015625,1,0.62
2020-05-20 00:53:01.768 -0400,1589950380.999752,41.35199860015712,-71.84494436556673,18.80863,0,-1,3.186168728810541,4.865476941096182,-9999,16096.98553425,0.0356292724609375,0.3215789794921875,-0.9442291259765625,1,0.62
2020-05-20 00:53:01.818 -0400,1589950380.999752,41.35199860015712,-71.84494436556673,18.80863,0,-1,3.186168728810541,4.865476941096182,-9999,16097.03543125,0.0240936279296875,0.3441925048828125,-0.931549072265625,1,0.62
2020-05-20 00:53:01.868 -0400,1589950380.999752,41.35199860015712,-71.84494436556673,18.80863,0,-1,3.186168728810541,4.865476941096182,-9999,16097.08532825,0.04425048828125,0.2973175048828125,-0.896759033203125,1,0.62
2020-05-20 00:53:01.918 -0400,1589950380.999752,41.35199860015712,-71.84494436556673,18.80863,0,-1,3.186168728810541,4.865476941096182,-9999,16097.13522225,0.0717926025390625,0.349639892578125,-0.9620513916015625,1,0.62
2020-05-20 00:53:01.968 -0400,1589950380.999752,41.35199860015712,-71.84494436556673,18.80863,0,-1,3.186168728810541,4.865476941096182,-9999,16097.18511725,0.1175689697265625,0.311553955078125,-0.9197845458984375,1,0.62
2020-05-20 00:53:02.030 -0400,1589950380.999752,41.35199860015712,-71.84494436556673,18.80863,0,-1,3.186168728810541,4.865476941096182,-9999,16097.23501525,0.05804443359375,0.3416290283203125,-0.941925048828125,1,0.62
2020-05-20 00:53:02.067 -0400,1589950380.999752,41.35199860015712,-71.84494436556673,18.80863,0,-1,3.186168728810541,4.865476941096182,-9999,16097.28491025,0.07843017578125,0.3486175537109375,-0.9131622314453125,1,0.62
2020-05-20 00:53:02.119 -0400,1589950380.999752,41.35199860015712,-71.84494436556673,18.80863,0,-1,3.186168728810541,4.865476941096182,-9999,16097.33480225,0.064361572265625,0.341461181640625,-0.9249114990234375,1,0.62
2020-05-20 00:53:02.167 -0400,1589950380.999752,41.35199860015712,-71.84494436556673,18.80863,0,-1,3.186168728810541,4.865476941096182,-9999,16097.38469225,0.0595245361328125,0.3563690185546875,-0.952880859375,1,0.62
2020-05-20 00:53:02.217 -0400,1589950380.999752,41.35199860015712,-71.84494436556673,18.80863,0,-1,3.186168728810541,4.865476941096182,-9999,16097.43458525,0.0711669921875,0.336761474609375,-0.9485931396484375,1,0.62
2020-05-20 00:53:02.267 -0400,1589950381.999756,41.35199860015712,-71.84494436556673,18.80863,0,-1,3.196404917339482,4.858758343156904,-9999,16097.48447725,0.0865936279296875,0.3408660888671875,-0.9772186279296875,1,0.62
2020-05-20 00:53:02.317 -0400,1589950381.999756,41.35199860015712,-71.84494436556673,18.80863,0,-1,3.196404917339482,4.858758343156904,-9999,16097.53436825,0.1187286376953125,0.328277587890625,-1.018035888671875,1,0.62
2020-05-20 00:53:02.367 -0400,1589950381.999756,41.35199860015712,-71.84494436556673,18.80863,0,-1,3.196404917339482,4.858758343156904,-9999,16097.58426125,0.1069488525390625,0.360748291015625,-1.0562744140625,1,0.62
2020-05-20 00:53:02.417 -0400,1589950381.999756,41.35199860015712,-71.84494436556673,18.80863,0,-1,3.196404917339482,4.858758343156904,-9999,16097.63415525,0.052154541015625,0.2758026123046875,-1.074356079101562,1,0.62
2020-05-20 00:53:02.467 -0400,1589950381.999756,41.35199860015712,-71.84494436556673,18.80863,0,-1,3.196404917339482,4.858758343156904,-9999,16097.684047125,0.0196990966796875,0.1123809814453125,-1.061111450195312,1,0.62
2020-05-20 00:53:02.516 -0400,1589950381.999756,41.35199860015712,-71.84494436556673,18.80863,0,-1,3.196404917339482,4.858758343156904,-9999,16097.733938125,-0.022735595703125,0.0847625732421875,-1.074798583984375,1,0.62
2020-05-20 00:53:02.566 -0400,1589950381.999756,41.35199860015712,-71.84494436556673,18.80863,0,-1,3.196404917339482,4.858758343156904,-9999,16097.783829125,0.0406341552734375,0.0129547119140625,-1.02105712890625,1,0.62
2020-05-20 00:53:02.616 -0400,1589950381.999756,41.35199860015712,-71.84494436556673,18.80863,0,-1,3.196404917339482,4.858758343156904,-9999,16097.833719125,0.0681610107421875,-0.0222625732421875,-0.9379119873046875,1,0.62
2020-05-20 00:53:02.666 -0400,1589950381.999756,41.35199860015712,-71.84494436556673,18.80863,0,-1,3.196404917339482,4.858758343156904,-9999,16097.883609125,0.1063995361328125,-0.16632080078125,-0.8975982666015625,1,0.62
2020-05-20 00:53:02.716 -0400,1589950381.999756,41.35199860015712,-71.84494436556673,18.80863,0,-1,3.196404917339482,4.858758343156904,-9999,16097.933501125,0.11376953125,-0.2078857421875,-0.8537139892578125,1,0.62
2020-05-20 00:53:02.766 -0400,1589950381.999756,41.35199860015712,-71.84494436556673,18.80863,0,-1,3.196404917339482,4.858758343156904,-9999,16097.983395125,0.0982818603515625,-0.300994873046875,-0.8506317138671875,1,0.62
2020-05-20 00:53:02.816 -0400,1589950381.999756,41.35199860015712,-71.84494436556673,18.80863,0,-1,3.196404917339482,4.858758343156904,-9999,16098.033289125,0.0953826904296875,-0.3167877197265625,-0.8753204345703125,1,0.62
2020-05-20 00:53:02.866 -0400,1589950381.999756,41.35199860015712,-71.84494436556673,18.80863,0,-1,3.196404917339482,4.858758343156904,-9999,16098.083181125,0.0983123779296875,-0.3438720703125,-0.8974151611328125,1,0.62
2020-05-20 00:53:02.915 -0400,1589950381.999756,41.35199860015712,-71.84494436556673,18.80863,0,-1,3.196404917339482,4.858758343156904,-9999,16098.133073125,0.08282470703125,-0.3125152587890625,-0.942291259765625,1,0.62
2020-05-20 00:53:02.965 -0400,1589950381.999756,41.35199860015712,-71.84494436556673,18.80863,0,-1,3.196404917339482,4.858758343156904,-9999,16098.182964125,0.0427093505859375,-0.2692108154296875,-0.9602508544921875,1,0.62
2020-05-20 00:53:03.015 -0400,1589950381.999756,41.35199860015712,-71.84494436556673,18.80863,0,-1,3.196404917339482,4.858758343156904,-9999,16098.232858125,0.0241851806640625,-0.208282470703125,-0.95098876953125,1,0.62
2020-05-20 00:53:03.065 -0400,1589950381.999756,41.35199860015712,-71.84494436556673,18.80863,0,-1,3.196404917339482,4.858758343156904,-9999,16098.282752125,0.1087799072265625,-0.2723236083984375,-0.9520721435546875,1,0.62
2020-05-20 00:53:03.115 -0400,1589950381.999756,41.35199860015712,-71.84494436556673,18.80863,0,-1,3.196404917339482,4.858758343156904,-9999,16098.332649125,0.06329345703125,-0.2449798583984375,-0.9915771484375,1,0.62
2020-05-20 00:53:03.165 -0400,1589950381.999756,41.35199860015712,-71.84494436556673,18.80863,0,-1,3.196404917339482,4.858758343156904,-9999,16098.382544125,0.0562591552734375,-0.243865966796875,-0.9679718017578125,1,0.62
2020-05-20 00:53:03.215 -0400,1589950381.999756,41.35199860015712,-71.84494436556673,18.80863,0,-1,3.196404917339482,4.858758343156904,-9999,16098.432441125,0.0376434326171875,-0.2314300537109375,-0.9595794677734375,1,0.62
2020-05-20 00:53:03.265 -0400,1589950382.999754,41.35199860015712,-71.84494436556673,18.80863,0,-1,3.206016972424463,4.852421272448953,-9999,16098.482334125,0.0252532958984375,-0.2199859619140625,-0.9468536376953125,1,0.62
2020-05-20 00:53:03.315 -0400,1589950382.999754,41.35199860015712,-71.84494436556673,18.80863,0,-1,3.206016972424463,4.852421272448953,-9999,16098.532226125,0.0814971923828125,-0.2239532470703125,-0.977813720703125,1,0.62
2020-05-20 00:53:03.371 -0400,1589950382.999754,41.35199860015712,-71.84494436556673,18.80863,0,-1,3.206016972424463,4.852421272448953,-9999,16098.582120125,0.0523834228515625,-0.229888916015625,-0.9929962158203125,1,0.62
2020-05-20 00:53:03.414 -0400,1589950382.999754,41.35199860015712,-71.84494436556673,18.80863,0,-1,3.206016972424463,4.852421272448953,-9999,16098.632014125,0.043365478515625,-0.2032928466796875,-0.9984283447265625,1,0.62
2020-05-20 00:53:03.464 -0400,1589950382.999754,41.35199860015712,-71.84494436556673,18.80863,0,-1,3.206016972424463,4.852421272448953,-9999,16098.681912,0.0313262939453125,-0.2081146240234375,-0.988006591796875,1,0.62
2020-05-20 00:53:03.514 -0400,1589950382.999754,41.35199860015712,-71.84494436556673,18.80863,0,-1,3.206016972424463,4.852421272448953,-9999,16098.731808,0.0430908203125,-0.23162841796875,-0.976959228515625,1,0.62
2020-05-20 00:53:03.564 -0400,1589950382.999754,41.35199860015712,-71.84494436556673,18.80863,0,-1,3.206016972424463,4.852421272448953,-9999,16098.781704,0.05462646484375,-0.2334136962890625,-0.9571685791015625,1,0.62
2020-05-20 00:53:03.614 -0400,1589950382.999754,41.35199860015712,-71.84494436556673,18.80863,0,-1,3.206016972424463,4.852421272448953,-9999,16098.8316,0.0666046142578125,-0.2523651123046875,-0.9851226806640625,1,0.62
