loggingTime(txt),locationTimestamp_since1970(s),locationLatitude(WGS84),locationLongitude(WGS84),locationAltitude(m),locationSpeed(m/s),locationCourse(°),locationVerticalAccuracy(m),locationHorizontalAccuracy(m),locationFloor(Z),accelerometerTimestamp_sinceReboot(s),accelerometerAccelerationX(G),accelerometerAccelerationY(G),accelerometerAccelerationZ(G),batteryState,batteryLevel
2020-05-20 00:53:35.417 -0400,1589950414.999808,41.35201675903023,-71.84494443781755,13.51114,1.01302,-1,3.428335973146387,4.697983555528825,-9999,16118.48885441667,-0.1128387451171875,-0.3659210205078125,-0.9281768798828125,1,0.62
2020-05-20 00:53:35.465 -0400,1589950414.999808,41.35201675903023,-71.84494443781755,13.51114,1.01302,-1,3.428335973146387,4.697983555528825,-9999,16118.53874341667,-0.1135406494140625,-0.3697662353515625,-0.91558837890625,1,0.62
2020-05-20 00:53:35.515 -0400,1589950414.999808,41.35201675903023,-71.84494443781755,13.51114,1.01302,-1,3.428335973146387,4.697983555528825,-9999,16118.58863341667,-0.1142730712890625,-0.371978759765625,-0.9128875732421875,1,0.62
2020-05-20 00:53:35.565 -0400,1589950414.999808,41.35201675903023,-71.84494443781755,13.51114,1.01302,-1,3.428335973146387,4.697983555528825,-9999,16118.63852441667,-0.1161956787109375,-0.3796844482421875,-0.911407470703125,1,0.62
2020-05-20 00:53:35.615 -0400,1589950414.999808,41.35201675903023,-71.84494443781755,13.51114,1.01302,-1,3.428335973146387,4.697983555528825,-9999,16118.688414875,-0.1158447265625,-0.379547119140625,-0.917144775390625,1,0.62
2020-05-20 00:53:35.665 -0400,1589950414.999808,41.35201675903023,-71.84494443781755,13.51114,1.01302,-1,3.428335973146387,4.697983555528825,-9999,16118.738303875,-0.1061553955078125,-0.38385009765625,-0.90234375,1,0.62
2020-05-20 00:53:35.715 -0400,1589950414.999808,41.35201675903023,-71.84494443781755,13.51114,1.01302,-1,3.428335973146387,4.697983555528825,-9999,16118.788191875,-0.10601806640625,-0.42633056640625,-0.85260009765625,1,0.62
2020-05-20 00:53:35.765 -0400,1589950414.999808,41.35201675903023,-71.84494443781755,13.51114,1.01302,-1,3.428335973146387,4.697983555528825,-9999,16118.838082875,-0.1095733642578125,-0.4199371337890625,-0.7997283935546875,1,0.62
2020-05-20 00:53:35.828 -0400,1589950414.999808,41.35201675903023,-71.84494443781755,13.51114,1.01302,-1,3.428335973146387,4.697983555528825,-9999,16118.887972875,-0.0823974609375,-0.266754150390625,-0.850433349609375,1,0.62
2020-05-20 00:53:35.865 -0400,1589950414.999808,41.35201675903023,-71.84494443781755,13.51114,1.01302,-1,3.428335973146387,4.697983555528825,-9999,16118.937862875,-0.0217742919921875,-0.1108551025390625,-0.9353485107421875,1,0.62
2020-05-20 00:53:35.915 -0400,1589950414.999808,41.35201675903023,-71.84494443781755,13.51114,1.01302,-1,3.428335973146387,4.697983555528825,-9999,16118.987752875,0.0335845947265625,0.1027984619140625,-0.982757568359375,1,0.62
2020-05-20 00:53:35.965 -0400,1589950414.999808,41.35201675903023,-71.84494443781755,13.51114,1.01302,-1,3.428335973146387,4.697983555528825,-9999,16119.037649875,0.0495147705078125,0.3221435546875,-1.059539794921875,1,0.62
2020-05-20 00:53:36.014 -0400,1589950414.999808,41.35201675903023,-71.84494443781755,13.51114,1.01302,-1,3.428335973146387,4.697983555528825,-9999,16119.087544875,0.0572052001953125,0.5088958740234375,-1.01348876953125,1,0.62
2020-05-20 00:53:36.064 -0400,1589950414.999808,41.35201675903023,-71.84494443781755,13.51114,1.01302,-1,3.428335973146387,4.697983555528825,-9999,16119.137438875,0.038360595703125,0.5758209228515625,-0.955657958984375,1,0.62
2020-05-20 00:53:36.114 -0400,1589950414.999808,41.35201675903023,-71.84494443781755,13.51114,1.01302,-1,3.428335973146387,4.697983555528825,-9999,16119.187335875,0.0189056396484375,0.5326385498046875,-0.8837432861328125,1,0.62
2020-05-20 00:53:36.164 -0400,1589950414.999808,41.35201675903023,-71.84494443781755,13.51114,1.01302,-1,3.428335973146387,4.697983555528825,-9999,16119.237228875,0.0189666748046875,0.5746612548828125,-0.8592987060546875,1,0.62
2020-05-20 00:53:36.214 -0400,1589950414.999808,41.35201675903023,-71.84494443781755,13.51114,1.01302,-1,3.428335973146387,4.697983555528825,-9999,16119.287118875,0.018310546875,0.539947509765625,-0.8248748779296875,1,0.62
2020-05-20 00:53:36.264 -0400,1589950415.999809,41.35201683418433,-71.84494439362605,13.79273,0,-1,3.372780269077732,4.738025990780209,-9999,16119.337010875,0.0192108154296875,0.549835205078125,-0.8377532958984375,1,0.62
2020-05-20 00:53:36.314 -0400,1589950415.999809,41.35201683418433,-71.84494439362605,13.79273,0,-1,3.372780269077732,4.738025990780209,-9999,16119.386901875,0.03125,0.5623931884765625,-0.82208251953125,1,0.62
2020-05-20 00:53:36.363 -0400,1589950415.999809,41.35201683418433,-71.84494439362605,13.79273,0,-1,3.372780269077732,4.738025990780209,-9999,16119.436794875,0.0279083251953125,0.58526611328125,-0.8249359130859375,1,0.62
2020-05-20 00:53:36.414 -0400,1589950415.999809,41.35201683418433,-71.84494439362605,13.79273,0,-1,3.372780269077732,4.738025990780209,-9999,16119.486688875,0.03192138671875,0.5750732421875,-0.847076416015625,1,0.62
2020-05-20 00:53:36.463 -0400,1589950415.999809,41.35201683418433,-71.84494439362605,13.79273,0,-1,3.372780269077732,4.738025990780209,-9999,16119.536581875,0.023040771484375,0.5658416748046875,-0.830718994140625,1,0.62
2020-05-20 00:53:36.513 -0400,1589950415.999809,41.35201683418433,-71.84494439362605,13.79273,0,-1,3.372780269077732,4.738025990780209,-9999,16119.586475875,0.012939453125,0.555999755859375,-0.828857421875,1,0.62
2020-05-20 00:53:36.563 -0400,1589950415.999809,41.35201683418433,-71.84494439362605,13.79273,0,-1,3.372780269077732,4.738025990780209,-9999,16119.636367875,0.0211181640625,0.5640716552734375,-0.8240509033203125,1,0.62
2020-05-20 00:53:36.613 -0400,1589950415.999809,41.35201683418433,-71.84494439362605,13.79273,0,-1,3.372780269077732,4.738025990780209,-9999,16119.686258875,0.025665283203125,0.5671234130859375,-0.820953369140625,1,0.62
2020-05-20 00:53:36.663 -0400,1589950415.999809,41.35201683418433,-71.84494439362605,13.79273,0,-1,3.372780269077732,4.738025990780209,-9999,16119.736149125,0.032989501953125,0.577362060546875,-0.81768798828125,1,0.62
2020-05-20 00:53:36.713 -0400,1589950415.999809,41.35201683418433,-71.84494439362605,13.79273,0,-1,3.372780269077732,4.738025990780209,-9999,16119.786038125,0.03802490234375,0.5885772705078125,-0.8254241943359375,1,0.62
2020-05-20 00:53:36.763 -0400,1589950415.999809,41.35201683418433,-71.84494439362605,13.79273,0,-1,3.372780269077732,4.738025990780209,-9999,16119.835927125,0.03973388671875,0.581024169921875,-0.8254241943359375,1,0.62
2020-05-20 00:53:36.813 -0400,1589950415.999809,41.35201683418433,-71.84494439362605,13.79273,0,-1,3.372780269077732,4.738025990780209,-9999,16119.885819125,0.0315399169921875,0.587890625,-0.8262939453125,1,0.62
2020-05-20 00:53:36.863 -0400,1589950415.999809,41.35201683418433,-71.84494439362605,13.79273,0,-1,3.372780269077732,4.738025990780209,-9999,16119.935710125,0.027252197265625,0.54852294921875,-0.8326568603515625,1,0.62
2020-05-20 00:53:36.912 -0400,1589950415.999809,41.35201683418433,-71.84494439362605,13.79273,0,-1,3.372780269077732,4.738025990780209,-9999,16119.985597125,0.0282135009765625,0.4964752197265625,-0.8551788330078125,1,0.62
2020-05-20 00:53:36.962 -0400,1589950415.999809,41.35201683418433,-71.84494439362605,13.79273,0,-1,3.372780269077732,4.738025990780209,-9999,16120.035487125,0.04150390625,0.4893951416015625,-0.855712890625,1,0.62
2020-05-20 00:53:37.012 -0400,1589950415.999809,41.35201683418433,-71.84494439362605,13.79273,0,-1,3.372780269077732,4.738025990780209,-9999,16120.085377125,0.0413970947265625,0.5392913818359375,-0.8559112548828125,1,0.62
2020-05-20 00:53:37.062 -0400,1589950415.999809,41.35201683418433,-71.84494439362605,13.79273,0,-1,3.372780269077732,4.738025990780209,-9999,16120.135268125,0.024658203125,0.595916748046875,-0.825408935546875,1,0.62
2020-05-20 00:53:37.112 -0400,1589950415.999809,41.35201683418433,-71.84494439362605,13.79273,0,-1,3.372780269077732,4.738025990780209,-9999,16120.185158125,0.003753662109375,0.6288604736328125,-0.7904510498046875,1,0.62
2020-05-20 00:53:37.162 -0400,1589950415.999809,41.35201683418433,-71.84494439362605,13.79273,0,-1,3.372780269077732,4.738025990780209,-9999,16120.235051125,-0.005218505859375,0.73736572265625,-0.740753173828125,1,0.62
2020-05-20 00:53:37.211 -0400,1589950415.999809,41.35201683418433,-71.84494439362605,13.79273,0,-1,3.372780269077732,4.738025990780209,-9999,16120.284945125,-0.0323486328125,0.742706298828125,-0.681854248046875,1,0.62
2020-05-20 00:53:37.261 -0400,1589950416.999811,41.35201683418433,-71.84494439362605,13.79273,0,-1,3.338311167860402,4.762374993564383,-9999,16120.334841125,-0.0322723388671875,0.6350860595703125,-0.7419281005859375,1,0.62
2020-05-20 00:53:37.311 -0400,1589950416.999811,41.35201683418433,-71.84494439362605,13.79273,0,-1,3.338311167860402,4.762374993564383,-9999,16120.384732125,-0.0033416748046875,0.5498046875,-0.7833251953125,1,0.62
2020-05-20 00:53:37.361 -0400,1589950416.999811,41.35201683418433,-71.84494439362605,13.79273,0,-1,3.338311167860402,4.762374993564383,-9999,16120.434626125,0.0083770751953125,0.6134490966796875,-0.7886962890625,1,0.62
2020-05-20 00:53:37.411 -0400,1589950416.999811,41.35201683418433,-71.84494439362605,13.79273,0,-1,3.338311167860402,4.762374993564383,-9999,16120.484520125,-0.0064239501953125,0.6656036376953125,-0.757568359375,1,0.62
2020-05-20 00:53:37.461 -0400,1589950416.999811,41.35201683418433,-71.84494439362605,13.79273,0,-1,3.338311167860402,4.762374993564383,-9999,16120.534416125,-0.03546142578125,0.68341064453125,-0.7319793701171875,1,0.62
2020-05-20 00:53:37.511 -0400,1589950416.999811,41.35201683418433,-71.84494439362605,13.79273,0,-1,3.338311167860402,4.762374993564383,-9999,16120.584312125,-0.0482940673828125,0.6764068603515625,-0.713226318359375,1,0.62
2020-05-20 00:53:37.561 -0400,1589950416.999811,41.35201683418433,-71.84494439362605,13.79273,0,-1,3.338311167860402,4.762374993564383,-9999,16120.634207125,-0.06256103515625,0.6706390380859375,-0.703094482421875,1,0.62
2020-05-20 00:53:37.611 -0400,1589950416.999811,41.35201683418433,-71.84494439362605,13.79273,0,-1,3.338311167860402,4.762374993564383,-9999,16120.684103125,-0.025390625,0.6699676513671875,-0.721343994140625,1,0.62
2020-05-20 00:53:37.661 -0400,1589950416.999811,41.35201683418433,-71.84494439362605,13.79273,0,-1,3.338311167860402,4.762374993564383,-9999,16120.733996125,-0.0232696533203125,0.705596923828125,-0.6760101318359375,1,0.62
2020-05-20 00:53:37.711 -0400,1589950416.999811,41.35201683418433,-71.84494439362605,13.79273,0,-1,3.338311167860402,4.762374993564383,-9999,16120.783888125,-0.055816650390625,0.7190704345703125,-0.6900787353515625,1,0.62
2020-05-20 00:53:37.760 -0400,1589950416.999811,41.35201683418433,-71.84494439362605,13.79273,0,-1,3.338311167860402,4.762374993564383,-9999,16120.833778125,-0.068817138671875,0.724273681640625,-0.646453857421875,1,0.62
2020-05-20 00:53:37.810 -0400,1589950416.999811,41.35201683418433,-71.84494439362605,13.79273,0,-1,3.338311167860402,4.762374993564383,-9999,16120.883667125,-0.10296630859375,0.724578857421875,-0.662139892578125,1,0.62
2020-05-20 00:53:37.861 -0400,1589950416.999811,41.35201683418433,-71.84494439362605,13.79273,0,-1,3.338311167860402,4.762374993564383,-9999,16120.933556125,-0.0448760986328125,0.705047607421875,-0.6744384765625,1,0.62
2020-05-20 00:53:37.910 -0400,1589950416.999811,41.35201683418433,-71.84494439362605,13.79273,0,-1,3.338311167860402,4.762374993564383,-9999,16120.983448125,-0.0180511474609375,0.7064208984375,-0.667022705078125,1,0.62
2020-05-20 00:53:37.960 -0400,1589950416.999811,41.35201683418433,-71.84494439362605,13.79273,0,-1,3.338311167860402,4.762374993564383,-9999,16121.033339125,-0.0017547607421875,0.73095703125,-0.62274169921875,1,0.62
2020-05-20 00:53:38.010 -0400,1589950416.999811,41.35201683418433,-71.84494439362605,13.79273,0,-1,3.338311167860402,4.762374993564383,-9999,16121.083229125,0.0444183349609375,0.7635650634765625,-0.6248016357421875,1,0.62
2020-05-20 00:53:38.060 -0400,1589950416.999811,41.35201683418433,-71.84494439362605,13.79273,0,-1,3.338311167860402,4.762374993564383,-9999,16121.133119125,0.08935546875,0.8223419189453125,-0.68829345703125,1,0.62
2020-05-20 00:53:38.110 -0400,1589950416.999811,41.35201683418433,-71.84494439362605,13.79273,0,-1,3.338311167860402,4.762374993564383,-9999,16121.183009125,0.101470947265625,0.827484130859375,-0.6704254150390625,1,0.62
2020-05-20 00:53:38.160 -0400,1589950416.999811,41.35201683418433,-71.84494439362605,13.79273,0,-1,3.338311167860402,4.762374993564383,-9999,16121.232898125,0.07135009765625,0.7694854736328125,-0.581268310546875,1,0.62
2020-05-20 00:53:38.210 -0400,1589950416.999811,41.35201683418433,-71.84494439362605,13.79273,0,-1,3.338311167860402,4.762374993564383,-9999,16121.282786125,0.0540771484375,0.8315887451171875,-0.5233917236328125,1,0.62
2020-05-20 00:53:38.259 -0400,1589950416.999811,41.35201683418433,-71.84494439362605,13.79273,0,-1,3.338311167860402,4.762374993564383,-9999,16121.332677125,0.074310302734375,0.9063568115234375,-0.4722900390625,1,0.62
2020-05-20 00:53:38.310 -0400,1589950417.999813,41.35201190452212,-71.84494198548333,13.84315,1.064154,-1,3.302399183380305,4.787347560643361,-9999,16121.382566125,0.094696044921875,0.940277099609375,-0.439453125,1,0.62
2020-05-20 00:53:38.368 -0400,1589950417.999813,41.35201190452212,-71.84494198548333,13.84315,1.064154,-1,3.302399183380305,4.787347560643361,-9999,16121.432457125,0.08184814453125,0.95361328125,-0.4239654541015625,1,0.62
2020-05-20 00:53:38.409 -0400,1589950417.999813,41.35201190452212,-71.84494198548333,13.84315,1.064154,-1,3.302399183380305,4.787347560643361,-9999,16121.482348125,0.07421875,0.96942138671875,-0.383148193359375,1,0.62
2020-05-20 00:53:38.459 -0400,1589950417.999813,41.35201190452212,-71.84494198548333,13.84315,1.064154,-1,3.302399183380305,4.787347560643361,-9999,16121.532235125,0.0876312255859375,0.940521240234375,-0.4048309326171875,1,0.62
2020-05-20 00:53:38.509 -0400,1589950417.999813,41.35201190452212,-71.84494198548333,13.84315,1.064154,-1,3.302399183380305,4.787347560643361,-9999,16121.582126125,0.0804901123046875,0.907989501953125,-0.4157257080078125,1,0.62
2020-05-20 00:53:38.559 -0400,1589950417.999813,41.35201190452212,-71.84494198548333,13.84315,1.064154,-1,3.302399183380305,4.787347560643361,-9999,16121.632017125,0.072113037109375,0.87896728515625,-0.414886474609375,1,0.62
2020-05-20 00:53:38.609 -0400,1589950417.999813,41.35201190452212,-71.84494198548333,13.84315,1.064154,-1,3.302399183380305,4.787347560643361,-9999,16121.681903125,0.070556640625,0.9034271240234375,-0.4228057861328125,1,0.62
2020-05-20 00:53:38.659 -0400,1589950417.999813,41.35201190452212,-71.84494198548333,13.84315,1.064154,-1,3.302399183380305,4.787347560643361,-9999,16121.73179125,0.09197998046875,0.920806884765625,-0.41302490234375,1,0.62
2020-05-20 00:53:38.708 -0400,1589950417.999813,41.35201190452212,-71.84494198548333,13.84315,1.064154,-1,3.302399183380305,4.787347560643361,-9999,16121.78167925,0.1153564453125,0.89849853515625,-0.394378662109375,1,0.62
2020-05-20 00:53:38.758 -0400,1589950417.999813,41.35201190452212,-71.84494198548333,13.84315,1.064154,-1,3.302399183380305,4.787347560643361,-9999,16121.83156725,0.0808868408203125,0.91815185546875,-0.390045166015625,1,0.62
2020-05-20 00:53:38.808 -0400,1589950417.999813,41.35201190452212,-71.84494198548333,13.84315,1.064154,-1,3.302399183380305,4.787347560643361,-9999,16121.88145625,0.1097412109375,0.899658203125,-0.404937744140625,1,0.62
2020-05-20 00:53:38.858 -0400,1589950417.999813,41.35201190452212,-71.84494198548333,13.84315,1.064154,-1,3.302399183380305,4.787347560643361,-9999,16121.93134325,0.09478759765625,0.907073974609375,-0.399383544921875,1,0.62
2020-05-20 00:53:38.908 -0400,1589950417.999813,41.35201190452212,-71.84494198548333,13.84315,1.064154,-1,3.302399183380305,4.787347560643361,-9999,16121.98122925,0.139617919921875,0.9096527099609375,-0.4141845703125,1,0.62
2020-05-20 00:53:38.958 -0400,1589950417.999813,41.35201190452212,-71.84494198548333,13.84315,1.064154,-1,3.302399183380305,4.787347560643361,-9999,16122.03111525,0.1534271240234375,0.954376220703125,-0.40679931640625,1,0.62
2020-05-20 00:53:39.008 -0400,1589950417.999813,41.35201190452212,-71.84494198548333,13.84315,1.064154,-1,3.302399183380305,4.787347560643361,-9999,16122.08100025,0.146942138671875,0.9668731689453125,-0.3578948974609375,1,0.62
2020-05-20 00:53:39.058 -0400,1589950417.999813,41.35201190452212,-71.84494198548333,13.84315,1.064154,-1,3.302399183380305,4.787347560643361,-9999,16122.13088925,0.1579742431640625,0.8953857421875,-0.3829498291015625,1,0.62
2020-05-20 00:53:39.108 -0400,1589950417.999813,41.35201190452212,-71.84494198548333,13.84315,1.064154,-1,3.302399183380305,4.787347560643361,-9999,16122.18078225,0.16357421875,0.89849853515625,-0.4397430419921875,1,0.62
2020-05-20 00:53:39.157 -0400,1589950417.999813,41.35201190452212,-71.84494198548333,13.84315,1.064154,-1,3.302399183380305,4.787347560643361,-9999,16122.23067125,0.1215667724609375,0.9244842529296875,-0.4089508056640625,1,0.62
2020-05-20 00:53:39.207 -0400,1589950417.999813,41.35201190452212,-71.84494198548333,13.84315,1.064154,-1,3.302399183380305,4.787347560643361,-9999,16122.28055925,0.055328369140625,0.9269561767578125,-0.36474609375,1,0.62
2020-05-20 00:53:39.257 -0400,1589950417.999813,41.35201190452212,-71.84494198548333,13.84315,1.064154,-1,3.302399183380305,4.787347560643361,-9999,16122.33044825,0.0095367431640625,0.920745849609375,-0.3482818603515625,1,0.62
2020-05-20 00:53:39.315 -0400,1589950417.999813,41.35201190452212,-71.84494198548333,13.84315,1.064154,-1,3.302399183380305,4.787347560643361,-9999,16122.38033725,-0.083648681640625,0.9107666015625,-0.3448028564453125,1,0.62
2020-05-20 00:53:39.357 -0400,1589950418.999814,41.35200449711822,-71.84492968561094,13.25013,1.007527,-1,3.359025821345876,4.747787122894254,-9999,16122.43022725,-0.038330078125,0.893646240234375,-0.4559478759765625,1,0.62
2020-05-20 00:53:39.407 -0400,1589950418.999814,41.35200449711822,-71.84492968561094,13.25013,1.007527,-1,3.359025821345876,4.747787122894254,-9999,16122.48011625,0.0558319091796875,0.8103790283203125,-0.466217041015625,1,0.62
2020-05-20 00:53:39.457 -0400,1589950418.999814,41.35200449711822,-71.84492968561094,13.25013,1.007527,-1,3.359025821345876,4.747787122894254,-9999,16122.53000425,0.1438751220703125,0.859619140625,-0.52099609375,1,0.62
2020-05-20 00:53:39.507 -0400,1589950418.999814,41.35200449711822,-71.84492968561094,13.25013,1.007527,-1,3.359025821345876,4.747787122894254,-9999,16122.57988925,0.1612396240234375,0.8110198974609375,-0.4865875244140625,1,0.62
2020-05-20 00:53:39.556 -0400,1589950418.999814,41.35200449711822,-71.84492968561094,13.25013,1.007527,-1,3.359025821345876,4.747787122894254,-9999,16122.62977525,0.2772216796875,0.801025390625,-0.5524139404296875,1,0.62
2020-05-20 00:53:39.606 -0400,1589950418.999814,41.35200449711822,-71.84492968561094,13.25013,1.007527,-1,3.359025821345876,4.747787122894254,-9999,16122.67966125,0.4685211181640625,0.8950653076171875,-0.748077392578125,1,0.62
2020-05-20 00:53:39.656 -0400,1589950418.999814,41.35200449711822,-71.84492968561094,13.25013,1.007527,-1,3.359025821345876,4.747787122894254,-9999,16122.72955004167,0.421600341796875,0.6122283935546875,-0.6259918212890625,1,0.62
2020-05-20 00:53:39.706 -0400,1589950418.999814,41.35200449711822,-71.84492968561094,13.25013,1.007527,-1,3.359025821345876,4.747787122894254,-9999,16122.77943904167,0.2244415283203125,0.7021942138671875,-0.6116180419921875,1,0.62
2020-05-20 00:53:39.756 -0400,1589950418.999814,41.35200449711822,-71.84492968561094,13.25013,1.007527,-1,3.359025821345876,4.747787122894254,-9999,16122.82932704167,0.1633758544921875,0.813568115234375,-0.6111602783203125,1,0.62
2020-05-20 00:53:39.806 -0400,1589950418.999814,41.35200449711822,-71.84492968561094,13.25013,1.007527,-1,3.359025821345876,4.747787122894254,-9999,16122.87921704167,0.0771484375,0.7746124267578125,-0.6212615966796875,1,0.62
2020-05-20 00:53:39.856 -0400,1589950418.999814,41.35200449711822,-71.84492968561094,13.25013,1.007527,-1,3.359025821345876,4.747787122894254,-9999,16122.92910704167,0.180877685546875,0.7526397705078125,-0.667236328125,1,0.62
2020-05-20 00:53:39.906 -0400,1589950418.999814,41.35200449711822,-71.84492968561094,13.25013,1.007527,-1,3.359025821345876,4.747787122894254,-9999,16122.97899604167,0.246185302734375,0.709716796875,-0.7084503173828125,1,0.62
2020-05-20 00:53:39.956 -0400,1589950418.999814,41.35200449711822,-71.84492968561094,13.25013,1.007527,-1,3.359025821345876,4.747787122894254,-9999,16123.02888904167,0.2479400634765625,0.680572509765625,-0.6984100341796875,1,0.62
2020-05-20 00:53:40.006 -0400,1589950418.999814,41.35200449711822,-71.84492968561094,13.25013,1.007527,-1,3.359025821345876,4.747787122894254,-9999,16123.07878304167,0.2730865478515625,0.7418060302734375,-0.65972900390625,1,0.62
2020-05-20 00:53:40.056 -0400,1589950418.999814,41.35200449711822,-71.84492968561094,13.25013,1.007527,-1,3.359025821345876,4.747787122894254,-9999,16123.12867604167,0.3380126953125,0.6600494384765625,-0.5900115966796875,1,0.62
2020-05-20 00:53:40.105 -0400,1589950418.999814,41.35200449711822,-71.84492968561094,13.25013,1.007527,-1,3.359025821345876,4.747787122894254,-9999,16123.17856704167,0.1935882568359375,0.6429595947265625,-0.764404296875,1,0.62
2020-05-20 00:53:40.155 -0400,1589950418.999814,41.35200449711822,-71.84492968561094,13.25013,1.007527,-1,3.359025821345876,4.747787122894254,-9999,16123.22845604167,0.17095947265625,0.6030731201171875,-0.78564453125,1,0.62
2020-05-20 00:53:40.205 -0400,1589950418.999814,41.35200449711822,-71.84492968561094,13.25013,1.007527,-1,3.359025821345876,4.747787122894254,-9999,16123.27834504167,0.18231201171875,0.7047576904296875,-0.7018585205078125,1,0.62
2020-05-20 00:53:40.255 -0400,1589950418.999814,41.35200449711822,-71.84492968561094,13.25013,1.007527,-1,3.359025821345876,4.747787122894254,-9999,16123.32823404167,0.148773193359375,0.73175048828125,-0.68682861328125,1,0.62
2020-05-20 00:53:40.305 -0400,1589950419.99982,41.35200531323361,-71.84494038170016,13.24772,1.114578,-1,3.450091309920222,4.682030220534871,-9999,16123.37812504167,0.178802490234375,0.6945648193359375,-0.7078094482421875,1,0.62
2020-05-20 00:53:40.355 -0400,1589950419.99982,41.35200531323361,-71.84494038170016,13.24772,1.114578,-1,3.450091309920222,4.682030220534871,-9999,16123.42801504167,0.173736572265625,0.6923370361328125,-0.6962738037109375,1,0.62
2020-05-20 00:53:40.404 -0400,1589950419.99982,41.35200531323361,-71.84494038170016,13.24772,1.114578,-1,3.450091309920222,4.682030220534871,-9999,16123.47790504167,0.154144287109375,0.6730499267578125,-0.717681884765625,1,0.62
2020-05-20 00:53:40.455 -0400,1589950419.99982,41.35200531323361,-71.84494038170016,13.24772,1.114578,-1,3.450091309920222,4.682030220534871,-9999,16123.52779504167,0.1706695556640625,0.6785125732421875,-0.705078125,1,0.62
2020-05-20 00:53:40.504 -0400,1589950419.99982,41.35200531323361,-71.84494038170016,13.24772,1.114578,-1,3.450091309920222,4.682030220534871,-9999,16123.57768404167,0.1554718017578125,0.6854095458984375,-0.713592529296875,1,0.62
2020-05-20 00:53:40.554 -0400,1589950419.99982,41.35200531323361,-71.84494038170016,13.24772,1.114578,-1,3.450091309920222,4.682030220534871,-9999,16123.62757304167,0.1669769287109375,0.687774658203125,-0.7122650146484375,1,0.62
2020-05-20 00:53:40.604 -0400,1589950419.99982,41.35200531323361,-71.84494038170016,13.24772,1.114578,-1,3.450091309920222,4.682030220534871,-9999,16123.67746204167,0.1732177734375,0.68280029296875,-0.712249755859375,1,0.62
2020-05-20 00:53:40.654 -0400,1589950419.99982,41.35200531323361,-71.84494038170016,13.24772,1.114578,-1,3.450091309920222,4.682030220534871,-9999,16123.727349625,0.1766510009765625,0.67852783203125,-0.715576171875,1,0.62
2020-05-20 00:53:40.704 -0400,1589950419.99982,41.35200531323361,-71.84494038170016,13.24772,1.114578,-1,3.450091309920222,4.682030220534871,-9999,16123.777237625,0.1761322021484375,0.6798858642578125,-0.716644287109375,1,0.62
2020-05-20 00:53:40.754 -0400,1589950419.99982,41.35200531323361,-71.84494038170016,13.24772,1.114578,-1,3.450091309920222,4.682030220534871,-9999,16123.827126625,0.17230224609375,0.682830810546875,-0.7137603759765625,1,0.62
2020-05-20 00:53:40.804 -0400,1589950419.99982,41.35200531323361,-71.84494038170016,13.24772,1.114578,-1,3.450091309920222,4.682030220534871,-9999,16123.877014625,0.168121337890625,0.684539794921875,-0.714874267578125,1,0.62
2020-05-20 00:53:40.854 -0400,1589950419.99982,41.35200531323361,-71.84494038170016,13.24772,1.114578,-1,3.450091309920222,4.682030220534871,-9999,16123.926902625,0.1673583984375,0.6826629638671875,-0.714263916015625,1,0.62
2020-05-20 00:53:40.904 -0400,1589950419.99982,41.35200531323361,-71.84494038170016,13.24772,1.114578,-1,3.450091309920222,4.682030220534871,-9999,16123.976790625,0.168426513671875,0.68475341796875,-0.7133636474609375,1,0.62
2020-05-20 00:53:40.953 -0400,1589950419.99982,41.35200531323361,-71.84494038170016,13.24772,1.114578,-1,3.450091309920222,4.682030220534871,-9999,16124.026679625,0.1750335693359375,0.6820068359375,-0.712982177734375,1,0.62
2020-05-20 00:53:41.003 -0400,1589950419.99982,41.35200531323361,-71.84494038170016,13.24772,1.114578,-1,3.450091309920222,4.682030220534871,-9999,16124.076567625,0.1737060546875,0.6822052001953125,-0.7127227783203125,1,0.62
2020-05-20 00:53:41.053 -0400,1589950419.99982,41.35200531323361,-71.84494038170016,13.24772,1.114578,-1,3.450091309920222,4.682030220534871,-9999,16124.126456625,0.177520751953125,0.6798095703125,-0.7145843505859375,1,0.62
2020-05-20 00:53:41.103 -0400,1589950419.99982,41.35200531323361,-71.84494038170016,13.24772,1.114578,-1,3.450091309920222,4.682030220534871,-9999,16124.176347625,0.17413330078125,0.68023681640625,-0.714141845703125,1,0.62
2020-05-20 00:53:41.153 -0400,1589950419.99982,41.35200531323361,-71.84494038170016,13.24772,1.114578,-1,3.450091309920222,4.682030220534871,-9999,16124.226237625,0.171051025390625,0.6823272705078125,-0.7129669189453125,1,0.62
2020-05-20 00:53:41.203 -0400,1589950419.99982,41.35200531323361,-71.84494038170016,13.24772,1.114578,-1,3.450091309920222,4.682030220534871,-9999,16124.276126625,0.1750030517578125,0.6807098388671875,-0.7144927978515625,1,0.62
2020-05-20 00:53:41.253 -0400,1589950419.99982,41.35200531323361,-71.84494038170016,13.24772,1.114578,-1,3.450091309920222,4.682030220534871,-9999,16124.326014625,0.1725616455078125,0.680450439453125,-0.7161102294921875,1,0.62
2020-05-20 00:53:41.303 -0400,1589950420.999821,41.35200485325564,-71.84493963864942,13.39866,0,-1,3.572762084223079,4.589107551836936,-9999,16124.375903625,0.1726531982421875,0.684478759765625,-0.7133331298828125,1,0.62
2020-05-20 00:53:41.352 -0400,1589950420.999821,41.35200485325564,-71.84493963864942,13.39866,0,-1,3.572762084223079,4.589107551836936,-9999,16124.425791625,0.17376708984375,0.6825714111328125,-0.713958740234375,1,0.62
2020-05-20 00:53:41.403 -0400,1589950420.999821,41.35200485325564,-71.84493963864942,13.39866,0,-1,3.572762084223079,4.589107551836936,-9999,16124.475680625,0.1742401123046875,0.6839752197265625,-0.7108612060546875,1,0.62
2020-05-20 00:53:41.452 -0400,1589950420.999821,41.35200485325564,-71.84493963864942,13.39866,0,-1,3.572762084223079,4.589107551836936,-9999,16124.525568625,0.170440673828125,0.68304443359375,-0.713134765625,1,0.62
2020-05-20 00:53:41.502 -0400,1589950420.999821,41.35200485325564,-71.84493963864942,13.39866,0,-1,3.572762084223079,4.589107551836936,-9999,16124.575458625,0.17120361328125,0.68377685546875,-0.7143096923828125,1,0.62
2020-05-20 00:53:41.552 -0400,1589950420.999821,41.35200485325564,-71.84493963864942,13.39866,0,-1,3.572762084223079,4.589107551836936,-9999,16124.625348625,0.1695098876953125,0.686614990234375,-0.7104034423828125,1,0.62
2020-05-20 00:53:41.602 -0400,1589950420.999821,41.35200485325564,-71.84493963864942,13.39866,0,-1,3.572762084223079,4.589107551836936,-9999,16124.675237625,0.1748199462890625,0.6869049072265625,-0.7134552001953125,1,0.62
2020-05-20 00:53:41.652 -0400,1589950420.999821,41.35200485325564,-71.84493963864942,13.39866,0,-1,3.572762084223079,4.589107551836936,-9999,16124.7251285,0.1788177490234375,0.682891845703125,-0.7142181396484375,1,0.62
2020-05-20 00:53:41.702 -0400,1589950420.999821,41.35200485325564,-71.84493963864942,13.39866,0,-1,3.572762084223079,4.589107551836936,-9999,16124.7750205,0.1745452880859375,0.68359375,-0.7130889892578125,1,0.62
2020-05-20 00:53:41.752 -0400,1589950420.999821,41.35200485325564,-71.84493963864942,13.39866,0,-1,3.572762084223079,4.589107551836936,-9999,16124.8249105,0.1708221435546875,0.6840057373046875,-0.7118988037109375,1,0.62
2020-05-20 00:53:41.801 -0400,1589950420.999821,41.35200485325564,-71.84493963864942,13.39866,0,-1,3.572762084223079,4.589107551836936,-9999,16124.8748005,0.1709136962890625,0.683135986328125,-0.71142578125,1,0.62
2020-05-20 00:53:41.851 -0400,1589950420.999821,41.35200485325564,-71.84493963864942,13.39866,0,-1,3.572762084223079,4.589107551836936,-9999,16124.9246915,0.173828125,0.6836700439453125,-0.712005615234375,1,0.62
2020-05-20 00:53:41.901 -0400,1589950420.999821,41.35200485325564,-71.84493963864942,13.39866,0,-1,3.572762084223079,4.589107551836936,-9999,16124.9745825,0.17510986328125,0.6786956787109375,-0.7142486572265625,1,0.62
2020-05-20 00:53:41.951 -0400,1589950420.999821,41.35200485325564,-71.84493963864942,13.39866,0,-1,3.572762084223079,4.589107551836936,-9999,16125.0244745,0.176971435546875,0.6806182861328125,-0.711639404296875,1,0.62
2020-05-20 00:53:42.001 -0400,1589950420.999821,41.35200485325564,-71.84493963864942,13.39866,0,-1,3.572762084223079,4.589107551836936,-9999,16125.0743645,0.1738128662109375,0.6822509765625,-0.712860107421875,1,0.62
2020-05-20 00:53:42.051 -0400,1589950420.999821,41.35200485325564,-71.84493963864942,13.39866,0,-1,3.572762084223079,4.589107551836936,-9999,16125.1242555,0.1740875244140625,0.682830810546875,-0.7118682861328125,1,0.62
2020-05-20 00:53:42.101 -0400,1589950420.999821,41.35200485325564,-71.84493963864942,13.39866,0,-1,3.572762084223079,4.589107551836936,-9999,16125.1741465,0.1719207763671875,0.684478759765625,-0.711395263671875,1,0.62
2020-05-20 00:53:42.151 -0400,1589950420.999821,41.35200485325564,-71.84493963864942,13.39866,0,-1,3.572762084223079,4.589107551836936,-9999,16125.2240375,0.1737060546875,0.6851348876953125,-0.7121429443359375,1,0.62
2020-05-20 00:53:42.201 -0400,1589950420.999821,41.35200485325564,-71.84493963864942,13.39866,0,-1,3.572762084223079,4.589107551836936,-9999,16125.2739295,0.1738128662109375,0.6840667724609375,-0.7100982666015625,1,0.62
2020-05-20 00:53:42.250 -0400,1589950420.999821,41.35200485325564,-71.84493963864942,13.39866,0,-1,3.572762084223079,4.589107551836936,-9999,16125.3238205,0.176666259765625,0.682861328125,-0.7168121337890625,1,0.62
2020-05-20 00:53:42.300 -0400,1589950420.999821,41.35200485325564,-71.84493963864942,13.39866,0,-1,3.572762084223079,4.589107551836936,-9999,16125.3737115,0.172698974609375,0.6856231689453125,-0.7128448486328125,1,0.62
2020-05-20 00:53:42.350 -0400,1589950421.999821,41.35200485325564,-71.84493963864942,13.39866,0,-1,3.559867826421174,4.599117099096327,-9999,16125.4236055,0.16943359375,0.6834869384765625,-0.7110748291015625,1,0.62
2020-05-20 00:53:42.400 -0400,1589950421.999821,41.35200485325564,-71.84493963864942,13.39866,0,-1,3.559867826421174,4.599117099096327,-9999,16125.4734985,0.174346923828125,0.684326171875,-0.713043212890625,1,0.62
2020-05-20 00:53:42.450 -0400,1589950421.999821,41.35200485325564,-71.84493963864942,13.39866,0,-1,3.559867826421174,4.599117099096327,-9999,16125.5233905,0.1756744384765625,0.686279296875,-0.7078704833984375,1,0.62
2020-05-20 00:53:42.500 -0400,1589950421.999821,41.35200485325564,-71.84493963864942,13.39866,0,-1,3.559867826421174,4.599117099096327,-9999,16125.5732835,0.1736602783203125,0.6808929443359375,-0.714111328125,1,0.62
2020-05-20 00:53:42.550 -0400,1589950421.999821,41.35200485325564,-71.84493963864942,13.39866,0,-1,3.559867826421174,4.599117099096327,-9999,16125.6231765,0.17218017578125,0.679779052734375,-0.714019775390625,1,0.62
2020-05-20 00:53:42.600 -0400,1589950421.999821,41.35200485325564,-71.84493963864942,13.39866,0,-1,3.559867826421174,4.599117099096327,-9999,16125.6730675,0.1723175048828125,0.68353271484375,-0.7090301513671875,1,0.62
2020-05-20 00:53:42.650 -0400,1589950421.999821,41.35200485325564,-71.84493963864942,13.39866,0,-1,3.559867826421174,4.599117099096327,-9999,16125.72295875,0.1704864501953125,0.6832427978515625,-0.7122802734375,1,0.62
2020-05-20 00:53:42.700 -0400,1589950421.999821,41.35200485325564,-71.84493963864942,13.39866,0,-1,3.559867826421174,4.599117099096327,-9999,16125.77284775,0.1735076904296875,0.681549072265625,-0.714569091796875,1,0.62
2020-05-20 00:53:42.749 -0400,1589950421.999821,41.35200485325564,-71.84493963864942,13.39866,0,-1,3.559867826421174,4.599117099096327,-9999,16125.82273675,0.174896240234375,0.6849212646484375,-0.7119598388671875,1,0.62
2020-05-20 00:53:42.799 -0400,1589950421.999821,41.35200485325564,-71.84493963864942,13.39866,0,-1,3.559867826421174,4.599117099096327,-9999,16125.87262575,0.1712646484375,0.6826934814453125,-0.713287353515625,1,0.62
2020-05-20 00:53:42.849 -0400,1589950421.999821,41.35200485325564,-71.84493963864942,13.39866,0,-1,3.559867826421174,4.599117099096327,-9999,16125.92251275,0.1736602783203125,0.6832275390625,-0.7130584716796875,1,0.62
2020-05-20 00:53:42.899 -0400,1589950421.999821,41.35200485325564,-71.84493963864942,13.39866,0,-1,3.559867826421174,4.599117099096327,-9999,16125.97240575,0.175262451171875,0.68450927734375,-0.710479736328125,1,0.62
2020-05-20 00:53:42.949 -0400,1589950421.999821,41.35200485325564,-71.84493963864942,13.39866,0,-1,3.559867826421174,4.599117099096327,-9999,16126.02229675,0.174072265625,0.6845855712890625,-0.7122802734375,1,0.62
2020-05-20 00:53:42.999 -0400,1589950421.999821,41.35200485325564,-71.84493963864942,13.39866,0,-1,3.559867826421174,4.599117099096327,-9999,16126.07218375,0.1726837158203125,0.681640625,-0.7147979736328125,1,0.62
2020-05-20 00:53:43.049 -0400,1589950421.999821,41.35200485325564,-71.84493963864942,13.39866,0,-1,3.559867826421174,4.599117099096327,-9999,16126.12206975,0.173370361328125,0.68328857421875,-0.7114410400390625,1,0.62
2020-05-20 00:53:43.099 -0400,1589950421.999821,41.35200485325564,-71.84493963864942,13.39866,0,-1,3.559867826421174,4.599117099096327,-9999,16126.17195775,0.173675537109375,0.682708740234375,-0.7124176025390625,1,0.62
2020-05-20 00:53:43.149 -0400,1589950421.999821,41.35200485325564,-71.84493963864942,13.39866,0,-1,3.559867826421174,4.599117099096327,-9999,16126.22184575,0.1735687255859375,0.6823883056640625,-0.713714599609375,1,0.62
2020-05-20 00:53:43.198 -0400,1589950421.999821,41.35200485325564,-71.84493963864942,13.39866,0,-1,3.559867826421174,4.599117099096327,-9999,16126.27173475,0.1732330322265625,0.68218994140625,-0.7157135009765625,1,0.62
2020-05-20 00:53:43.248 -0400,1589950422.999821,41.35200485325564,-71.84493963864942,13.39866,0,-1,3.512903625791219,4.63508847258515,-9999,16126.32162475,0.17333984375,0.681610107421875,-0.71148681640625,1,0.62
2020-05-20 00:53:43.298 -0400,1589950422.999821,41.35200485325564,-71.84493963864942,13.39866,0,-1,3.512903625791219,4.63508847258515,-9999,16126.37151475,0.170440673828125,0.681915283203125,-0.7122802734375,1,0.62
2020-05-20 00:53:43.348 -0400,1589950422.999821,41.35200485325564,-71.84493963864942,13.39866,0,-1,3.512903625791219,4.63508847258515,-9999,16126.42140475,0.1724090576171875,0.6802825927734375,-0.715423583984375,1,0.62
2020-05-20 00:53:43.398 -0400,1589950422.999821,41.35200485325564,-71.84493963864942,13.39866,0,-1,3.512903625791219,4.63508847258515,-9999,16126.47129475,0.1752166748046875,0.6863555908203125,-0.7109222412109375,1,0.62
2020-05-20 00:53:43.448 -0400,1589950422.999821,41.35200485325564,-71.84493963864942,13.39866,0,-1,3.512903625791219,4.63508847258515,-9999,16126.52118475,0.1755523681640625,0.6818389892578125,-0.71331787109375,1,0.62
2020-05-20 00:53:43.498 -0400,1589950422.999821,41.35200485325564,-71.84493963864942,13.39866,0,-1,3.512903625791219,4.63508847258515,-9999,16126.57107375,0.174072265625,0.67822265625,-0.7145538330078125,1,0.62
2020-05-20 00:53:43.548 -0400,1589950422.999821,41.35200485325564,-71.84493963864942,13.39866,0,-1,3.512903625791219,4.63508847258515,-9999,16126.62096275,0.17254638671875,0.681427001953125,-0.7171478271484375,1,0.62
2020-05-20 00:53:43.597 -0400,1589950422.999821,41.35200485325564,-71.84493963864942,13.39866,0,-1,3.512903625791219,4.63508847258515,-9999,16126.67085475,0.1721649169921875,0.6822052001953125,-0.710601806640625,1,0.62
2020-05-20 00:53:43.647 -0400,1589950422.999821,41.35200485325564,-71.84493963864942,13.39866,0,-1,3.512903625791219,4.63508847258515,-9999,16126.72074454167,0.174072265625,0.6820526123046875,-0.7151641845703125,1,0.62
2020-05-20 00:53:43.697 -0400,1589950422.999821,41.35200485325564,-71.84493963864942,13.39866,0,-1,3.512903625791219,4.63508847258515,-9999,16126.77063554167,0.1766204833984375,0.6803741455078125,-0.7149658203125,1,0.62
2020-05-20 00:53:43.747 -0400,1589950422.999821,41.35200485325564,-71.84493963864942,13.39866,0,-1,3.512903625791219,4.63508847258515,-9999,16126.82052954167,0.1724090576171875,0.6804962158203125,-0.7125091552734375,1,0.62
2020-05-20 00:53:43.797 -0400,1589950422.999821,41.35200485325564,-71.84493963864942,13.39866,0,-1,3.512903625791219,4.63508847258515,-9999,16126.87042554167,0.174468994140625,0.681365966796875,-0.714599609375,1,0.62
2020-05-20 00:53:43.847 -0400,1589950422.999821,41.35200485325564,-71.84493963864942,13.39866,0,-1,3.512903625791219,4.63508847258515,-9999,16126.92032154167,0.17144775390625,0.682891845703125,-0.7138671875,1,0.62
2020-05-20 00:53:43.897 -0400,1589950422.999821,41.35200485325564,-71.84493963864942,13.39866,0,-1,3.512903625791219,4.63508847258515,-9999,16126.97021354167,0.1743011474609375,0.6808319091796875,-0.715240478515625,1,0.62
2020-05-20 00:53:43.947 -0400,1589950422.999821,41.35200485325564,-71.84493963864942,13.39866,0,-1,3.512903625791219,4.63508847258515,-9999,16127.02010854167,0.17327880859375,0.681793212890625,-0.71246337890625,1,0.62
2020-05-20 00:53:43.997 -0400,1589950422.999821,41.35200485325564,-71.84493963864942,13.39866,0,-1,3.512903625791219,4.63508847258515,-9999,16127.07000254167,0.1736297607421875,0.6812286376953125,-0.7136077880859375,1,0.62
2020-05-20 00:53:44.047 -0400,1589950422.999821,41.35200485325564,-71.84493963864942,13.39866,0,-1,3.512903625791219,4.63508847258515,-9999,16127.11989554167,0.174957275390625,0.681976318359375,-0.7139892578125,1,0.62
2020-05-20 00:53:44.097 -0400,1589950422.999821,41.35200485325564,-71.84493963864942,13.39866,0,-1,3.512903625791219,4.63508847258515,-9999,16127.16978854167,0.17437744140625,0.680450439453125,-0.7137451171875,1,0.62
2020-05-20 00:53:44.146 -0400,1589950422.999821,41.35200485325564,-71.84493963864942,13.39866,0,-1,3.512903625791219,4.63508847258515,-9999,16127.21967954167,0.1730499267578125,0.6804351806640625,-0.713623046875,1,0.62
2020-05-20 00:53:44.196 -0400,1589950422.999821,41.35200485325564,-71.84493963864942,13.39866,0,-1,3.512903625791219,4.63508847258515,-9999,16127.26956954167,0.1735992431640625,0.6829376220703125,-0.7169342041015625,1,0.62
2020-05-20 00:53:44.246 -0400,1589950422.999821,41.35200485325564,-71.84493963864942,13.39866,0,-1,3.512903625791219,4.63508847258515,-9999,16127.31946154167,0.1730804443359375,0.6829833984375,-0.7158355712890625,1,0.62
2020-05-20 00:53:44.296 -0400,1589950422.999821,41.35200485325564,-71.84493963864942,13.39866,0,-1,3.512903625791219,4.63508847258515,-9999,16127.36935054167,0.1731109619140625,0.682159423828125,-0.7116241455078125,1,0.62
2020-05-20 00:53:44.353 -0400,1589950422.999821,41.35200485325564,-71.84493963864942,13.39866,0,-1,3.512903625791219,4.63508847258515,-9999,16127.41924154167,0.1745452880859375,0.68096923828125,-0.71380615234375,1,0.62
2020-05-20 00:53:44.396 -0400,1589950423.999823,41.35200485325564,-71.84493963864942,13.39866,0,-1,3.463424585681974,4.67217584986722,-9999,16127.46913054167,0.176849365234375,0.6822662353515625,-0.712554931640625,1,0.62
2020-05-20 00:53:44.446 -0400,1589950423.999823,41.35200485325564,-71.84493963864942,13.39866,0,-1,3.463424585681974,4.67217584986722,-9999,16127.51902054167,0.17767333984375,0.67999267578125,-0.715087890625,1,0.62
2020-05-20 00:53:44.496 -0400,1589950423.999823,41.35200485325564,-71.84493963864942,13.39866,0,-1,3.463424585681974,4.67217584986722,-9999,16127.56891054167,0.173553466796875,0.6795806884765625,-0.71527099609375,1,0.62
2020-05-20 00:53:44.546 -0400,1589950423.999823,41.35200485325564,-71.84493963864942,13.39866,0,-1,3.463424585681974,4.67217584986722,-9999,16127.61879954167,0.1715087890625,0.681060791015625,-0.7135467529296875,1,0.62
2020-05-20 00:53:44.596 -0400,1589950423.999823,41.35200485325564,-71.84493963864942,13.39866,0,-1,3.463424585681974,4.67217584986722,-9999,16127.66869354167,0.175048828125,0.6823577880859375,-0.7127685546875,1,0.62
2020-05-20 00:53:44.645 -0400,1589950423.999823,41.35200485325564,-71.84493963864942,13.39866,0,-1,3.463424585681974,4.67217584986722,-9999,16127.71858329167,0.1749420166015625,0.6810150146484375,-0.7137451171875,1,0.62
2020-05-20 00:53:44.695 -0400,1589950423.999823,41.35200485325564,-71.84493963864942,13.39866,0,-1,3.463424585681974,4.67217584986722,-9999,16127.76847329167,0.1752777099609375,0.6827392578125,-0.712493896484375,1,0.62
2020-05-20 00:53:44.745 -0400,1589950423.999823,41.35200485325564,-71.84493963864942,13.39866,0,-1,3.463424585681974,4.67217584986722,-9999,16127.81836329167,0.1749114990234375,0.6822662353515625,-0.7143707275390625,1,0.62
2020-05-20 00:53:44.795 -0400,1589950423.999823,41.35200485325564,-71.84493963864942,13.39866,0,-1,3.463424585681974,4.67217584986722,-9999,16127.86825029167,0.1739349365234375,0.68292236328125,-0.7118072509765625,1,0.62
2020-05-20 00:53:44.845 -0400,1589950423.999823,41.35200485325564,-71.84493963864942,13.39866,0,-1,3.463424585681974,4.67217584986722,-9999,16127.91813629167,0.1733245849609375,0.6832122802734375,-0.712982177734375,1,0.62
2020-05-20 00:53:44.895 -0400,1589950423.999823,41.35200485325564,-71.84493963864942,13.39866,0,-1,3.463424585681974,4.67217584986722,-9999,16127.96802329167,0.17425537109375,0.6819610595703125,-0.7136688232421875,1,0.62
2020-05-20 00:53:44.945 -0400,1589950423.999823,41.35200485325564,-71.84493963864942,13.39866,0,-1,3.463424585681974,4.67217584986722,-9999,16128.01791029167,0.173919677734375,0.6835174560546875,-0.7137603759765625,1,0.62
2020-05-20 00:53:44.995 -0400,1589950423.999823,41.35200485325564,-71.84493963864942,13.39866,0,-1,3.463424585681974,4.67217584986722,-9999,16128.06780029167,0.173614501953125,0.6819305419921875,-0.71270751953125,1,0.62
2020-05-20 00:53:45.044 -0400,1589950423.999823,41.35200485325564,-71.84493963864942,13.39866,0,-1,3.463424585681974,4.67217584986722,-9999,16128.11769329167,0.1761932373046875,0.6826934814453125,-0.712005615234375,1,0.62
2020-05-20 00:53:45.094 -0400,1589950423.999823,41.35200485325564,-71.84493963864942,13.39866,0,-1,3.463424585681974,4.67217584986722,-9999,16128.16758529167,0.174468994140625,0.68115234375,-0.7121124267578125,1,0.62
2020-05-20 00:53:45.144 -0400,1589950423.999823,41.35200485325564,-71.84493963864942,13.39866,0,-1,3.463424585681974,4.67217584986722,-9999,16128.21747529167,0.1732025146484375,0.68280029296875,-0.7134857177734375,1,0.62
2020-05-20 00:53:45.194 -0400,1589950423.999823,41.35200485325564,-71.84493963864942,13.39866,0,-1,3.463424585681974,4.67217584986722,-9999,16128.26736229167,0.1733551025390625,0.6814117431640625,-0.714141845703125,1,0.62
2020-05-20 00:53:45.244 -0400,1589950423.999823,41.35200485325564,-71.84493963864942,13.39866,0,-1,3.463424585681974,4.67217584986722,-9999,16128.31724929167,0.1730194091796875,0.6816864013671875,-0.7137603759765625,1,0.62
2020-05-20 00:53:45.294 -0400,1589950423.999823,41.35200485325564,-71.84493963864942,13.39866,0,-1,3.463424585681974,4.67217584986722,-9999,16128.36713729167,0.176971435546875,0.6815948486328125,-0.712249755859375,1,0.62
2020-05-20 00:53:45.344 -0400,1589950424.999824,41.35200485325564,-71.84493963864942,13.39866,0,-1,3.468649604886589,4.668298078669457,-9999,16128.41702129167,0.1762237548828125,0.6830596923828125,-0.7110137939453125,1,0.62
2020-05-20 00:53:45.394 -0400,1589950424.999824,41.35200485325564,-71.84493963864942,13.39866,0,-1,3.468649604886589,4.668298078669457,-9999,16128.46690529167,0.17498779296875,0.677337646484375,-0.7157440185546875,1,0.62
2020-05-20 00:53:45.443 -0400,1589950424.999824,41.35200485325564,-71.84493963864942,13.39866,0,-1,3.468649604886589,4.668298078669457,-9999,16128.51679529167,0.1736602783203125,0.6775360107421875,-0.7144775390625,1,0.62
2020-05-20 00:53:45.493 -0400,1589950424.999824,41.35200485325564,-71.84493963864942,13.39866,0,-1,3.468649604886589,4.668298078669457,-9999,16128.56668429167,0.1735992431640625,0.6817169189453125,-0.7127532958984375,1,0.62
2020-05-20 00:53:45.543 -0400,1589950424.999824,41.35200485325564,-71.84493963864942,13.39866,0,-1,3.468649604886589,4.668298078669457,-9999,16128.61657129167,0.1750335693359375,0.682037353515625,-0.712615966796875,1,0.62
2020-05-20 00:53:45.593 -0400,1589950424.999824,41.35200485325564,-71.84493963864942,13.39866,0,-1,3.468649604886589,4.668298078669457,-9999,16128.66645829167,0.1764068603515625,0.6794281005859375,-0.715850830078125,1,0.62
2020-05-20 00:53:45.643 -0400,1589950424.999824,41.35200485325564,-71.84493963864942,13.39866,0,-1,3.468649604886589,4.668298078669457,-9999,16128.71634454167,0.1747589111328125,0.6796722412109375,-0.714691162109375,1,0.62
2020-05-20 00:53:45.693 -0400,1589950424.999824,41.35200485325564,-71.84493963864942,13.39866,0,-1,3.468649604886589,4.668298078669457,-9999,16128.76622854167,0.1733551025390625,0.682098388671875,-0.71270751953125,1,0.62
2020-05-20 00:53:45.743 -0400,1589950424.999824,41.35200485325564,-71.84493963864942,13.39866,0,-1,3.468649604886589,4.668298078669457,-9999,16128.81611554167,0.1735992431640625,0.6793670654296875,-0.7140655517578125,1,0.62
2020-05-20 00:53:45.793 -0400,1589950424.999824,41.35200485325564,-71.84493963864942,13.39866,0,-1,3.468649604886589,4.668298078669457,-9999,16128.86600254167,0.1739654541015625,0.6805419921875,-0.7147369384765625,1,0.62
2020-05-20 00:53:45.843 -0400,1589950424.999824,41.35200485325564,-71.84493963864942,13.39866,0,-1,3.468649604886589,4.668298078669457,-9999,16128.91588754167,0.1749114990234375,0.6803436279296875,-0.7152862548828125,1,0.62
2020-05-20 00:53:45.893 -0400,1589950424.999824,41.35200485325564,-71.84493963864942,13.39866,0,-1,3.468649604886589,4.668298078669457,-9999,16128.96577554167,0.175872802734375,0.681365966796875,-0.7125244140625,1,0.62
2020-05-20 00:53:45.942 -0400,1589950424.999824,41.35200485325564,-71.84493963864942,13.39866,0,-1,3.468649604886589,4.668298078669457,-9999,16129.01566254167,0.175872802734375,0.6806793212890625,-0.71484375,1,0.62
2020-05-20 00:53:45.993 -0400,1589950424.999824,41.35200485325564,-71.84493963864942,13.39866,0,-1,3.468649604886589,4.668298078669457,-9999,16129.06554954167,0.17645263671875,0.6780242919921875,-0.714202880859375,1,0.62
2020-05-20 00:53:46.042 -0400,1589950424.999824,41.35200485325564,-71.84493963864942,13.39866,0,-1,3.468649604886589,4.668298078669457,-9999,16129.11543254167,0.17840576171875,0.679473876953125,-0.715179443359375,1,0.62
2020-05-20 00:53:46.092 -0400,1589950424.999824,41.35200485325564,-71.84493963864942,13.39866,0,-1,3.468649604886589,4.668298078669457,-9999,16129.16531854167,0.172332763671875,0.67987060546875,-0.7151336669921875,1,0.62
2020-05-20 00:53:46.142 -0400,1589950424.999824,41.35200485325564,-71.84493963864942,13.39866,0,-1,3.468649604886589,4.668298078669457,-9999,16129.21520354167,0.1728363037109375,0.680908203125,-0.712677001953125,1,0.62
2020-05-20 00:53:46.192 -0400,1589950424.999824,41.35200485325564,-71.84493963864942,13.39866,0,-1,3.468649604886589,4.668298078669457,-9999,16129.26508754167,0.1766204833984375,0.6796722412109375,-0.7151947021484375,1,0.62
2020-05-20 00:53:46.242 -0400,1589950424.999824,41.35200485325564,-71.84493963864942,13.39866,0,-1,3.468649604886589,4.668298078669457,-9999,16129.31497354167,0.1770172119140625,0.680938720703125,-0.7149810791015625,1,0.62
2020-05-20 00:53:46.303 -0400,1589950424.999824,41.35200485325564,-71.84493963864942,13.39866,0,-1,3.468649604886589,4.668298078669457,-9999,16129.36485754167,0.1763458251953125,0.6766357421875,-0.71636962890625,1,0.62
2020-05-20 00:53:46.341 -0400,1589950425.999827,41.35200485325564,-71.84493963864942,13.39866,0,-1,3.469644213429115,4.667558897861568,-9999,16129.41474054167,0.1724395751953125,0.6783294677734375,-0.7169036865234375,1,0.62
2020-05-20 00:53:46.391 -0400,1589950425.999827,41.35200485325564,-71.84493963864942,13.39866,0,-1,3.469644213429115,4.667558897861568,-9999,16129.46462854167,0.17327880859375,0.6793365478515625,-0.7136993408203125,1,0.62
2020-05-20 00:53:46.441 -0400,1589950425.999827,41.35200485325564,-71.84493963864942,13.39866,0,-1,3.469644213429115,4.667558897861568,-9999,16129.51451554167,0.1768035888671875,0.67822265625,-0.7183074951171875,1,0.62
2020-05-20 00:53:46.491 -0400,1589950425.999827,41.35200485325564,-71.84493963864942,13.39866,0,-1,3.469644213429115,4.667558897861568,-9999,16129.56440454167,0.1784210205078125,0.6792144775390625,-0.71368408203125,1,0.62
2020-05-20 00:53:46.541 -0400,1589950425.999827,41.35200485325564,-71.84493963864942,13.39866,0,-1,3.469644213429115,4.667558897861568,-9999,16129.61429254167,0.175628662109375,0.6779327392578125,-0.7173919677734375,1,0.62
2020-05-20 00:53:46.591 -0400,1589950425.999827,41.35200485325564,-71.84493963864942,13.39866,0,-1,3.469644213429115,4.667558897861568,-9999,16129.66418354167,0.1751556396484375,0.6794281005859375,-0.715179443359375,1,0.62
2020-05-20 00:53:46.641 -0400,1589950425.999827,41.35200485325564,-71.84493963864942,13.39866,0,-1,3.469644213429115,4.667558897861568,-9999,16129.71407204167,0.1758880615234375,0.6807708740234375,-0.7156219482421875,1,0.62
2020-05-20 00:53:46.691 -0400,1589950425.999827,41.35200485325564,-71.84493963864942,13.39866,0,-1,3.469644213429115,4.667558897861568,-9999,16129.76396304167,0.1766204833984375,0.6778564453125,-0.7148895263671875,1,0.62
2020-05-20 00:53:46.741 -0400,1589950425.999827,41.35200485325564,-71.84493963864942,13.39866,0,-1,3.469644213429115,4.667558897861568,-9999,16129.81385404167,0.174285888671875,0.6788482666015625,-0.7154388427734375,1,0.62
2020-05-20 00:53:46.790 -0400,1589950425.999827,41.35200485325564,-71.84493963864942,13.39866,0,-1,3.469644213429115,4.667558897861568,-9999,16129.86374504167,0.1767578125,0.6796875,-0.7154388427734375,1,0.62
2020-05-20 00:53:46.840 -0400,1589950425.999827,41.35200485325564,-71.84493963864942,13.39866,0,-1,3.469644213429115,4.667558897861568,-9999,16129.91363604167,0.1760406494140625,0.680084228515625,-0.71466064453125,1,0.62
2020-05-20 00:53:46.890 -0400,1589950425.999827,41.35200485325564,-71.84493963864942,13.39866,0,-1,3.469644213429115,4.667558897861568,-9999,16129.96352804167,0.1776275634765625,0.6759185791015625,-0.7136383056640625,1,0.62
2020-05-20 00:53:46.940 -0400,1589950425.999827,41.35200485325564,-71.84493963864942,13.39866,0,-1,3.469644213429115,4.667558897861568,-9999,16130.01341804167,0.1761322021484375,0.67822265625,-0.716461181640625,1,0.62
2020-05-20 00:53:46.990 -0400,1589950425.999827,41.35200485325564,-71.84493963864942,13.39866,0,-1,3.469644213429115,4.667558897861568,-9999,16130.06330904167,0.1750640869140625,0.6782684326171875,-0.71600341796875,1,0.62
2020-05-20 00:53:47.040 -0400,1589950425.999827,41.35200485325564,-71.84493963864942,13.39866,0,-1,3.469644213429115,4.667558897861568,-9999,16130.11319804167,0.173797607421875,0.678497314453125,-0.71502685546875,1,0.62
2020-05-20 00:53:47.090 -0400,1589950425.999827,41.35200485325564,-71.84493963864942,13.39866,0,-1,3.469644213429115,4.667558897861568,-9999,16130.16308804167,0.1772308349609375,0.6822662353515625,-0.7145538330078125,1,0.62
2020-05-20 00:53:47.140 -0400,1589950425.999827,41.35200485325564,-71.84493963864942,13.39866,0,-1,3.469644213429115,4.667558897861568,-9999,16130.21297904167,0.17828369140625,0.6796722412109375,-0.713653564453125,1,0.62
2020-05-20 00:53:47.190 -0400,1589950425.999827,41.35200485325564,-71.84493963864942,13.39866,0,-1,3.469644213429115,4.667558897861568,-9999,16130.26287004167,0.1759796142578125,0.677520751953125,-0.715240478515625,1,0.62
2020-05-20 00:53:47.239 -0400,1589950425.999827,41.35200485325564,-71.84493963864942,13.39866,0,-1,3.469644213429115,4.667558897861568,-9999,16130.31276104167,0.174591064453125,0.6798553466796875,-0.7158355712890625,1,0.62
2020-05-20 00:53:47.295 -0400,1589950425.999827,41.35200485325564,-71.84493963864942,13.39866,0,-1,3.469644213429115,4.667558897861568,-9999,16130.36265304167,0.1757354736328125,0.6828460693359375,-0.7144622802734375,1,0.62
2020-05-20 00:53:47.339 -0400,1589950426.999827,41.35200485325564,-71.84493963864942,13.39866,0,-1,3.47004598473677,4.667260213080159,-9999,16130.41254704167,0.1771087646484375,0.6806182861328125,-0.71337890625,1,0.62
2020-05-20 00:53:47.389 -0400,1589950426.999827,41.35200485325564,-71.84493963864942,13.39866,0,-1,3.47004598473677,4.667260213080159,-9999,16130.46244104167,0.177398681640625,0.6798248291015625,-0.7148284912109375,1,0.62
2020-05-20 00:53:47.439 -0400,1589950426.999827,41.35200485325564,-71.84493963864942,13.39866,0,-1,3.47004598473677,4.667260213080159,-9999,16130.51233704167,0.1754150390625,0.6783294677734375,-0.71502685546875,1,0.62
2020-05-20 00:53:47.489 -0400,1589950426.999827,41.35200485325564,-71.84493963864942,13.39866,0,-1,3.47004598473677,4.667260213080159,-9999,16130.56223004167,0.175567626953125,0.68121337890625,-0.713897705078125,1,0.62
2020-05-20 00:53:47.539 -0400,1589950426.999827,41.35200485325564,-71.84493963864942,13.39866,0,-1,3.47004598473677,4.667260213080159,-9999,16130.61212204167,0.1757049560546875,0.679962158203125,-0.7148590087890625,1,0.62
2020-05-20 00:53:47.589 -0400,1589950426.999827,41.35200485325564,-71.84493963864942,13.39866,0,-1,3.47004598473677,4.667260213080159,-9999,16130.66201304167,0.175750732421875,0.68011474609375,-0.7146759033203125,1,0.62
2020-05-20 00:53:47.639 -0400,1589950426.999827,41.35200485325564,-71.84493963864942,13.39866,0,-1,3.47004598473677,4.667260213080159,-9999,16130.71190575,0.1736907958984375,0.6784515380859375,-0.7137298583984375,1,0.62
2020-05-20 00:53:47.688 -0400,1589950426.999827,41.35200485325564,-71.84493963864942,13.39866,0,-1,3.47004598473677,4.667260213080159,-9999,16130.76179875,0.1767730712890625,0.6796112060546875,-0.714447021484375,1,0.62
2020-05-20 00:53:47.738 -0400,1589950426.999827,41.35200485325564,-71.84493963864942,13.39866,0,-1,3.47004598473677,4.667260213080159,-9999,16130.81169175,0.176544189453125,0.679779052734375,-0.7135467529296875,1,0.62
2020-05-20 00:53:47.788 -0400,1589950426.999827,41.35200485325564,-71.84493963864942,13.39866,0,-1,3.47004598473677,4.667260213080159,-9999,16130.86158375,0.1776885986328125,0.68121337890625,-0.7167816162109375,1,0.62
2020-05-20 00:53:47.838 -0400,1589950426.999827,41.35200485325564,-71.84493963864942,13.39866,0,-1,3.47004598473677,4.667260213080159,-9999,16130.91147675,0.17425537109375,0.678863525390625,-0.7146148681640625,1,0.62
2020-05-20 00:53:47.888 -0400,1589950426.999827,41.35200485325564,-71.84493963864942,13.39866,0,-1,3.47004598473677,4.667260213080159,-9999,16130.96136875,0.1721649169921875,0.6789398193359375,-0.7146148681640625,1,0.62
2020-05-20 00:53:47.938 -0400,1589950426.999827,41.35200485325564,-71.84493963864942,13.39866,0,-1,3.47004598473677,4.667260213080159,-9999,16131.01125775,0.176116943359375,0.6792144775390625,-0.715301513671875,1,0.62
2020-05-20 00:53:47.988 -0400,1589950426.999827,41.35200485325564,-71.84493963864942,13.39866,0,-1,3.47004598473677,4.667260213080159,-9999,16131.06114875,0.17742919921875,0.6826019287109375,-0.7137298583984375,1,0.62
2020-05-20 00:53:48.038 -0400,1589950426.999827,41.35200485325564,-71.84493963864942,13.39866,0,-1,3.47004598473677,4.667260213080159,-9999,16131.11103975,0.17730712890625,0.6775970458984375,-0.715240478515625,1,0.62
2020-05-20 00:53:48.088 -0400,1589950426.999827,41.35200485325564,-71.84493963864942,13.39866,0,-1,3.47004598473677,4.667260213080159,-9999,16131.16092875,0.1741485595703125,0.6780853271484375,-0.7166748046875,1,0.62
2020-05-20 00:53:48.137 -0400,1589950426.999827,41.35200485325564,-71.84493963864942,13.39866,0,-1,3.47004598473677,4.667260213080159,-9999,16131.21081975,0.1754913330078125,0.680267333984375,-0.714569091796875,1,0.62
2020-05-20 00:53:48.187 -0400,1589950426.999827,41.35200485325564,-71.84493963864942,13.39866,0,-1,3.47004598473677,4.667260213080159,-9999,16131.26071075,0.174774169921875,0.678253173828125,-0.7137908935546875,1,0.62
2020-05-20 00:53:48.237 -0400,1589950426.999827,41.35200485325564,-71.84493963864942,13.39866,0,-1,3.47004598473677,4.667260213080159,-9999,16131.31059975,0.176971435546875,0.6796722412109375,-0.71673583984375,1,0.62
2020-05-20 00:53:48.287 -0400,1589950426.999827,41.35200485325564,-71.84493963864942,13.39866,0,-1,3.47004598473677,4.667260213080159,-9999,16131.36048875,0.1757354736328125,0.6818695068359375,-0.715087890625,1,0.62
2020-05-20 00:53:48.337 -0400,1589950427.999833,41.35200485325564,-71.84493963864942,13.39866,0,-1,3.469096192716755,4.667966220793264,-9999,16131.41037675,0.17578125,0.6800994873046875,-0.715606689453125,1,0.62
2020-05-20 00:53:48.387 -0400,1589950427.999833,41.35200485325564,-71.84493963864942,13.39866,0,-1,3.469096192716755,4.667966220793264,-9999,16131.46026575,0.1743011474609375,0.67864990234375,-0.7124481201171875,1,0.62
2020-05-20 00:53:48.437 -0400,1589950427.999833,41.35200485325564,-71.84493963864942,13.39866,0,-1,3.469096192716755,4.667966220793264,-9999,16131.51015375,0.1747589111328125,0.6785736083984375,-0.7162322998046875,1,0.62
2020-05-20 00:53:48.487 -0400,1589950427.999833,41.35200485325564,-71.84493963864942,13.39866,0,-1,3.469096192716755,4.667966220793264,-9999,16131.56004375,0.173309326171875,0.6782989501953125,-0.7154083251953125,1,0.62
2020-05-20 00:53:48.537 -0400,1589950427.999833,41.35200485325564,-71.84493963864942,13.39866,0,-1,3.469096192716755,4.667966220793264,-9999,16131.60993275,0.1750640869140625,0.6781005859375,-0.717010498046875,1,0.62
2020-05-20 00:53:48.587 -0400,1589950427.999833,41.35200485325564,-71.84493963864942,13.39866,0,-1,3.469096192716755,4.667966220793264,-9999,16131.65982275,0.17547607421875,0.6784515380859375,-0.71539306640625,1,0.62
2020-05-20 00:53:48.636 -0400,1589950427.999833,41.35200485325564,-71.84493963864942,13.39866,0,-1,3.469096192716755,4.667966220793264,-9999,16131.7097135,0.174468994140625,0.6795501708984375,-0.716033935546875,1,0.62
2020-05-20 00:53:48.686 -0400,1589950427.999833,41.35200485325564,-71.84493963864942,13.39866,0,-1,3.469096192716755,4.667966220793264,-9999,16131.7596055,0.1777496337890625,0.6807861328125,-0.716339111328125,1,0.62
2020-05-20 00:53:48.736 -0400,1589950427.999833,41.35200485325564,-71.84493963864942,13.39866,0,-1,3.469096192716755,4.667966220793264,-9999,16131.8094965,0.175994873046875,0.680084228515625,-0.716705322265625,1,0.62
2020-05-20 00:53:48.786 -0400,1589950427.999833,41.35200485325564,-71.84493963864942,13.39866,0,-1,3.469096192716755,4.667966220793264,-9999,16131.8593905,0.174041748046875,0.679046630859375,-0.7158660888671875,1,0.62
2020-05-20 00:53:48.836 -0400,1589950427.999833,41.35200485325564,-71.84493963864942,13.39866,0,-1,3.469096192716755,4.667966220793264,-9999,16131.9092805,0.1776580810546875,0.6774444580078125,-0.7178497314453125,1,0.62
2020-05-20 00:53:48.886 -0400,1589950427.999833,41.35200485325564,-71.84493963864942,13.39866,0,-1,3.469096192716755,4.667966220793264,-9999,16131.9591725,0.17852783203125,0.682220458984375,-0.7147979736328125,1,0.62
2020-05-20 00:53:48.936 -0400,1589950427.999833,41.35200485325564,-71.84493963864942,13.39866,0,-1,3.469096192716755,4.667966220793264,-9999,16132.0090625,0.1764373779296875,0.6778411865234375,-0.7191162109375,1,0.62
2020-05-20 00:53:48.986 -0400,1589950427.999833,41.35200485325564,-71.84493963864942,13.39866,0,-1,3.469096192716755,4.667966220793264,-9999,16132.0589505,0.173370361328125,0.6754913330078125,-0.7174224853515625,1,0.62
2020-05-20 00:53:49.036 -0400,1589950427.999833,41.35200485325564,-71.84493963864942,13.39866,0,-1,3.469096192716755,4.667966220793264,-9999,16132.1088395,0.1750335693359375,0.6803131103515625,-0.7140960693359375,1,0.62
2020-05-20 00:53:49.086 -0400,1589950427.999833,41.35200485325564,-71.84493963864942,13.39866,0,-1,3.469096192716755,4.667966220793264,-9999,16132.1587285,0.175506591796875,0.6788330078125,-0.7140960693359375,1,0.62
2020-05-20 00:53:49.135 -0400,1589950427.999833,41.35200485325564,-71.84493963864942,13.39866,0,-1,3.469096192716755,4.667966220793264,-9999,16132.2086195,0.1761322021484375,0.678985595703125,-0.71722412109375,1,0.62
2020-05-20 00:53:49.185 -0400,1589950427.999833,41.35200485325564,-71.84493963864942,13.39866,0,-1,3.469096192716755,4.667966220793264,-9999,16132.2585105,0.175750732421875,0.679168701171875,-0.7154388427734375,1,0.62
2020-05-20 00:53:49.235 -0400,1589950427.999833,41.35200485325564,-71.84493963864942,13.39866,0,-1,3.469096192716755,4.667966220793264,-9999,16132.3083985,0.175079345703125,0.6792144775390625,-0.7137603759765625,1,0.62
2020-05-20 00:53:49.285 -0400,1589950427.999833,41.35200485325564,-71.84493963864942,13.39866,0,-1,3.469096192716755,4.667966220793264,-9999,16132.3582865,0.1741943359375,0.67913818359375,-0.7168731689453125,1,0.62
2020-05-20 00:53:49.335 -0400,1589950428.99983,41.35200485325564,-71.84493963864942,13.39866,0,-1,3.468565809646061,4.668360339235094,-9999,16132.4081765,0.174560546875,0.679840087890625,-0.7160186767578125,1,0.62
2020-05-20 00:53:49.385 -0400,1589950428.99983,41.35200485325564,-71.84493963864942,13.39866,0,-1,3.468565809646061,4.668360339235094,-9999,16132.4580655,0.176666259765625,0.6783905029296875,-0.7158355712890625,1,0.62
2020-05-20 00:53:49.435 -0400,1589950428.99983,41.35200485325564,-71.84493963864942,13.39866,0,-1,3.468565809646061,4.668360339235094,-9999,16132.5079525,0.1757354736328125,0.6791229248046875,-0.71527099609375,1,0.62
2020-05-20 00:53:49.484 -0400,1589950428.99983,41.35200485325564,-71.84493963864942,13.39866,0,-1,3.468565809646061,4.668360339235094,-9999,16132.5578395,0.1755218505859375,0.67999267578125,-0.7145233154296875,1,0.62
2020-05-20 00:53:49.534 -0400,1589950428.99983,41.35200485325564,-71.84493963864942,13.39866,0,-1,3.468565809646061,4.668360339235094,-9999,16132.6077265,0.1767578125,0.6774139404296875,-0.716156005859375,1,0.62
2020-05-20 00:53:49.584 -0400,1589950428.99983,41.35200485325564,-71.84493963864942,13.39866,0,-1,3.468565809646061,4.668360339235094,-9999,16132.6576185,0.1751556396484375,0.6811676025390625,-0.7136993408203125,1,0.62
2020-05-20 00:53:49.634 -0400,1589950428.99983,41.35200485325564,-71.84493963864942,13.39866,0,-1,3.468565809646061,4.668360339235094,-9999,16132.707509375,0.1767578125,0.676788330078125,-0.715545654296875,1,0.62
2020-05-20 00:53:49.684 -0400,1589950428.99983,41.35200485325564,-71.84493963864942,13.39866,0,-1,3.468565809646061,4.668360339235094,-9999,16132.757395375,0.177459716796875,0.676727294921875,-0.716156005859375,1,0.62
2020-05-20 00:53:49.734 -0400,1589950428.99983,41.35200485325564,-71.84493963864942,13.39866,0,-1,3.468565809646061,4.668360339235094,-9999,16132.807283375,0.174285888671875,0.678619384765625,-0.7165069580078125,1,0.62
2020-05-20 00:53:49.784 -0400,1589950428.99983,41.35200485325564,-71.84493963864942,13.39866,0,-1,3.468565809646061,4.668360339235094,-9999,16132.857174375,0.172607421875,0.6774749755859375,-0.7169952392578125,1,0.62
2020-05-20 00:53:49.834 -0400,1589950428.99983,41.35200485325564,-71.84493963864942,13.39866,0,-1,3.468565809646061,4.668360339235094,-9999,16132.907062375,0.17694091796875,0.68145751953125,-0.71392822265625,1,0.62
2020-05-20 00:53:49.884 -0400,1589950428.99983,41.35200485325564,-71.84493963864942,13.39866,0,-1,3.468565809646061,4.668360339235094,-9999,16132.956952375,0.176544189453125,0.680572509765625,-0.71466064453125,1,0.62
2020-05-20 00:53:49.934 -0400,1589950428.99983,41.35200485325564,-71.84493963864942,13.39866,0,-1,3.468565809646061,4.668360339235094,-9999,16133.006841375,0.1750335693359375,0.6755218505859375,-0.7178192138671875,1,0.62
2020-05-20 00:53:49.983 -0400,1589950428.99983,41.35200485325564,-71.84493963864942,13.39866,0,-1,3.468565809646061,4.668360339235094,-9999,16133.056729375,0.1748504638671875,0.680023193359375,-0.7160186767578125,1,0.62
2020-05-20 00:53:50.033 -0400,1589950428.99983,41.35200485325564,-71.84493963864942,13.39866,0,-1,3.468565809646061,4.668360339235094,-9999,16133.106620375,0.1739501953125,0.6833953857421875,-0.712982177734375,1,0.62
2020-05-20 00:53:50.083 -0400,1589950428.99983,41.35200485325564,-71.84493963864942,13.39866,0,-1,3.468565809646061,4.668360339235094,-9999,16133.156509375,0.174835205078125,0.6790771484375,-0.7158050537109375,1,0.62
2020-05-20 00:53:50.133 -0400,1589950428.99983,41.35200485325564,-71.84493963864942,13.39866,0,-1,3.468565809646061,4.668360339235094,-9999,16133.206396375,0.1757049560546875,0.679779052734375,-0.7151947021484375,1,0.62
2020-05-20 00:53:50.183 -0400,1589950428.99983,41.35200485325564,-71.84493963864942,13.39866,0,-1,3.468565809646061,4.668360339235094,-9999,16133.256283375,0.175506591796875,0.679351806640625,-0.7159881591796875,1,0.62
2020-05-20 00:53:50.233 -0400,1589950429.999585,41.35200485325564,-71.84493963864942,13.39866,0,-1,3.466406484153532,4.669963931274757,-9999,16133.306170375,0.1750335693359375,0.679779052734375,-0.71685791015625,1,0.62
2020-05-20 00:53:50.283 -0400,1589950429.999585,41.35200485325564,-71.84493963864942,13.39866,0,-1,3.466406484153532,4.669963931274757,-9999,16133.356060375,0.176483154296875,0.6790924072265625,-0.7173919677734375,1,0.62
2020-05-20 00:53:50.333 -0400,1589950429.999585,41.35200485325564,-71.84493963864942,13.39866,0,-1,3.466406484153532,4.669963931274757,-9999,16133.405953375,0.175689697265625,0.68072509765625,-0.7140655517578125,1,0.62
2020-05-20 00:53:50.383 -0400,1589950429.999585,41.35200485325564,-71.84493963864942,13.39866,0,-1,3.466406484153532,4.669963931274757,-9999,16133.455845375,0.1739349365234375,0.677734375,-0.7165374755859375,1,0.62
2020-05-20 00:53:50.432 -0400,1589950429.999585,41.35200485325564,-71.84493963864942,13.39866,0,-1,3.466406484153532,4.669963931274757,-9999,16133.505735375,0.174652099609375,0.67999267578125,-0.71453857421875,1,0.62
2020-05-20 00:53:50.482 -0400,1589950429.999585,41.35200485325564,-71.84493963864942,13.39866,0,-1,3.466406484153532,4.669963931274757,-9999,16133.555626375,0.1744232177734375,0.6786041259765625,-0.71722412109375,1,0.62
2020-05-20 00:53:50.532 -0400,1589950429.999585,41.35200485325564,-71.84493963864942,13.39866,0,-1,3.466406484153532,4.669963931274757,-9999,16133.605519375,0.175811767578125,0.676727294921875,-0.7169647216796875,1,0.62
2020-05-20 00:53:50.582 -0400,1589950429.999585,41.35200485325564,-71.84493963864942,13.39866,0,-1,3.466406484153532,4.669963931274757,-9999,16133.655414375,0.1742706298828125,0.6789093017578125,-0.716644287109375,1,0.62
2020-05-20 00:53:50.632 -0400,1589950429.999585,41.35200485325564,-71.84493963864942,13.39866,0,-1,3.466406484153532,4.669963931274757,-9999,16133.7053075,0.1746368408203125,0.6801910400390625,-0.716888427734375,1,0.62
2020-05-20 00:53:50.682 -0400,1589950429.999585,41.35200485325564,-71.84493963864942,13.39866,0,-1,3.466406484153532,4.669963931274757,-9999,16133.7551975,0.175689697265625,0.677886962890625,-0.7178802490234375,1,0.62
2020-05-20 00:53:50.732 -0400,1589950429.999585,41.35200485325564,-71.84493963864942,13.39866,0,-1,3.466406484153532,4.669963931274757,-9999,16133.8050905,0.174560546875,0.6791229248046875,-0.713470458984375,1,0.62
2020-05-20 00:53:50.782 -0400,1589950429.999585,41.35200485325564,-71.84493963864942,13.39866,0,-1,3.466406484153532,4.669963931274757,-9999,16133.8549815,0.1747894287109375,0.6758880615234375,-0.717681884765625,1,0.62
2020-05-20 00:53:50.832 -0400,1589950429.999585,41.35200485325564,-71.84493963864942,13.39866,0,-1,3.466406484153532,4.669963931274757,-9999,16133.9048745,0.177337646484375,0.6822357177734375,-0.7138214111328125,1,0.62
2020-05-20 00:53:50.881 -0400,1589950429.999585,41.35200485325564,-71.84493963864942,13.39866,0,-1,3.466406484153532,4.669963931274757,-9999,16133.9547675,0.1744842529296875,0.676361083984375,-0.717803955078125,1,0.62
2020-05-20 00:53:50.931 -0400,1589950429.999585,41.35200485325564,-71.84493963864942,13.39866,0,-1,3.466406484153532,4.669963931274757,-9999,16134.0046595,0.1736602783203125,0.677154541015625,-0.714385986328125,1,0.62
2020-05-20 00:53:50.981 -0400,1589950429.999585,41.35200485325564,-71.84493963864942,13.39866,0,-1,3.466406484153532,4.669963931274757,-9999,16134.0545535,0.172393798828125,0.6756439208984375,-0.7165069580078125,1,0.62
2020-05-20 00:53:51.031 -0400,1589950429.999585,41.35200485325564,-71.84493963864942,13.39866,0,-1,3.466406484153532,4.669963931274757,-9999,16134.1044465,0.1737518310546875,0.680267333984375,-0.714324951171875,1,0.62
2020-05-20 00:53:51.081 -0400,1589950429.999585,41.35200485325564,-71.84493963864942,13.39866,0,-1,3.466406484153532,4.669963931274757,-9999,16134.1543375,0.1769866943359375,0.6779327392578125,-0.7173614501953125,1,0.62
2020-05-20 00:53:51.131 -0400,1589950429.999585,41.35200485325564,-71.84493963864942,13.39866,0,-1,3.466406484153532,4.669963931274757,-9999,16134.2042295,0.1762542724609375,0.67767333984375,-0.7172088623046875,1,0.62
2020-05-20 00:53:51.181 -0400,1589950429.999585,41.35200485325564,-71.84493963864942,13.39866,0,-1,3.466406484153532,4.669963931274757,-9999,16134.2541235,0.1758270263671875,0.6790771484375,-0.7159881591796875,1,0.62
2020-05-20 00:53:51.231 -0400,1589950430.99959,41.35200485325564,-71.84493963864942,13.39866,0,-1,3.464915579634317,4.671070226275368,-9999,16134.3040155,0.1750335693359375,0.6800384521484375,-0.7137298583984375,1,0.62
2020-05-20 00:53:51.281 -0400,1589950430.99959,41.35200485325564,-71.84493963864942,13.39866,0,-1,3.464915579634317,4.671070226275368,-9999,16134.3539045,0.174896240234375,0.6787261962890625,-0.7149200439453125,1,0.62
2020-05-20 00:53:51.330 -0400,1589950430.99959,41.35200485325564,-71.84493963864942,13.39866,0,-1,3.464915579634317,4.671070226275368,-9999,16134.4037955,0.1726837158203125,0.6786041259765625,-0.71551513671875,1,0.62
2020-05-20 00:53:51.380 -0400,1589950430.99959,41.35200485325564,-71.84493963864942,13.39866,0,-1,3.464915579634317,4.671070226275368,-9999,16134.4536865,0.176422119140625,0.6807403564453125,-0.7161102294921875,1,0.62
2020-05-20 00:53:51.430 -0400,1589950430.99959,41.35200485325564,-71.84493963864942,13.39866,0,-1,3.464915579634317,4.671070226275368,-9999,16134.5035745,0.177337646484375,0.679931640625,-0.716064453125,1,0.62
2020-05-20 00:53:51.480 -0400,1589950430.99959,41.35200485325564,-71.84493963864942,13.39866,0,-1,3.464915579634317,4.671070226275368,-9999,16134.5534625,0.17608642578125,0.67633056640625,-0.7166595458984375,1,0.62
2020-05-20 00:53:51.530 -0400,1589950430.99959,41.35200485325564,-71.84493963864942,13.39866,0,-1,3.464915579634317,4.671070226275368,-9999,16134.6033535,0.1748199462890625,0.6767730712890625,-0.7158355712890625,1,0.62
2020-05-20 00:53:51.580 -0400,1589950430.99959,41.35200485325564,-71.84493963864942,13.39866,0,-1,3.464915579634317,4.671070226275368,-9999,16134.6532405,0.173370361328125,0.67822265625,-0.7163543701171875,1,0.62
2020-05-20 00:53:51.630 -0400,1589950430.99959,41.35200485325564,-71.84493963864942,13.39866,0,-1,3.464915579634317,4.671070226275368,-9999,16134.70313116667,0.1750030517578125,0.6795654296875,-0.7159271240234375,1,0.62
2020-05-20 00:53:51.680 -0400,1589950430.99959,41.35200485325564,-71.84493963864942,13.39866,0,-1,3.464915579634317,4.671070226275368,-9999,16134.75302016667,0.1786651611328125,0.6785736083984375,-0.7174835205078125,1,0.62
2020-05-20 00:53:51.730 -0400,1589950430.99959,41.35200485325564,-71.84493963864942,13.39866,0,-1,3.464915579634317,4.671070226275368,-9999,16134.80290716667,0.175933837890625,0.677581787109375,-0.7175140380859375,1,0.62
2020-05-20 00:53:51.779 -0400,1589950430.99959,41.35200485325564,-71.84493963864942,13.39866,0,-1,3.464915579634317,4.671070226275368,-9999,16134.85279716667,0.172149658203125,0.6787261962890625,-0.7129974365234375,1,0.62
2020-05-20 00:53:51.829 -0400,1589950430.99959,41.35200485325564,-71.84493963864942,13.39866,0,-1,3.464915579634317,4.671070226275368,-9999,16134.90268516667,0.17431640625,0.6762847900390625,-0.7156982421875,1,0.62
2020-05-20 00:53:51.879 -0400,1589950430.99959,41.35200485325564,-71.84493963864942,13.39866,0,-1,3.464915579634317,4.671070226275368,-9999,16134.95257916667,0.1766357421875,0.682464599609375,-0.714569091796875,1,0.62
2020-05-20 00:53:51.929 -0400,1589950430.99959,41.35200485325564,-71.84493963864942,13.39866,0,-1,3.464915579634317,4.671070226275368,-9999,16135.00246916667,0.17779541015625,0.676361083984375,-0.7183380126953125,1,0.62
2020-05-20 00:53:51.979 -0400,1589950430.99959,41.35200485325564,-71.84493963864942,13.39866,0,-1,3.464915579634317,4.671070226275368,-9999,16135.05235916667,0.1759185791015625,0.6757659912109375,-0.71746826171875,1,0.62
2020-05-20 00:53:52.029 -0400,1589950430.99959,41.35200485325564,-71.84493963864942,13.39866,0,-1,3.464915579634317,4.671070226275368,-9999,16135.10225116667,0.174072265625,0.6775970458984375,-0.717132568359375,1,0.62
2020-05-20 00:53:52.079 -0400,1589950430.99959,41.35200485325564,-71.84493963864942,13.39866,0,-1,3.464915579634317,4.671070226275368,-9999,16135.15214316667,0.173675537109375,0.6801910400390625,-0.7164764404296875,1,0.62
2020-05-20 00:53:52.129 -0400,1589950430.99959,41.35200485325564,-71.84493963864942,13.39866,0,-1,3.464915579634317,4.671070226275368,-9999,16135.20203816667,0.1755828857421875,0.6790924072265625,-0.71533203125,1,0.62
2020-05-20 00:53:52.179 -0400,1589950430.99959,41.35200485325564,-71.84493963864942,13.39866,0,-1,3.464915579634317,4.671070226275368,-9999,16135.25193316667,0.176971435546875,0.679656982421875,-0.7161865234375,1,0.62
2020-05-20 00:53:52.229 -0400,1589950430.99959,41.35200485325564,-71.84493963864942,13.39866,0,-1,3.464915579634317,4.671070226275368,-9999,16135.30182616667,0.1756591796875,0.6780853271484375,-0.71630859375,1,0.62
2020-05-20 00:53:52.279 -0400,1589950430.99959,41.35200485325564,-71.84493963864942,13.39866,0,-1,3.464915579634317,4.671070226275368,-9999,16135.35172116667,0.175750732421875,0.678558349609375,-0.716827392578125,1,0.62
2020-05-20 00:53:52.328 -0400,1589950431.999608,41.35200485325564,-71.84493963864942,13.39866,0,-1,3.462808382386593,4.67263257058181,-9999,16135.40161316667,0.173675537109375,0.6796875,-0.715850830078125,1,0.62
2020-05-20 00:53:52.378 -0400,1589950431.999608,41.35200485325564,-71.84493963864942,13.39866,0,-1,3.462808382386593,4.67263257058181,-9999,16135.45150616667,0.1744842529296875,0.6774749755859375,-0.7166290283203125,1,0.62
2020-05-20 00:53:52.428 -0400,1589950431.999608,41.35200485325564,-71.84493963864942,13.39866,0,-1,3.462808382386593,4.67263257058181,-9999,16135.50140216667,0.1769256591796875,0.6786956787109375,-0.7171783447265625,1,0.62
2020-05-20 00:53:52.478 -0400,1589950431.999608,41.35200485325564,-71.84493963864942,13.39866,0,-1,3.462808382386593,4.67263257058181,-9999,16135.55129616667,0.1769256591796875,0.678192138671875,-0.7171783447265625,1,0.62
2020-05-20 00:53:52.528 -0400,1589950431.999608,41.35200485325564,-71.84493963864942,13.39866,0,-1,3.462808382386593,4.67263257058181,-9999,16135.60118916667,0.1768798828125,0.6794281005859375,-0.7156829833984375,1,0.62
2020-05-20 00:53:52.578 -0400,1589950431.999608,41.35200485325564,-71.84493963864942,13.39866,0,-1,3.462808382386593,4.67263257058181,-9999,16135.65108116667,0.1745758056640625,0.679351806640625,-0.71685791015625,1,0.62
2020-05-20 00:53:52.628 -0400,1589950431.999608,41.35200485325564,-71.84493963864942,13.39866,0,-1,3.462808382386593,4.67263257058181,-9999,16135.70097416667,0.1764678955078125,0.6787872314453125,-0.7166900634765625,1,0.62
2020-05-20 00:53:52.678 -0400,1589950431.999608,41.35200485325564,-71.84493963864942,13.39866,0,-1,3.462808382386593,4.67263257058181,-9999,16135.75087075,0.1753997802734375,0.678466796875,-0.7167816162109375,1,0.62
2020-05-20 00:53:52.727 -0400,1589950431.999608,41.35200485325564,-71.84493963864942,13.39866,0,-1,3.462808382386593,4.67263257058181,-9999,16135.80076375,0.1754608154296875,0.6784515380859375,-0.718048095703125,1,0.62
2020-05-20 00:53:52.777 -0400,1589950431.999608,41.35200485325564,-71.84493963864942,13.39866,0,-1,3.462808382386593,4.67263257058181,-9999,16135.85065475,0.1759185791015625,0.6773834228515625,-0.717010498046875,1,0.62
2020-05-20 00:53:52.827 -0400,1589950431.999608,41.35200485325564,-71.84493963864942,13.39866,0,-1,3.462808382386593,4.67263257058181,-9999,16135.90054675,0.1739654541015625,0.6787872314453125,-0.7161712646484375,1,0.62
2020-05-20 00:53:52.877 -0400,1589950431.999608,41.35200485325564,-71.84493963864942,13.39866,0,-1,3.462808382386593,4.67263257058181,-9999,16135.95043775,0.17645263671875,0.6781768798828125,-0.715545654296875,1,0.62
2020-05-20 00:53:52.927 -0400,1589950431.999608,41.35200485325564,-71.84493963864942,13.39866,0,-1,3.462808382386593,4.67263257058181,-9999,16136.00032775,0.17718505859375,0.6815643310546875,-0.714752197265625,1,0.62
2020-05-20 00:53:52.977 -0400,1589950431.999608,41.35200485325564,-71.84493963864942,13.39866,0,-1,3.462808382386593,4.67263257058181,-9999,16136.05021875,0.1766815185546875,0.674530029296875,-0.7198333740234375,1,0.62
2020-05-20 00:53:53.027 -0400,1589950431.999608,41.35200485325564,-71.84493963864942,13.39866,0,-1,3.462808382386593,4.67263257058181,-9999,16136.10010875,0.1739959716796875,0.675537109375,-0.718994140625,1,0.62
2020-05-20 00:53:53.077 -0400,1589950431.999608,41.35200485325564,-71.84493963864942,13.39866,0,-1,3.462808382386593,4.67263257058181,-9999,16136.14999975,0.1746063232421875,0.6769866943359375,-0.7179412841796875,1,0.62
2020-05-20 00:53:53.128 -0400,1589950431.999608,41.35200485325564,-71.84493963864942,13.39866,0,-1,3.462808382386593,4.67263257058181,-9999,16136.19989175,0.1750946044921875,0.6787567138671875,-0.7173004150390625,1,0.61
2020-05-20 00:53:53.177 -0400,1589950431.999608,41.35200485325564,-71.84493963864942,13.39866,0,-1,3.462808382386593,4.67263257058181,-9999,16136.24978275,0.1786651611328125,0.67608642578125,-0.718414306640625,1,0.61
2020-05-20 00:53:53.226 -0400,1589950431.999608,41.35200485325564,-71.84493963864942,13.39866,0,-1,3.462808382386593,4.67263257058181,-9999,16136.29967375,0.1750640869140625,0.677337646484375,-0.7176513671875,1,0.61
2020-05-20 00:53:53.276 -0400,1589950431.999608,41.35200485325564,-71.84493963864942,13.39866,0,-1,3.462808382386593,4.67263257058181,-9999,16136.34956575,0.175750732421875,0.6775054931640625,-0.71807861328125,1,0.61
2020-05-20 00:53:53.326 -0400,1589950431.999608,41.35200485325564,-71.84493963864942,13.39866,0,-1,3.462808382386593,4.67263257058181,-9999,16136.39945775,0.1743011474609375,0.6773529052734375,-0.7158050537109375,1,0.61
2020-05-20 00:53:53.376 -0400,1589950432.999615,41.35200485325564,-71.84493963864942,13.39866,0,-1,3.461352483436068,4.673711161186557,-9999,16136.44934975,0.1750335693359375,0.6787872314453125,-0.7161865234375,1,0.61
2020-05-20 00:53:53.426 -0400,1589950432.999615,41.35200485325564,-71.84493963864942,13.39866,0,-1,3.461352483436068,4.673711161186557,-9999,16136.49924175,0.1756134033203125,0.677154541015625,-0.716644287109375,1,0.61
2020-05-20 00:53:53.476 -0400,1589950432.999615,41.35200485325564,-71.84493963864942,13.39866,0,-1,3.461352483436068,4.673711161186557,-9999,16136.54913275,0.1755523681640625,0.6758270263671875,-0.7177734375,1,0.61
2020-05-20 00:53:53.526 -0400,1589950432.999615,41.35200485325564,-71.84493963864942,13.39866,0,-1,3.461352483436068,4.673711161186557,-9999,16136.59902275,0.1745758056640625,0.677215576171875,-0.7188568115234375,1,0.61
2020-05-20 00:53:53.576 -0400,1589950432.999615,41.35200485325564,-71.84493963864942,13.39866,0,-1,3.461352483436068,4.673711161186557,-9999,16136.64891375,0.1758575439453125,0.6762542724609375,-0.7165985107421875,1,0.61
2020-05-20 00:53:53.626 -0400,1589950432.999615,41.35200485325564,-71.84493963864942,13.39866,0,-1,3.461352483436068,4.673711161186557,-9999,16136.69880175,0.17425537109375,0.6768798828125,-0.7182159423828125,1,0.61
2020-05-20 00:53:53.675 -0400,1589950432.999615,41.35200485325564,-71.84493963864942,13.39866,0,-1,3.461352483436068,4.673711161186557,-9999,16136.748690375,0.1747283935546875,0.676666259765625,-0.7159576416015625,1,0.61
2020-05-20 00:53:53.725 -0400,1589950432.999615,41.35200485325564,-71.84493963864942,13.39866,0,-1,3.461352483436068,4.673711161186557,-9999,16136.798583375,0.1747589111328125,0.676727294921875,-0.7172698974609375,1,0.61
2020-05-20 00:53:53.775 -0400,1589950432.999615,41.35200485325564,-71.84493963864942,13.39866,0,-1,3.461352483436068,4.673711161186557,-9999,16136.848473375,0.178955078125,0.6787109375,-0.7185516357421875,1,0.61
2020-05-20 00:53:53.825 -0400,1589950432.999615,41.35200485325564,-71.84493963864942,13.39866,0,-1,3.461352483436068,4.673711161186557,-9999,16136.898364375,0.1763763427734375,0.67742919921875,-0.717010498046875,1,0.61
2020-05-20 00:53:53.875 -0400,1589950432.999615,41.35200485325564,-71.84493963864942,13.39866,0,-1,3.461352483436068,4.673711161186557,-9999,16136.948255375,0.1731414794921875,0.67974853515625,-0.7145843505859375,1,0.61
2020-05-20 00:53:53.925 -0400,1589950432.999615,41.35200485325564,-71.84493963864942,13.39866,0,-1,3.461352483436068,4.673711161186557,-9999,16136.998147375,0.1759796142578125,0.674530029296875,-0.7197265625,1,0.61
2020-05-20 00:53:53.975 -0400,1589950432.999615,41.35200485325564,-71.84493963864942,13.39866,0,-1,3.461352483436068,4.673711161186557,-9999,16137.048039375,0.1768798828125,0.6816253662109375,-0.7137908935546875,1,0.61
2020-05-20 00:53:54.024 -0400,1589950432.999615,41.35200485325564,-71.84493963864942,13.39866,0,-1,3.461352483436068,4.673711161186557,-9999,16137.097929375,0.1768951416015625,0.6755828857421875,-0.7188720703125,1,0.61
2020-05-20 00:53:54.075 -0400,1589950432.999615,41.35200485325564,-71.84493963864942,13.39866,0,-1,3.461352483436068,4.673711161186557,-9999,16137.147820375,0.1741485595703125,0.6750030517578125,-0.718017578125,1,0.61
2020-05-20 00:53:54.125 -0400,1589950432.999615,41.35200485325564,-71.84493963864942,13.39866,0,-1,3.461352483436068,4.673711161186557,-9999,16137.197714375,0.17205810546875,0.67596435546875,-0.717681884765625,1,0.61
2020-05-20 00:53:54.174 -0400,1589950432.999615,41.35200485325564,-71.84493963864942,13.39866,0,-1,3.461352483436068,4.673711161186557,-9999,16137.247609375,0.173858642578125,0.6796722412109375,-0.71661376953125,1,0.61
2020-05-20 00:53:54.224 -0400,1589950432.999615,41.35200485325564,-71.84493963864942,13.39866,0,-1,3.461352483436068,4.673711161186557,-9999,16137.297503375,0.1782989501953125,0.675811767578125,-0.7182464599609375,1,0.61
2020-05-20 00:53:54.274 -0400,1589950432.999615,41.35200485325564,-71.84493963864942,13.39866,0,-1,3.461352483436068,4.673711161186557,-9999,16137.347394375,0.1772918701171875,0.6771392822265625,-0.7176666259765625,1,0.61
2020-05-20 00:53:54.324 -0400,1589950433.999621,41.35200485325564,-71.84493963864942,13.39866,0,-1,3.458974551741393,4.675471322037412,-9999,16137.397285375,0.1727447509765625,0.678070068359375,-0.71661376953125,1,0.61
2020-05-20 00:53:54.374 -0400,1589950433.999621,41.35200485325564,-71.84493963864942,13.39866,0,-1,3.458974551741393,4.675471322037412,-9999,16137.447176375,0.175384521484375,0.677337646484375,-0.7166748046875,1,0.61
2020-05-20 00:53:54.424 -0400,1589950433.999621,41.35200485325564,-71.84493963864942,13.39866,0,-1,3.458974551741393,4.675471322037412,-9999,16137.497069375,0.1756591796875,0.678741455078125,-0.7159423828125,1,0.61
2020-05-20 00:53:54.474 -0400,1589950433.999621,41.35200485325564,-71.84493963864942,13.39866,0,-1,3.458974551741393,4.675471322037412,-9999,16137.546963375,0.1756439208984375,0.6777191162109375,-0.71710205078125,1,0.61
2020-05-20 00:53:54.524 -0400,1589950433.999621,41.35200485325564,-71.84493963864942,13.39866,0,-1,3.458974551741393,4.675471322037412,-9999,16137.596857375,0.1768798828125,0.67730712890625,-0.717071533203125,1,0.61
2020-05-20 00:53:54.573 -0400,1589950433.999621,41.35200485325564,-71.84493963864942,13.39866,0,-1,3.458974551741393,4.675471322037412,-9999,16137.646750375,0.1763458251953125,0.6762237548828125,-0.717803955078125,1,0.61
2020-05-20 00:53:54.623 -0400,1589950433.999621,41.35200485325564,-71.84493963864942,13.39866,0,-1,3.458974551741393,4.675471322037412,-9999,16137.696646375,0.175567626953125,0.676239013671875,-0.7172088623046875,1,0.61
2020-05-20 00:53:54.673 -0400,1589950433.999621,41.35200485325564,-71.84493963864942,13.39866,0,-1,3.458974551741393,4.675471322037412,-9999,16137.74654125,0.17431640625,0.67840576171875,-0.716033935546875,1,0.61
2020-05-20 00:53:54.723 -0400,1589950433.999621,41.35200485325564,-71.84493963864942,13.39866,0,-1,3.458974551741393,4.675471322037412,-9999,16137.79643425,0.1736297607421875,0.6753997802734375,-0.7155609130859375,1,0.61
2020-05-20 00:53:54.773 -0400,1589950433.999621,41.35200485325564,-71.84493963864942,13.39866,0,-1,3.458974551741393,4.675471322037412,-9999,16137.84632925,0.17608642578125,0.6781463623046875,-0.7170562744140625,1,0.61
2020-05-20 00:53:54.823 -0400,1589950433.999621,41.35200485325564,-71.84493963864942,13.39866,0,-1,3.458974551741393,4.675471322037412,-9999,16137.89622125,0.175384521484375,0.6764068603515625,-0.714996337890625,1,0.61
2020-05-20 00:53:54.873 -0400,1589950433.999621,41.35200485325564,-71.84493963864942,13.39866,0,-1,3.458974551741393,4.675471322037412,-9999,16137.94611125,0.17620849609375,0.6783905029296875,-0.718536376953125,1,0.61
2020-05-20 00:53:54.923 -0400,1589950433.999621,41.35200485325564,-71.84493963864942,13.39866,0,-1,3.458974551741393,4.675471322037412,-9999,16137.99600425,0.1748504638671875,0.67852783203125,-0.7164154052734375,1,0.61
2020-05-20 00:53:54.973 -0400,1589950433.999621,41.35200485325564,-71.84493963864942,13.39866,0,-1,3.458974551741393,4.675471322037412,-9999,16138.04590025,0.1727752685546875,0.675933837890625,-0.71685791015625,1,0.61
2020-05-20 00:53:55.023 -0400,1589950433.999621,41.35200485325564,-71.84493963864942,13.39866,0,-1,3.458974551741393,4.675471322037412,-9999,16138.09579625,0.1781005859375,0.6804962158203125,-0.71484375,1,0.61
2020-05-20 00:53:55.073 -0400,1589950433.999621,41.35200485325564,-71.84493963864942,13.39866,0,-1,3.458974551741393,4.675471322037412,-9999,16138.14568925,0.176361083984375,0.6785888671875,-0.7168426513671875,1,0.61
2020-05-20 00:53:55.122 -0400,1589950433.999621,41.35200485325564,-71.84493963864942,13.39866,0,-1,3.458974551741393,4.675471322037412,-9999,16138.19558125,0.1768646240234375,0.6752166748046875,-0.7180938720703125,1,0.61
2020-05-20 00:53:55.172 -0400,1589950433.999621,41.35200485325564,-71.84493963864942,13.39866,0,-1,3.458974551741393,4.675471322037412,-9999,16138.24547325,0.173828125,0.675323486328125,-0.7184600830078125,1,0.61
2020-05-20 00:53:55.222 -0400,1589950433.999621,41.35200485325564,-71.84493963864942,13.39866,0,-1,3.458974551741393,4.675471322037412,-9999,16138.29536225,0.174530029296875,0.6808319091796875,-0.7138519287109375,1,0.61
2020-05-20 00:53:55.272 -0400,1589950433.999621,41.35200485325564,-71.84493963864942,13.39866,0,-1,3.458974551741393,4.675471322037412,-9999,16138.34525025,0.17431640625,0.6754150390625,-0.71746826171875,1,0.61
2020-05-20 00:53:55.333 -0400,1589950433.999621,41.35200485325564,-71.84493963864942,13.39866,0,-1,3.458974551741393,4.675471322037412,-9999,16138.39514125,0.178131103515625,0.6779937744140625,-0.715484619140625,1,0.61
2020-05-20 00:53:55.372 -0400,1589950434.999628,41.35200485325564,-71.84493963864942,13.39866,0,-1,3.456910474868766,4.676997648228128,-9999,16138.44503225,0.175384521484375,0.6776123046875,-0.7164459228515625,1,0.61
2020-05-20 00:53:55.422 -0400,1589950434.999628,41.35200485325564,-71.84493963864942,13.39866,0,-1,3.456910474868766,4.676997648228128,-9999,16138.49492325,0.1744384765625,0.678741455078125,-0.7155609130859375,1,0.61
2020-05-20 00:53:55.471 -0400,1589950434.999628,41.35200485325564,-71.84493963864942,13.39866,0,-1,3.456910474868766,4.676997648228128,-9999,16138.54481425,0.175506591796875,0.67901611328125,-0.7170257568359375,1,0.61
2020-05-20 00:53:55.521 -0400,1589950434.999628,41.35200485325564,-71.84493963864942,13.39866,0,-1,3.456910474868766,4.676997648228128,-9999,16138.59470525,0.1752166748046875,0.67803955078125,-0.716064453125,1,0.61
2020-05-20 00:53:55.571 -0400,1589950434.999628,41.35200485325564,-71.84493963864942,13.39866,0,-1,3.456910474868766,4.676997648228128,-9999,16138.64459625,0.174713134765625,0.6766815185546875,-0.7171173095703125,1,0.61
2020-05-20 00:53:55.621 -0400,1589950434.999628,41.35200485325564,-71.84493963864942,13.39866,0,-1,3.456910474868766,4.676997648228128,-9999,16138.69448625,0.1756591796875,0.6785430908203125,-0.7165069580078125,1,0.61
2020-05-20 00:53:55.671 -0400,1589950434.999628,41.35200485325564,-71.84493963864942,13.39866,0,-1,3.456910474868766,4.676997648228128,-9999,16138.74437404167,0.1759185791015625,0.676422119140625,-0.7179107666015625,1,0.61
2020-05-20 00:53:55.721 -0400,1589950434.999628,41.35200485325564,-71.84493963864942,13.39866,0,-1,3.456910474868766,4.676997648228128,-9999,16138.79426304167,0.1768646240234375,0.67718505859375,-0.7181396484375,1,0.61
2020-05-20 00:53:55.771 -0400,1589950434.999628,41.35200485325564,-71.84493963864942,13.39866,0,-1,3.456910474868766,4.676997648228128,-9999,16138.84415504167,0.17242431640625,0.6781768798828125,-0.7144927978515625,1,0.61
2020-05-20 00:53:55.821 -0400,1589950434.999628,41.35200485325564,-71.84493963864942,13.39866,0,-1,3.456910474868766,4.676997648228128,-9999,16138.89404404167,0.1742401123046875,0.677154541015625,-0.7193145751953125,1,0.61
2020-05-20 00:53:55.871 -0400,1589950434.999628,41.35200485325564,-71.84493963864942,13.39866,0,-1,3.456910474868766,4.676997648228128,-9999,16138.94393304167,0.178436279296875,0.67645263671875,-0.7188873291015625,1,0.61
2020-05-20 00:53:55.920 -0400,1589950434.999628,41.35200485325564,-71.84493963864942,13.39866,0,-1,3.456910474868766,4.676997648228128,-9999,16138.99382004167,0.176177978515625,0.676666259765625,-0.7165679931640625,1,0.61
2020-05-20 00:53:55.970 -0400,1589950434.999628,41.35200485325564,-71.84493963864942,13.39866,0,-1,3.456910474868766,4.676997648228128,-9999,16139.04370604167,0.1744232177734375,0.6800384521484375,-0.71612548828125,1,0.61
2020-05-20 00:53:56.020 -0400,1589950434.999628,41.35200485325564,-71.84493963864942,13.39866,0,-1,3.456910474868766,4.676997648228128,-9999,16139.09359104167,0.1755523681640625,0.67620849609375,-0.7179718017578125,1,0.61
2020-05-20 00:53:56.070 -0400,1589950434.999628,41.35200485325564,-71.84493963864942,13.39866,0,-1,3.456910474868766,4.676997648228128,-9999,16139.14347604167,0.177581787109375,0.682098388671875,-0.715087890625,1,0.61
2020-05-20 00:53:56.120 -0400,1589950434.999628,41.35200485325564,-71.84493963864942,13.39866,0,-1,3.456910474868766,4.676997648228128,-9999,16139.19335804167,0.1751556396484375,0.6756439208984375,-0.71990966796875,1,0.61
2020-05-20 00:53:56.170 -0400,1589950434.999628,41.35200485325564,-71.84493963864942,13.39866,0,-1,3.456910474868766,4.676997648228128,-9999,16139.24324404167,0.1761627197265625,0.6812896728515625,-0.7183837890625,1,0.61
2020-05-20 00:53:56.220 -0400,1589950434.999628,41.35200485325564,-71.84493963864942,13.39866,0,-1,3.456910474868766,4.676997648228128,-9999,16139.29312904167,0.173370361328125,0.668212890625,-0.72283935546875,1,0.61
2020-05-20 00:53:56.270 -0400,1589950434.999628,41.35200485325564,-71.84493963864942,13.39866,0,-1,3.456910474868766,4.676997648228128,-9999,16139.34301404167,0.1749267578125,0.6750030517578125,-0.7206268310546875,1,0.61
2020-05-20 00:53:56.323 -0400,1589950435.999629,41.35200485325564,-71.84493963864942,13.39866,0,-1,3.454728098363339,4.678609921671998,-9999,16139.39290104167,0.1748199462890625,0.6708526611328125,-0.7213134765625,1,0.61
2020-05-20 00:53:56.370 -0400,1589950435.999629,41.35200485325564,-71.84493963864942,13.39866,0,-1,3.454728098363339,4.678609921671998,-9999,16139.44278804167,0.1778717041015625,0.663055419921875,-0.729827880859375,1,0.61
2020-05-20 00:53:56.419 -0400,1589950435.999629,41.35200485325564,-71.84493963864942,13.39866,0,-1,3.454728098363339,4.678609921671998,-9999,16139.49267704167,0.18017578125,0.674896240234375,-0.7218017578125,1,0.61
2020-05-20 00:53:56.469 -0400,1589950435.999629,41.35200485325564,-71.84493963864942,13.39866,0,-1,3.454728098363339,4.678609921671998,-9999,16139.54256504167,0.1791839599609375,0.6763458251953125,-0.7211456298828125,1,0.61
2020-05-20 00:53:56.519 -0400,1589950435.999629,41.35200485325564,-71.84493963864942,13.39866,0,-1,3.454728098363339,4.678609921671998,-9999,16139.59245304167,0.178436279296875,0.6696014404296875,-0.7208251953125,1,0.61
2020-05-20 00:53:56.569 -0400,1589950435.999629,41.35200485325564,-71.84493963864942,13.39866,0,-1,3.454728098363339,4.678609921671998,-9999,16139.64233804167,0.1733245849609375,0.6713714599609375,-0.721771240234375,1,0.61
2020-05-20 00:53:56.619 -0400,1589950435.999629,41.35200485325564,-71.84493963864942,13.39866,0,-1,3.454728098363339,4.678609921671998,-9999,16139.69222604167,0.1759796142578125,0.6761627197265625,-0.718719482421875,1,0.61
2020-05-20 00:53:56.669 -0400,1589950435.999629,41.35200485325564,-71.84493963864942,13.39866,0,-1,3.454728098363339,4.678609921671998,-9999,16139.74211475,0.177490234375,0.673004150390625,-0.7197723388671875,1,0.61
2020-05-20 00:53:56.719 -0400,1589950435.999629,41.35200485325564,-71.84493963864942,13.39866,0,-1,3.454728098363339,4.678609921671998,-9999,16139.79199975,0.188690185546875,0.66107177734375,-0.76129150390625,1,0.61
2020-05-20 00:53:56.769 -0400,1589950435.999629,41.35200485325564,-71.84493963864942,13.39866,0,-1,3.454728098363339,4.678609921671998,-9999,16139.84188575,0.1794586181640625,0.59967041015625,-0.7598114013671875,1,0.61
2020-05-20 00:53:56.819 -0400,1589950435.999629,41.35200485325564,-71.84493963864942,13.39866,0,-1,3.454728098363339,4.678609921671998,-9999,16139.89177275,0.130828857421875,0.7457427978515625,-0.7122955322265625,1,0.61
2020-05-20 00:53:56.868 -0400,1589950435.999629,41.35200485325564,-71.84493963864942,13.39866,0,-1,3.454728098363339,4.678609921671998,-9999,16139.94165875,0.1669464111328125,0.5894012451171875,-0.7910003662109375,1,0.61
2020-05-20 00:53:56.918 -0400,1589950435.999629,41.35200485325564,-71.84493963864942,13.39866,0,-1,3.454728098363339,4.678609921671998,-9999,16139.99154675,0.0654754638671875,0.75604248046875,-0.9108734130859375,1,0.61
2020-05-20 00:53:56.968 -0400,1589950435.999629,41.35200485325564,-71.84493963864942,13.39866,0,-1,3.454728098363339,4.678609921671998,-9999,16140.04143375,-0.0306854248046875,0.587615966796875,-1.060150146484375,1,0.61
2020-05-20 00:53:57.018 -0400,1589950435.999629,41.35200485325564,-71.84493963864942,13.39866,0,-1,3.454728098363339,4.678609921671998,-9999,16140.09131875,-0.025421142578125,0.522308349609375,-0.997833251953125,1,0.61
2020-05-20 00:53:57.068 -0400,1589950435.999629,41.35200485325564,-71.84493963864942,13.39866,0,-1,3.454728098363339,4.678609921671998,-9999,16140.14120575,0.020172119140625,0.435455322265625,-0.7011871337890625,1,0.61
2020-05-20 00:53:57.118 -0400,1589950435.999629,41.35200485325564,-71.84493963864942,13.39866,0,-1,3.454728098363339,4.678609921671998,-9999,16140.19109275,0.0474090576171875,0.4094390869140625,-1.063690185546875,1,0.61
2020-05-20 00:53:57.168 -0400,1589950435.999629,41.35200485325564,-71.84493963864942,13.39866,0,-1,3.454728098363339,4.678609921671998,-9999,16140.24097875,-0.025634765625,0.3312530517578125,-0.7815399169921875,1,0.61
2020-05-20 00:53:57.218 -0400,1589950435.999629,41.35200485325564,-71.84493963864942,13.39866,0,-1,3.454728098363339,4.678609921671998,-9999,16140.29086375,0.0306854248046875,0.439300537109375,-0.921356201171875,1,0.61
2020-05-20 00:53:57.268 -0400,1589950435.999629,41.35200485325564,-71.84493963864942,13.39866,0,-1,3.454728098363339,4.678609921671998,-9999,16140.34074775,0.017730712890625,0.1717071533203125,-0.7882232666015625,1,0.61
2020-05-20 00:53:57.318 -0400,1589950436.99963,41.35200485325564,-71.84493963864942,13.39866,0,-1,3.452846539684809,4.679998697240788,-9999,16140.39063175,0.0376434326171875,0.2688446044921875,-0.8880462646484375,1,0.61
2020-05-20 00:53:57.367 -0400,1589950436.99963,41.35200485325564,-71.84493963864942,13.39866,0,-1,3.452846539684809,4.679998697240788,-9999,16140.44051575,-0.0078582763671875,0.294189453125,-0.8570709228515625,1,0.61
2020-05-20 00:53:57.417 -0400,1589950436.99963,41.35200485325564,-71.84493963864942,13.39866,0,-1,3.452846539684809,4.679998697240788,-9999,16140.49040275,0.006500244140625,0.2452392578125,-0.970123291015625,1,0.61
2020-05-20 00:53:57.467 -0400,1589950436.99963,41.35200485325564,-71.84493963864942,13.39866,0,-1,3.452846539684809,4.679998697240788,-9999,16140.54029175,0.0193328857421875,0.3046722412109375,-1.041397094726562,1,0.61
2020-05-20 00:53:57.517 -0400,1589950436.99963,41.35200485325564,-71.84493963864942,13.39866,0,-1,3.452846539684809,4.679998697240788,-9999,16140.59018075,-0.0740814208984375,0.256256103515625,-0.9284210205078125,1,0.61
2020-05-20 00:53:57.567 -0400,1589950436.99963,41.35200485325564,-71.84493963864942,13.39866,0,-1,3.452846539684809,4.679998697240788,-9999,16140.64007175,-0.0500030517578125,0.373199462890625,-0.9057464599609375,1,0.61
2020-05-20 00:53:57.617 -0400,1589950436.99963,41.35200485325564,-71.84493963864942,13.39866,0,-1,3.452846539684809,4.679998697240788,-9999,16140.68996375,-0.0542755126953125,0.185150146484375,-1.050018310546875,1,0.61
2020-05-20 00:53:57.667 -0400,1589950436.99963,41.35200485325564,-71.84493963864942,13.39866,0,-1,3.452846539684809,4.679998697240788,-9999,16140.73985191667,-0.086151123046875,0.2977142333984375,-1.014892578125,1,0.61
2020-05-20 00:53:57.716 -0400,1589950436.99963,41.35200485325564,-71.84493963864942,13.39866,0,-1,3.452846539684809,4.679998697240788,-9999,16140.78974091667,-0.046905517578125,0.243896484375,-0.95111083984375,1,0.61
2020-05-20 00:53:57.766 -0400,1589950436.99963,41.35200485325564,-71.84493963864942,13.39866,0,-1,3.452846539684809,4.679998697240788,-9999,16140.83962991667,-0.0660400390625,0.2297210693359375,-0.9210357666015625,1,0.61
2020-05-20 00:53:57.816 -0400,1589950436.99963,41.35200485325564,-71.84493963864942,13.39866,0,-1,3.452846539684809,4.679998697240788,-9999,16140.88951791667,-0.051513671875,0.2402496337890625,-0.9534149169921875,1,0.61
2020-05-20 00:53:57.866 -0400,1589950436.99963,41.35200485325564,-71.84493963864942,13.39866,0,-1,3.452846539684809,4.679998697240788,-9999,16140.93940791667,-0.0546875,0.23876953125,-0.988372802734375,1,0.61
2020-05-20 00:53:57.916 -0400,1589950436.99963,41.35200485325564,-71.84493963864942,13.39866,0,-1,3.452846539684809,4.679998697240788,-9999,16140.98929991667,-0.0826263427734375,0.2736968994140625,-0.98919677734375,1,0.61
2020-05-20 00:53:57.966 -0400,1589950436.99963,41.35200485325564,-71.84493963864942,13.39866,0,-1,3.452846539684809,4.679998697240788,-9999,16141.03919191667,-0.0697784423828125,0.2628631591796875,-0.9933013916015625,1,0.61
2020-05-20 00:53:58.016 -0400,1589950436.99963,41.35200485325564,-71.84493963864942,13.39866,0,-1,3.452846539684809,4.679998697240788,-9999,16141.08908291667,-0.0550537109375,0.24322509765625,-0.9734954833984375,1,0.61
2020-05-20 00:53:58.066 -0400,1589950436.99963,41.35200485325564,-71.84493963864942,13.39866,0,-1,3.452846539684809,4.679998697240788,-9999,16141.13897291667,-0.0270538330078125,0.263641357421875,-0.9617919921875,1,0.61
2020-05-20 00:53:58.116 -0400,1589950436.99963,41.35200485325564,-71.84493963864942,13.39866,0,-1,3.452846539684809,4.679998697240788,-9999,16141.18886091667,-0.016387939453125,0.2419586181640625,-0.964599609375,1,0.61
2020-05-20 00:53:58.165 -0400,1589950436.99963,41.35200485325564,-71.84493963864942,13.39866,0,-1,3.452846539684809,4.679998697240788,-9999,16141.23874691667,-0.0205230712890625,0.233489990234375,-0.9771728515625,1,0.61
2020-05-20 00:53:58.217 -0400,1589950437.999624,41.35200485325564,-71.84493963864942,13.39866,0,-1,3.450858971302363,4.681464449610915,-9999,16141.28863191667,-0.0479736328125,0.2550811767578125,-0.954742431640625,1,0.61
2020-05-20 00:53:58.265 -0400,1589950437.999624,41.35200485325564,-71.84493963864942,13.39866,0,-1,3.450858971302363,4.681464449610915,-9999,16141.33852091667,-0.055999755859375,0.263336181640625,-0.9755706787109375,1,0.61
2020-05-20 00:53:58.315 -0400,1589950437.999624,41.35200485325564,-71.84493963864942,13.39866,0,-1,3.450858971302363,4.681464449610915,-9999,16141.38841291667,-0.064544677734375,0.2542724609375,-0.968414306640625,1,0.61
2020-05-20 00:53:58.365 -0400,1589950437.999624,41.35200485325564,-71.84493963864942,13.39866,0,-1,3.450858971302363,4.681464449610915,-9999,16141.43830191667,-0.06085205078125,0.2576446533203125,-0.9918975830078125,1,0.61
2020-05-20 00:53:58.415 -0400,1589950437.999624,41.35200485325564,-71.84493963864942,13.39866,0,-1,3.450858971302363,4.681464449610915,-9999,16141.48818991667,-0.04803466796875,0.277984619140625,-1.02288818359375,1,0.61
2020-05-20 00:53:58.465 -0400,1589950437.999624,41.35200485325564,-71.84493963864942,13.39866,0,-1,3.450858971302363,4.681464449610915,-9999,16141.53807891667,-0.0928192138671875,0.25732421875,-0.8436737060546875,1,0.61
2020-05-20 00:53:58.515 -0400,1589950437.999624,41.35200485325564,-71.84493963864942,13.39866,0,-1,3.450858971302363,4.681464449610915,-9999,16141.58796691667,-0.009765625,0.3142242431640625,-0.98260498046875,1,0.61
2020-05-20 00:53:58.565 -0400,1589950437.999624,41.35200485325564,-71.84493963864942,13.39866,0,-1,3.450858971302363,4.681464449610915,-9999,16141.63785391667,-0.0589752197265625,0.2473297119140625,-0.9334869384765625,1,0.61
2020-05-20 00:53:58.614 -0400,1589950437.999624,41.35200485325564,-71.84493963864942,13.39866,0,-1,3.450858971302363,4.681464449610915,-9999,16141.68773891667,0.01007080078125,0.2532806396484375,-0.97601318359375,1,0.61
2020-05-20 00:53:58.664 -0400,1589950437.999624,41.35200485325564,-71.84493963864942,13.39866,0,-1,3.450858971302363,4.681464449610915,-9999,16141.737626,-0.050506591796875,0.210113525390625,-1.0723876953125,1,0.61
2020-05-20 00:53:58.714 -0400,1589950437.999624,41.35200485325564,-71.84493963864942,13.39866,0,-1,3.450858971302363,4.681464449610915,-9999,16141.787513,-0.040863037109375,0.19384765625,-0.9764251708984375,1,0.61
2020-05-20 00:53:58.764 -0400,1589950437.999624,41.35200485325564,-71.84493963864942,13.39866,0,-1,3.450858971302363,4.681464449610915,-9999,16141.837401,-0.0057220458984375,0.167938232421875,-1.006515502929688,1,0.61
2020-05-20 00:53:58.814 -0400,1589950437.999624,41.35200485325564,-71.84493963864942,13.39866,0,-1,3.450858971302363,4.681464449610915,-9999,16141.887288,-0.037933349609375,0.2698516845703125,-0.774383544921875,1,0.61
2020-05-20 00:53:58.864 -0400,1589950437.999624,41.35200485325564,-71.84493963864942,13.39866,0,-1,3.450858971302363,4.681464449610915,-9999,16141.937176,0.0079498291015625,0.3077239990234375,-1.027420043945312,1,0.61
2020-05-20 00:53:58.914 -0400,1589950437.999624,41.35200485325564,-71.84493963864942,13.39866,0,-1,3.450858971302363,4.681464449610915,-9999,16141.987062,-0.0451507568359375,0.2505645751953125,-0.8958282470703125,1,0.61
2020-05-20 00:53:58.964 -0400,1589950437.999624,41.35200485325564,-71.84493963864942,13.39866,0,-1,3.450858971302363,4.681464449610915,-9999,16142.036948,-0.009033203125,0.263092041015625,-0.9188079833984375,1,0.61
2020-05-20 00:53:59.014 -0400,1589950437.999624,41.35200485325564,-71.84493963864942,13.39866,0,-1,3.450858971302363,4.681464449610915,-9999,16142.086837,-0.054962158203125,0.262725830078125,-1.0184326171875,1,0.61
2020-05-20 00:53:59.063 -0400,1589950437.999624,41.35200485325564,-71.84493963864942,13.39866,0,-1,3.450858971302363,4.681464449610915,-9999,16142.136725,-0.0072174072265625,0.2633209228515625,-0.99261474609375,1,0.61
2020-05-20 00:53:59.113 -0400,1589950437.999624,41.35200485325564,-71.84493963864942,13.39866,0,-1,3.450858971302363,4.681464449610915,-9999,16142.186616,-0.0424041748046875,0.3023681640625,-0.908966064453125,1,0.61
2020-05-20 00:53:59.163 -0400,1589950437.999624,41.35200485325564,-71.84493963864942,13.39866,0,-1,3.450858971302363,4.681464449610915,-9999,16142.236504,-0.0646209716796875,0.38232421875,-1.031387329101562,1,0.61
2020-05-20 00:53:59.213 -0400,1589950437.999624,41.35200485325564,-71.84493963864942,13.39866,0,-1,3.450858971302363,4.681464449610915,-9999,16142.286393,-0.0767364501953125,0.32977294921875,-0.9428558349609375,1,0.61
2020-05-20 00:53:59.263 -0400,1589950437.999624,41.35200485325564,-71.84493963864942,13.39866,0,-1,3.450858971302363,4.681464449610915,-9999,16142.336283,-0.0258331298828125,0.306640625,-0.9660186767578125,1,0.61
2020-05-20 00:53:59.313 -0400,1589950438.999627,41.35200485325564,-71.84493963864942,13.39866,0,-1,3.449163869198097,4.682713490723861,-9999,16142.386171,-0.0171966552734375,0.292755126953125,-0.9730072021484375,1,0.61
2020-05-20 00:53:59.363 -0400,1589950438.999627,41.35200485325564,-71.84493963864942,13.39866,0,-1,3.449163869198097,4.682713490723861,-9999,16142.436063,-0.017913818359375,0.3094024658203125,-0.97796630859375,1,0.61
2020-05-20 00:53:59.413 -0400,1589950438.999627,41.35200485325564,-71.84493963864942,13.39866,0,-1,3.449163869198097,4.682713490723861,-9999,16142.485952,-0.0243988037109375,0.3170013427734375,-0.8774261474609375,1,0.61
2020-05-20 00:53:59.463 -0400,1589950438.999627,41.35200485325564,-71.84493963864942,13.39866,0,-1,3.449163869198097,4.682713490723861,-9999,16142.53584,-0.006134033203125,0.3432159423828125,-0.985137939453125,1,0.61
2020-05-20 00:53:59.513 -0400,1589950438.999627,41.35200485325564,-71.84493963864942,13.39866,0,-1,3.449163869198097,4.682713490723861,-9999,16142.585728,-0.060516357421875,0.3189239501953125,-0.961090087890625,1,0.61
2020-05-20 00:53:59.562 -0400,1589950438.999627,41.35200485325564,-71.84493963864942,13.39866,0,-1,3.449163869198097,4.682713490723861,-9999,16142.635617,-0.028533935546875,0.3555145263671875,-0.955902099609375,1,0.61
2020-05-20 00:53:59.612 -0400,1589950438.999627,41.35200485325564,-71.84493963864942,13.39866,0,-1,3.449163869198097,4.682713490723861,-9999,16142.685508,-0.0310516357421875,0.33404541015625,-0.9841461181640625,1,0.61
2020-05-20 00:53:59.662 -0400,1589950438.999627,41.35200485325564,-71.84493963864942,13.39866,0,-1,3.449163869198097,4.682713490723861,-9999,16142.73539879167,-0.0745849609375,0.2748565673828125,-0.8845672607421875,1,0.61
2020-05-20 00:53:59.712 -0400,1589950438.999627,41.35200485325564,-71.84493963864942,13.39866,0,-1,3.449163869198097,4.682713490723861,-9999,16142.78528679167,-0.0137939453125,0.4556732177734375,-1.176925659179688,1,0.61
2020-05-20 00:53:59.762 -0400,1589950438.999627,41.35200485325564,-71.84493963864942,13.39866,0,-1,3.449163869198097,4.682713490723861,-9999,16142.83517579167,-0.0628204345703125,0.3468017578125,-0.902374267578125,1,0.61
2020-05-20 00:53:59.812 -0400,1589950438.999627,41.35200485325564,-71.84493963864942,13.39866,0,-1,3.449163869198097,4.682713490723861,-9999,16142.88506479167,-0.0119476318359375,0.372833251953125,-0.8699188232421875,1,0.61
2020-05-20 00:53:59.862 -0400,1589950438.999627,41.35200485325564,-71.84493963864942,13.39866,0,-1,3.449163869198097,4.682713490723861,-9999,16142.93495179167,-0.0284576416015625,0.26055908203125,-1.050582885742188,1,0.61
2020-05-20 00:53:59.912 -0400,1589950438.999627,41.35200485325564,-71.84493963864942,13.39866,0,-1,3.449163869198097,4.682713490723861,-9999,16142.98483979167,-0.0547027587890625,0.3248443603515625,-0.7520294189453125,1,0.61
2020-05-20 00:53:59.962 -0400,1589950438.999627,41.35200485325564,-71.84493963864942,13.39866,0,-1,3.449163869198097,4.682713490723861,-9999,16143.03472879167,0.0159912109375,0.339141845703125,-0.9662628173828125,1,0.61
2020-05-20 00:54:00.011 -0400,1589950438.999627,41.35200485325564,-71.84493963864942,13.39866,0,-1,3.449163869198097,4.682713490723861,-9999,16143.08461579167,-0.065887451171875,0.4174957275390625,-1.013412475585938,1,0.61
2020-05-20 00:54:00.061 -0400,1589950438.999627,41.35200485325564,-71.84493963864942,13.39866,0,-1,3.449163869198097,4.682713490723861,-9999,16143.13450179167,-0.088958740234375,0.2820587158203125,-0.8943634033203125,1,0.61
2020-05-20 00:54:00.111 -0400,1589950438.999627,41.35200485325564,-71.84493963864942,13.39866,0,-1,3.449163869198097,4.682713490723861,-9999,16143.18438779167,-0.0437469482421875,0.384429931640625,-0.9371337890625,1,0.61
2020-05-20 00:54:00.161 -0400,1589950438.999627,41.35200485325564,-71.84493963864942,13.39866,0,-1,3.449163869198097,4.682713490723861,-9999,16143.23427179167,-0.0529632568359375,0.35760498046875,-0.9358367919921875,1,0.61
2020-05-20 00:54:00.211 -0400,1589950438.999627,41.35200485325564,-71.84493963864942,13.39866,0,-1,3.449163869198097,4.682713490723861,-9999,16143.28415979167,-0.0164337158203125,0.3751678466796875,-0.9208221435546875,1,0.61
2020-05-20 00:54:00.261 -0400,1589950438.999627,41.35200485325564,-71.84493963864942,13.39866,0,-1,3.449163869198097,4.682713490723861,-9999,16143.33404279167,-0.045623779296875,0.3709259033203125,-0.9368896484375,1,0.61
2020-05-20 00:54:00.311 -0400,1589950438.999627,41.35200485325564,-71.84493963864942,13.39866,0,-1,3.449163869198097,4.682713490723861,-9999,16143.38392579167,-0.0447998046875,0.35333251953125,-0.9636383056640625,1,0.61
2020-05-20 00:54:00.361 -0400,1589950439.999627,41.35200485325564,-71.84493963864942,13.39866,0,-1,3.446936448302975,4.68435333361493,-9999,16143.43380879167,-0.045806884765625,0.4026336669921875,-0.9630584716796875,1,0.61
2020-05-20 00:54:00.410 -0400,1589950439.999627,41.35200485325564,-71.84493963864942,13.39866,0,-1,3.446936448302975,4.68435333361493,-9999,16143.48369379167,-0.05731201171875,0.3754730224609375,-0.9114990234375,1,0.61
2020-05-20 00:54:00.460 -0400,1589950439.999627,41.35200485325564,-71.84493963864942,13.39866,0,-1,3.446936448302975,4.68435333361493,-9999,16143.53357879167,-0.0102996826171875,0.310821533203125,-0.8791656494140625,1,0.61
2020-05-20 00:54:00.510 -0400,1589950439.999627,41.35200485325564,-71.84493963864942,13.39866,0,-1,3.446936448302975,4.68435333361493,-9999,16143.58346279167,-0.08355712890625,0.4473876953125,-1.050048828125,1,0.61
2020-05-20 00:54:00.560 -0400,1589950439.999627,41.35200485325564,-71.84493963864942,13.39866,0,-1,3.446936448302975,4.68435333361493,-9999,16143.63334679167,-0.02154541015625,0.35015869140625,-0.8627166748046875,1,0.61
2020-05-20 00:54:00.610 -0400,1589950439.999627,41.35200485325564,-71.84493963864942,13.39866,0,-1,3.446936448302975,4.68435333361493,-9999,16143.68323279167,-0.017730712890625,0.3418731689453125,-0.87939453125,1,0.61
2020-05-20 00:54:00.660 -0400,1589950439.999627,41.35200485325564,-71.84493963864942,13.39866,0,-1,3.446936448302975,4.68435333361493,-9999,16143.73311975,-0.035797119140625,0.4134063720703125,-0.920196533203125,1,0.61
2020-05-20 00:54:00.710 -0400,1589950439.999627,41.35200485325564,-71.84493963864942,13.39866,0,-1,3.446936448302975,4.68435333361493,-9999,16143.78300575,-0.0428009033203125,0.4086151123046875,-1.063583374023438,1,0.61
2020-05-20 00:54:00.760 -0400,1589950439.999627,41.35200485325564,-71.84493963864942,13.39866,0,-1,3.446936448302975,4.68435333361493,-9999,16143.83289075,-0.02496337890625,0.2679443359375,-0.9576873779296875,1,0.61
2020-05-20 00:54:00.810 -0400,1589950439.999627,41.35200485325564,-71.84493963864942,13.39866,0,-1,3.446936448302975,4.68435333361493,-9999,16143.88277875,-0.007476806640625,0.3569183349609375,-0.95086669921875,1,0.61
2020-05-20 00:54:00.860 -0400,1589950439.999627,41.35200485325564,-71.84493963864942,13.39866,0,-1,3.446936448302975,4.68435333361493,-9999,16143.93266775,-0.036468505859375,0.2638702392578125,-0.9721832275390625,1,0.61
2020-05-20 00:54:00.909 -0400,1589950439.999627,41.35200485325564,-71.84493963864942,13.39866,0,-1,3.446936448302975,4.68435333361493,-9999,16143.98255475,-0.0223541259765625,0.3428802490234375,-0.9345703125,1,0.61
2020-05-20 00:54:00.959 -0400,1589950439.999627,41.35200485325564,-71.84493963864942,13.39866,0,-1,3.446936448302975,4.68435333361493,-9999,16144.03244175,-0.039215087890625,0.314300537109375,-0.945556640625,1,0.61
2020-05-20 00:54:01.009 -0400,1589950439.999627,41.35200485325564,-71.84493963864942,13.39866,0,-1,3.446936448302975,4.68435333361493,-9999,16144.08232875,-0.014923095703125,0.3035125732421875,-0.9061126708984375,1,0.61
2020-05-20 00:54:01.059 -0400,1589950439.999627,41.35200485325564,-71.84493963864942,13.39866,0,-1,3.446936448302975,4.68435333361493,-9999,16144.13221575,-0.0476837158203125,0.320770263671875,-0.9297027587890625,1,0.61
2020-05-20 00:54:01.109 -0400,1589950439.999627,41.35200485325564,-71.84493963864942,13.39866,0,-1,3.446936448302975,4.68435333361493,-9999,16144.18210275,-0.02508544921875,0.3097991943359375,-0.9321136474609375,1,0.61
2020-05-20 00:54:01.159 -0400,1589950439.999627,41.35200485325564,-71.84493963864942,13.39866,0,-1,3.446936448302975,4.68435333361493,-9999,16144.23198875,-0.033477783203125,0.3800048828125,-0.9843902587890625,1,0.61
2020-05-20 00:54:01.211 -0400,1589950439.999627,41.35200485325564,-71.84493963864942,13.39866,0,-1,3.446936448302975,4.68435333361493,-9999,16144.28187675,-0.0716552734375,0.317657470703125,-0.965484619140625,1,0.61
2020-05-20 00:54:01.259 -0400,1589950440.999629,41.35200485325564,-71.84493963864942,13.39866,0,-1,3.445180985388296,4.685644567261559,-9999,16144.33176375,-0.072662353515625,0.336669921875,-0.9307403564453125,1,0.61
2020-05-20 00:54:01.308 -0400,1589950440.999629,41.35200485325564,-71.84493963864942,13.39866,0,-1,3.445180985388296,4.685644567261559,-9999,16144.38164875,0.0124359130859375,0.2564239501953125,-0.91436767578125,1,0.61
2020-05-20 00:54:01.358 -0400,1589950440.999629,41.35200485325564,-71.84493963864942,13.39866,0,-1,3.445180985388296,4.685644567261559,-9999,16144.43153375,0.02410888671875,0.290802001953125,-0.80419921875,1,0.61
2020-05-20 00:54:01.408 -0400,1589950440.999629,41.35200485325564,-71.84493963864942,13.39866,0,-1,3.445180985388296,4.685644567261559,-9999,16144.48141975,0.001617431640625,0.345855712890625,-0.9998016357421875,1,0.61
2020-05-20 00:54:01.458 -0400,1589950440.999629,41.35200485325564,-71.84493963864942,13.39866,0,-1,3.445180985388296,4.685644567261559,-9999,16144.53130375,-0.08343505859375,0.3250885009765625,-0.8934783935546875,1,0.61
2020-05-20 00:54:01.508 -0400,1589950440.999629,41.35200485325564,-71.84493963864942,13.39866,0,-1,3.445180985388296,4.685644567261559,-9999,16144.58118975,-0.0488739013671875,0.34136962890625,-0.9537200927734375,1,0.61
2020-05-20 00:54:01.558 -0400,1589950440.999629,41.35200485325564,-71.84493963864942,13.39866,0,-1,3.445180985388296,4.685644567261559,-9999,16144.63107575,-0.0406951904296875,0.34765625,-0.927886962890625,1,0.61
2020-05-20 00:54:01.608 -0400,1589950440.999629,41.35200485325564,-71.84493963864942,13.39866,0,-1,3.445180985388296,4.685644567261559,-9999,16144.68096175,0.0013885498046875,0.3636016845703125,-0.9427490234375,1,0.61
2020-05-20 00:54:01.658 -0400,1589950440.999629,41.35200485325564,-71.84493963864942,13.39866,0,-1,3.445180985388296,4.685644567261559,-9999,16144.730848125,-0.019378662109375,0.31768798828125,-0.928253173828125,1,0.61
2020-05-20 00:54:01.707 -0400,1589950440.999629,41.35200485325564,-71.84493963864942,13.39866,0,-1,3.445180985388296,4.685644567261559,-9999,16144.780734125,-0.034515380859375,0.3731842041015625,-0.960723876953125,1,0.61
2020-05-20 00:54:01.757 -0400,1589950440.999629,41.35200485325564,-71.84493963864942,13.39866,0,-1,3.445180985388296,4.685644567261559,-9999,16144.830616125,-0.0524444580078125,0.345184326171875,-0.9578857421875,1,0.61
2020-05-20 00:54:01.807 -0400,1589950440.999629,41.35200485325564,-71.84493963864942,13.39866,0,-1,3.445180985388296,4.685644567261559,-9999,16144.880497125,0.0219268798828125,0.3589935302734375,-0.8838348388671875,1,0.61
2020-05-20 00:54:01.857 -0400,1589950440.999629,41.35200485325564,-71.84493963864942,13.39866,0,-1,3.445180985388296,4.685644567261559,-9999,16144.930383125,-0.0019073486328125,0.3696136474609375,-0.9924468994140625,1,0.61
2020-05-20 00:54:01.907 -0400,1589950440.999629,41.35200485325564,-71.84493963864942,13.39866,0,-1,3.445180985388296,4.685644567261559,-9999,16144.980268125,-0.0673370361328125,0.395751953125,-0.89581298828125,1,0.61
2020-05-20 00:54:01.957 -0400,1589950440.999629,41.35200485325564,-71.84493963864942,13.39866,0,-1,3.445180985388296,4.685644567261559,-9999,16145.030154125,-0.0007476806640625,0.274139404296875,-0.8300628662109375,1,0.61
2020-05-20 00:54:02.007 -0400,1589950440.999629,41.35200485325564,-71.84493963864942,13.39866,0,-1,3.445180985388296,4.685644567261559,-9999,16145.080038125,-0.043975830078125,0.3480987548828125,-1.058929443359375,1,0.61
2020-05-20 00:54:02.057 -0400,1589950440.999629,41.35200485325564,-71.84493963864942,13.39866,0,-1,3.445180985388296,4.685644567261559,-9999,16145.129924125,-0.04693603515625,0.35107421875,-0.934661865234375,1,0.61
2020-05-20 00:54:02.107 -0400,1589950440.999629,41.35200485325564,-71.84493963864942,13.39866,0,-1,3.445180985388296,4.685644567261559,-9999,16145.179809125,-0.0198516845703125,0.4215545654296875,-0.9440460205078125,1,0.61
2020-05-20 00:54:02.156 -0400,1589950440.999629,41.35200485325564,-71.84493963864942,13.39866,0,-1,3.445180985388296,4.685644567261559,-9999,16145.229695125,-0.022796630859375,0.3237762451171875,-0.91888427734375,1,0.61
2020-05-20 00:54:02.206 -0400,1589950440.999629,41.35200485325564,-71.84493963864942,13.39866,0,-1,3.445180985388296,4.685644567261559,-9999,16145.279581125,0.0013275146484375,0.3595123291015625,-0.876800537109375,1,0.61
2020-05-20 00:54:02.256 -0400,1589950441.999628,41.35200485325564,-71.84493963864942,13.39866,0,-1,3.443332746577995,4.687002947420929,-9999,16145.329470125,-0.01226806640625,0.3234100341796875,-0.9267425537109375,1,0.61
2020-05-20 00:54:02.306 -0400,1589950441.999628,41.35200485325564,-71.84493963864942,13.39866,0,-1,3.443332746577995,4.687002947420929,-9999,16145.379357125,-0.048187255859375,0.4141998291015625,-0.984130859375,1,0.61
2020-05-20 00:54:02.356 -0400,1589950441.999628,41.35200485325564,-71.84493963864942,13.39866,0,-1,3.443332746577995,4.687002947420929,-9999,16145.429244125,-0.0275421142578125,0.3260955810546875,-0.9602508544921875,1,0.61
2020-05-20 00:54:02.406 -0400,1589950441.999628,41.35200485325564,-71.84493963864942,13.39866,0,-1,3.443332746577995,4.687002947420929,-9999,16145.479133125,0.0042724609375,0.4186859130859375,-0.9253387451171875,1,0.61
2020-05-20 00:54:02.456 -0400,1589950441.999628,41.35200485325564,-71.84493963864942,13.39866,0,-1,3.443332746577995,4.687002947420929,-9999,16145.529022125,0.0343780517578125,0.172943115234375,-0.9326324462890625,1,0.61
2020-05-20 00:54:02.506 -0400,1589950441.999628,41.35200485325564,-71.84493963864942,13.39866,0,-1,3.443332746577995,4.687002947420929,-9999,16145.578912125,-0.0174102783203125,0.391632080078125,-0.9599609375,1,0.61
