loggingTime(txt),locationTimestamp_since1970(s),locationLatitude(WGS84),locationLongitude(WGS84),locationAltitude(m),locationSpeed(m/s),locationCourse(°),locationVerticalAccuracy(m),locationHorizontalAccuracy(m),locationFloor(Z),accelerometerTimestamp_sinceReboot(s),accelerometerAccelerationX(G),accelerometerAccelerationY(G),accelerometerAccelerationZ(G),batteryState,batteryLevel
2020-05-20 01:14:22.854 -0400,1589951661.999672,41.35196690703129,-71.84494203856271,20.74865,0,-1,3.358060257892066,4.748470104902705,-9999,16708.000457125,-0.072357177734375,-0.3292694091796875,-0.9472198486328125,1,0.6
2020-05-20 01:14:22.893 -0400,1589951661.999672,41.35196690703129,-71.84494203856271,20.74865,0,-1,3.358060257892066,4.748470104902705,-9999,16708.050343125,-0.0722503662109375,-0.3253631591796875,-0.9387664794921875,1,0.6
2020-05-20 01:14:22.942 -0400,1589951661.999672,41.35196690703129,-71.84494203856271,20.74865,0,-1,3.358060257892066,4.748470104902705,-9999,16708.100229125,-0.0682220458984375,-0.3209075927734375,-0.9352874755859375,1,0.6
2020-05-20 01:14:22.992 -0400,1589951661.999672,41.35196690703129,-71.84494203856271,20.74865,0,-1,3.358060257892066,4.748470104902705,-9999,16708.150115125,-0.07073974609375,-0.3274078369140625,-0.94000244140625,1,0.6
2020-05-20 01:14:23.042 -0400,1589951661.999672,41.35196690703129,-71.84494203856271,20.74865,0,-1,3.358060257892066,4.748470104902705,-9999,16708.199998125,-0.0756072998046875,-0.333526611328125,-0.9378814697265625,1,0.6
2020-05-20 01:14:23.092 -0400,1589951661.999672,41.35196690703129,-71.84494203856271,20.74865,0,-1,3.358060257892066,4.748470104902705,-9999,16708.249883125,-0.092498779296875,-0.3063507080078125,-0.943572998046875,1,0.6
2020-05-20 01:14:23.142 -0400,1589951661.999672,41.35196690703129,-71.84494203856271,20.74865,0,-1,3.358060257892066,4.748470104902705,-9999,16708.299768125,-0.0861358642578125,-0.3016357421875,-0.944122314453125,1,0.6
2020-05-20 01:14:23.192 -0400,1589951661.999672,41.35196690703129,-71.84494203856271,20.74865,0,-1,3.358060257892066,4.748470104902705,-9999,16708.349654125,-0.040863037109375,-0.281951904296875,-0.9575042724609375,1,0.6
2020-05-20 01:14:23.242 -0400,1589951662.999669,41.35197078791243,-71.84494234633499,20.32825,0,-1,3.311640396906363,4.780959622750092,-9999,16708.399537125,-0.012115478515625,-0.321502685546875,-0.9118499755859375,1,0.6
2020-05-20 01:14:23.292 -0400,1589951662.999669,41.35197078791243,-71.84494234633499,20.32825,0,-1,3.311640396906363,4.780959622750092,-9999,16708.449421125,-0.04486083984375,-0.34234619140625,-0.883209228515625,1,0.6
2020-05-20 01:14:23.342 -0400,1589951662.999669,41.35197078791243,-71.84494234633499,20.32825,0,-1,3.311640396906363,4.780959622750092,-9999,16708.499304125,-0.1003570556640625,-0.35699462890625,-0.8963623046875,1,0.6
2020-05-20 01:14:23.391 -0400,1589951662.999669,41.35197078791243,-71.84494234633499,20.32825,0,-1,3.311640396906363,4.780959622750092,-9999,16708.549191125,-0.082244873046875,-0.2397918701171875,-0.8841094970703125,1,0.6
2020-05-20 01:14:23.441 -0400,1589951662.999669,41.35197078791243,-71.84494234633499,20.32825,0,-1,3.311640396906363,4.780959622750092,-9999,16708.599072125,-0.0063629150390625,0.089996337890625,-0.909027099609375,1,0.6
2020-05-20 01:14:23.491 -0400,1589951662.999669,41.35197078791243,-71.84494234633499,20.32825,0,-1,3.311640396906363,4.780959622750092,-9999,16708.648955125,0.0519561767578125,0.2875213623046875,-0.92431640625,1,0.6
2020-05-20 01:14:23.549 -0400,1589951662.999669,41.35197078791243,-71.84494234633499,20.32825,0,-1,3.311640396906363,4.780959622750092,-9999,16708.698839125,0.130035400390625,0.51885986328125,-0.80718994140625,1,0.6
2020-05-20 01:14:23.591 -0400,1589951662.999669,41.35197078791243,-71.84494234633499,20.32825,0,-1,3.311640396906363,4.780959622750092,-9999,16708.748721125,0.1219024658203125,0.6306610107421875,-0.688201904296875,1,0.6
2020-05-20 01:14:23.641 -0400,1589951662.999669,41.35197078791243,-71.84494234633499,20.32825,0,-1,3.311640396906363,4.780959622750092,-9999,16708.798604125,-0.0246124267578125,0.682769775390625,-0.6995849609375,1,0.6
2020-05-20 01:14:23.691 -0400,1589951662.999669,41.35197078791243,-71.84494234633499,20.32825,0,-1,3.311640396906363,4.780959622750092,-9999,16708.848486125,-0.0444793701171875,0.790740966796875,-0.560577392578125,1,0.6
2020-05-20 01:14:23.741 -0400,1589951662.999669,41.35197078791243,-71.84494234633499,20.32825,0,-1,3.311640396906363,4.780959622750092,-9999,16708.898368125,-0.0814361572265625,0.88922119140625,-0.4766082763671875,1,0.6
2020-05-20 01:14:23.791 -0400,1589951662.999669,41.35197078791243,-71.84494234633499,20.32825,0,-1,3.311640396906363,4.780959622750092,-9999,16708.948256125,-0.0835723876953125,0.9634857177734375,-0.3546295166015625,1,0.6
2020-05-20 01:14:23.841 -0400,1589951662.999669,41.35197078791243,-71.84494234633499,20.32825,0,-1,3.311640396906363,4.780959622750092,-9999,16708.998142125,-0.1544342041015625,1.0068359375,-0.345916748046875,1,0.6
2020-05-20 01:14:23.890 -0400,1589951662.999669,41.35197078791243,-71.84494234633499,20.32825,0,-1,3.311640396906363,4.780959622750092,-9999,16709.048027125,-0.3975067138671875,1.224197387695312,-0.3201446533203125,1,0.6
2020-05-20 01:14:23.940 -0400,1589951662.999669,41.35197078791243,-71.84494234633499,20.32825,0,-1,3.311640396906363,4.780959622750092,-9999,16709.097915125,-0.264984130859375,1.115402221679688,-0.263763427734375,1,0.6
2020-05-20 01:14:23.990 -0400,1589951662.999669,41.35197078791243,-71.84494234633499,20.32825,0,-1,3.311640396906363,4.780959622750092,-9999,16709.147802125,-0.25537109375,1.009674072265625,-0.142120361328125,1,0.6
2020-05-20 01:14:24.050 -0400,1589951662.999669,41.35197078791243,-71.84494234633499,20.32825,0,-1,3.311640396906363,4.780959622750092,-9999,16709.197687125,-0.1419830322265625,0.9517364501953125,-0.049560546875,1,0.6
2020-05-20 01:14:24.090 -0400,1589951662.999669,41.35197078791243,-71.84494234633499,20.32825,0,-1,3.311640396906363,4.780959622750092,-9999,16709.247572125,-0.2358245849609375,0.8751220703125,-0.05035400390625,1,0.6
2020-05-20 01:14:24.140 -0400,1589951662.999669,41.35197078791243,-71.84494234633499,20.32825,0,-1,3.311640396906363,4.780959622750092,-9999,16709.297459125,-0.3439788818359375,0.9414215087890625,0.0516815185546875,1,0.6
2020-05-20 01:14:24.190 -0400,1589951662.999669,41.35197078791243,-71.84494234633499,20.32825,0,-1,3.311640396906363,4.780959622750092,-9999,16709.347345125,-0.3208770751953125,1.003829956054688,0.0894927978515625,1,0.6
2020-05-20 01:14:24.240 -0400,1589951662.999669,41.35197078791243,-71.84494234633499,20.32825,0,-1,3.311640396906363,4.780959622750092,-9999,16709.397229125,-0.2759857177734375,0.98052978515625,0.150970458984375,1,0.6
2020-05-20 01:14:24.290 -0400,1589951662.999669,41.35197078791243,-71.84494234633499,20.32825,0,-1,3.311640396906363,4.780959622750092,-9999,16709.447115125,-0.27423095703125,0.9378509521484375,0.1905059814453125,1,0.6
2020-05-20 01:14:24.345 -0400,1589951662.999669,41.35197078791243,-71.84494234633499,20.32825,0,-1,3.311640396906363,4.780959622750092,-9999,16709.49700316667,-0.2961883544921875,0.89697265625,0.1765289306640625,1,0.6
2020-05-20 01:14:24.389 -0400,1589951663.999671,41.35196863562471,-71.8449548825553,19.79376,0,-1,3.313351767600238,4.779773749554388,-9999,16709.54688716667,-0.290496826171875,0.9408111572265625,0.303070068359375,1,0.6
2020-05-20 01:14:24.439 -0400,1589951663.999671,41.35196863562471,-71.8449548825553,19.79376,0,-1,3.313351767600238,4.779773749554388,-9999,16709.59677216667,-0.27081298828125,0.9668426513671875,0.2789459228515625,1,0.6
2020-05-20 01:14:24.489 -0400,1589951663.999671,41.35196863562471,-71.8449548825553,19.79376,0,-1,3.313351767600238,4.779773749554388,-9999,16709.64665816667,-0.2447357177734375,0.9056243896484375,0.3497314453125,1,0.6
2020-05-20 01:14:24.539 -0400,1589951663.999671,41.35196863562471,-71.8449548825553,19.79376,0,-1,3.313351767600238,4.779773749554388,-9999,16709.69654716667,-0.2578125,0.920135498046875,0.2971343994140625,1,0.6
2020-05-20 01:14:24.589 -0400,1589951663.999671,41.35196863562471,-71.8449548825553,19.79376,0,-1,3.313351767600238,4.779773749554388,-9999,16709.74643416667,-0.2364501953125,0.98187255859375,0.2696380615234375,1,0.6
2020-05-20 01:14:24.638 -0400,1589951663.999671,41.35196863562471,-71.8449548825553,19.79376,0,-1,3.313351767600238,4.779773749554388,-9999,16709.79632316667,-0.156036376953125,0.9767608642578125,0.1431121826171875,1,0.6
2020-05-20 01:14:24.688 -0400,1589951663.999671,41.35196863562471,-71.8449548825553,19.79376,0,-1,3.313351767600238,4.779773749554388,-9999,16709.84621016667,-0.0884246826171875,1.040298461914062,0.0399322509765625,1,0.6
2020-05-20 01:14:24.738 -0400,1589951663.999671,41.35196863562471,-71.8449548825553,19.79376,0,-1,3.313351767600238,4.779773749554388,-9999,16709.89609716667,-0.1849365234375,0.960052490234375,0.24169921875,1,0.6
2020-05-20 01:14:24.788 -0400,1589951663.999671,41.35196863562471,-71.8449548825553,19.79376,0,-1,3.313351767600238,4.779773749554388,-9999,16709.94598416667,-0.1601104736328125,0.9198455810546875,0.1579742431640625,1,0.6
2020-05-20 01:14:24.838 -0400,1589951663.999671,41.35196863562471,-71.8449548825553,19.79376,0,-1,3.313351767600238,4.779773749554388,-9999,16709.99587316667,-0.16619873046875,0.99920654296875,0.190093994140625,1,0.6
2020-05-20 01:14:24.888 -0400,1589951663.999671,41.35196863562471,-71.8449548825553,19.79376,0,-1,3.313351767600238,4.779773749554388,-9999,16710.04576316667,-0.1436920166015625,0.9602203369140625,0.1484832763671875,1,0.6
2020-05-20 01:14:24.938 -0400,1589951663.999671,41.35196863562471,-71.8449548825553,19.79376,0,-1,3.313351767600238,4.779773749554388,-9999,16710.09565016667,-0.1399078369140625,0.962677001953125,0.1994476318359375,1,0.6
2020-05-20 01:14:24.988 -0400,1589951663.999671,41.35196863562471,-71.8449548825553,19.79376,0,-1,3.313351767600238,4.779773749554388,-9999,16710.14553916667,-0.1571044921875,0.9754180908203125,0.233673095703125,1,0.6
2020-05-20 01:14:25.038 -0400,1589951663.999671,41.35196863562471,-71.8449548825553,19.79376,0,-1,3.313351767600238,4.779773749554388,-9999,16710.19542616667,-0.1631622314453125,0.9761199951171875,0.2277984619140625,1,0.6
2020-05-20 01:14:25.088 -0400,1589951663.999671,41.35196863562471,-71.8449548825553,19.79376,0,-1,3.313351767600238,4.779773749554388,-9999,16710.24531416667,-0.1498870849609375,0.9598388671875,0.203399658203125,1,0.6
2020-05-20 01:14:25.137 -0400,1589951663.999671,41.35196863562471,-71.8449548825553,19.79376,0,-1,3.313351767600238,4.779773749554388,-9999,16710.29520316667,-0.14739990234375,0.9678497314453125,0.2111053466796875,1,0.6
2020-05-20 01:14:25.187 -0400,1589951663.999671,41.35196863562471,-71.8449548825553,19.79376,0,-1,3.313351767600238,4.779773749554388,-9999,16710.34509116667,-0.146697998046875,0.98187255859375,0.215911865234375,1,0.6
2020-05-20 01:14:25.237 -0400,1589951663.999671,41.35196863562471,-71.8449548825553,19.79376,0,-1,3.313351767600238,4.779773749554388,-9999,16710.39497716667,-0.1426544189453125,0.955902099609375,0.2060394287109375,1,0.6
2020-05-20 01:14:25.287 -0400,1589951663.999671,41.35196863562471,-71.8449548825553,19.79376,0,-1,3.313351767600238,4.779773749554388,-9999,16710.44486616667,-0.1447906494140625,0.9693450927734375,0.2126922607421875,1,0.6
2020-05-20 01:14:25.337 -0400,1589951664.999669,41.35197393099885,-71.84495652147658,19.34168,0,-1,3.316956391761791,4.777273001194241,-9999,16710.49475691667,-0.1477203369140625,0.97564697265625,0.2080841064453125,1,0.6
2020-05-20 01:14:25.387 -0400,1589951664.999669,41.35197393099885,-71.84495652147658,19.34168,0,-1,3.316956391761791,4.777273001194241,-9999,16710.54464691667,-0.145263671875,0.956939697265625,0.2054290771484375,1,0.6
2020-05-20 01:14:25.437 -0400,1589951664.999669,41.35197393099885,-71.84495652147658,19.34168,0,-1,3.316956391761791,4.777273001194241,-9999,16710.59453591667,-0.152252197265625,0.9705963134765625,0.2194061279296875,1,0.6
2020-05-20 01:14:25.487 -0400,1589951664.999669,41.35197393099885,-71.84495652147658,19.34168,0,-1,3.316956391761791,4.777273001194241,-9999,16710.64442591667,-0.153289794921875,0.9629364013671875,0.214599609375,1,0.6
2020-05-20 01:14:25.537 -0400,1589951664.999669,41.35197393099885,-71.84495652147658,19.34168,0,-1,3.316956391761791,4.777273001194241,-9999,16710.69431291667,-0.1472015380859375,0.959686279296875,0.2204437255859375,1,0.6
2020-05-20 01:14:25.586 -0400,1589951664.999669,41.35197393099885,-71.84495652147658,19.34168,0,-1,3.316956391761791,4.777273001194241,-9999,16710.74420391667,-0.1524810791015625,0.9665374755859375,0.2277679443359375,1,0.6
2020-05-20 01:14:25.636 -0400,1589951664.999669,41.35197393099885,-71.84495652147658,19.34168,0,-1,3.316956391761791,4.777273001194241,-9999,16710.79409291667,-0.1490478515625,0.963836669921875,0.225616455078125,1,0.6
2020-05-20 01:14:25.686 -0400,1589951664.999669,41.35197393099885,-71.84495652147658,19.34168,0,-1,3.316956391761791,4.777273001194241,-9999,16710.84398191667,-0.151824951171875,0.9640960693359375,0.2304534912109375,1,0.6
2020-05-20 01:14:25.736 -0400,1589951664.999669,41.35197393099885,-71.84495652147658,19.34168,0,-1,3.316956391761791,4.777273001194241,-9999,16710.89386891667,-0.15350341796875,0.966766357421875,0.2327117919921875,1,0.6
2020-05-20 01:14:25.786 -0400,1589951664.999669,41.35197393099885,-71.84495652147658,19.34168,0,-1,3.316956391761791,4.777273001194241,-9999,16710.94375491667,-0.15045166015625,0.9657135009765625,0.223175048828125,1,0.6
2020-05-20 01:14:25.836 -0400,1589951664.999669,41.35197393099885,-71.84495652147658,19.34168,0,-1,3.316956391761791,4.777273001194241,-9999,16710.99363891667,-0.1490478515625,0.96710205078125,0.222015380859375,1,0.6
2020-05-20 01:14:25.886 -0400,1589951664.999669,41.35197393099885,-71.84495652147658,19.34168,0,-1,3.316956391761791,4.777273001194241,-9999,16711.04352391667,-0.1544342041015625,0.9622650146484375,0.246856689453125,1,0.6
2020-05-20 01:14:25.936 -0400,1589951664.999669,41.35197393099885,-71.84495652147658,19.34168,0,-1,3.316956391761791,4.777273001194241,-9999,16711.09341091667,-0.1488189697265625,0.9573211669921875,0.2227783203125,1,0.6
2020-05-20 01:14:25.987 -0400,1589951664.999669,41.35197393099885,-71.84495652147658,19.34168,0,-1,3.316956391761791,4.777273001194241,-9999,16711.14329391667,-0.1533660888671875,0.9705963134765625,0.21905517578125,1,0.6
2020-05-20 01:14:26.036 -0400,1589951664.999669,41.35197393099885,-71.84495652147658,19.34168,0,-1,3.316956391761791,4.777273001194241,-9999,16711.19317791667,-0.149993896484375,0.94915771484375,0.2303466796875,1,0.6
2020-05-20 01:14:26.085 -0400,1589951664.999669,41.35197393099885,-71.84495652147658,19.34168,0,-1,3.316956391761791,4.777273001194241,-9999,16711.24306291667,-0.1519012451171875,0.9664459228515625,0.249114990234375,1,0.6
2020-05-20 01:14:26.135 -0400,1589951664.999669,41.35197393099885,-71.84495652147658,19.34168,0,-1,3.316956391761791,4.777273001194241,-9999,16711.29294491667,-0.1558380126953125,0.960052490234375,0.234466552734375,1,0.6
2020-05-20 01:14:26.185 -0400,1589951664.999669,41.35197393099885,-71.84495652147658,19.34168,0,-1,3.316956391761791,4.777273001194241,-9999,16711.34282891667,-0.1403656005859375,0.9485626220703125,0.226318359375,1,0.6
2020-05-20 01:14:26.236 -0400,1589951665.999663,41.35197303399889,-71.84495546313393,19.09988,0,-1,3.268732822967057,4.810397360389955,-9999,16711.39271491667,-0.1543121337890625,0.9528656005859375,0.2704925537109375,1,0.6
2020-05-20 01:14:26.285 -0400,1589951665.999663,41.35197303399889,-71.84495546313393,19.09988,0,-1,3.268732822967057,4.810397360389955,-9999,16711.44259891667,-0.1427764892578125,0.9601287841796875,0.2584686279296875,1,0.6
2020-05-20 01:14:26.335 -0400,1589951665.999663,41.35197303399889,-71.84495546313393,19.09988,0,-1,3.268732822967057,4.810397360389955,-9999,16711.492483375,-0.134429931640625,0.9386749267578125,0.305999755859375,1,0.6
2020-05-20 01:14:26.385 -0400,1589951665.999663,41.35197303399889,-71.84495546313393,19.09988,0,-1,3.268732822967057,4.810397360389955,-9999,16711.542370375,-0.140960693359375,0.9372406005859375,0.231170654296875,1,0.6
2020-05-20 01:14:26.434 -0400,1589951665.999663,41.35197303399889,-71.84495546313393,19.09988,0,-1,3.268732822967057,4.810397360389955,-9999,16711.592261375,-0.146514892578125,0.949188232421875,0.329681396484375,1,0.6
2020-05-20 01:14:26.512 -0400,1589951665.999663,41.35197303399889,-71.84495546313393,19.09988,0,-1,3.268732822967057,4.810397360389955,-9999,16711.642148375,-0.145294189453125,0.9465179443359375,0.32684326171875,1,0.6
2020-05-20 01:14:26.552 -0400,1589951665.999663,41.35197303399889,-71.84495546313393,19.09988,0,-1,3.268732822967057,4.810397360389955,-9999,16711.692033375,-0.1463623046875,0.9323883056640625,0.3644561767578125,1,0.6
2020-05-20 01:14:26.596 -0400,1589951665.999663,41.35197303399889,-71.84495546313393,19.09988,0,-1,3.268732822967057,4.810397360389955,-9999,16711.741920375,-0.1490325927734375,0.916900634765625,0.3501434326171875,1,0.6
2020-05-20 01:14:26.634 -0400,1589951665.999663,41.35197303399889,-71.84495546313393,19.09988,0,-1,3.268732822967057,4.810397360389955,-9999,16711.791807375,-0.1596527099609375,0.93426513671875,0.3807830810546875,1,0.6
2020-05-20 01:14:26.684 -0400,1589951665.999663,41.35197303399889,-71.84495546313393,19.09988,0,-1,3.268732822967057,4.810397360389955,-9999,16711.841694375,-0.151123046875,0.9101715087890625,0.35150146484375,1,0.6
2020-05-20 01:14:26.734 -0400,1589951665.999663,41.35197303399889,-71.84495546313393,19.09988,0,-1,3.268732822967057,4.810397360389955,-9999,16711.891579375,-0.150970458984375,0.9401702880859375,0.354827880859375,1,0.6
2020-05-20 01:14:26.783 -0400,1589951665.999663,41.35197303399889,-71.84495546313393,19.09988,0,-1,3.268732822967057,4.810397360389955,-9999,16711.941463375,-0.1480255126953125,0.916748046875,0.356231689453125,1,0.6
2020-05-20 01:14:26.833 -0400,1589951665.999663,41.35197303399889,-71.84495546313393,19.09988,0,-1,3.268732822967057,4.810397360389955,-9999,16711.991351375,-0.1504669189453125,0.92608642578125,0.375335693359375,1,0.6
2020-05-20 01:14:26.883 -0400,1589951665.999663,41.35197303399889,-71.84495546313393,19.09988,0,-1,3.268732822967057,4.810397360389955,-9999,16712.041236375,-0.156951904296875,0.9134063720703125,0.35968017578125,1,0.6
2020-05-20 01:14:26.933 -0400,1589951665.999663,41.35197303399889,-71.84495546313393,19.09988,0,-1,3.268732822967057,4.810397360389955,-9999,16712.091122375,-0.1567230224609375,0.9234771728515625,0.3572845458984375,1,0.6
2020-05-20 01:14:26.983 -0400,1589951665.999663,41.35197303399889,-71.84495546313393,19.09988,0,-1,3.268732822967057,4.810397360389955,-9999,16712.141009375,-0.15667724609375,0.9232177734375,0.3618927001953125,1,0.6
2020-05-20 01:14:27.033 -0400,1589951665.999663,41.35197303399889,-71.84495546313393,19.09988,0,-1,3.268732822967057,4.810397360389955,-9999,16712.190901375,-0.1531982421875,0.924713134765625,0.3592529296875,1,0.6
2020-05-20 01:14:27.083 -0400,1589951665.999663,41.35197303399889,-71.84495546313393,19.09988,0,-1,3.268732822967057,4.810397360389955,-9999,16712.240790375,-0.152313232421875,0.9386749267578125,0.3591461181640625,1,0.6
2020-05-20 01:14:27.133 -0400,1589951665.999663,41.35197303399889,-71.84495546313393,19.09988,0,-1,3.268732822967057,4.810397360389955,-9999,16712.290680375,-0.15643310546875,0.9218902587890625,0.358245849609375,1,0.6
2020-05-20 01:14:27.183 -0400,1589951665.999663,41.35197303399889,-71.84495546313393,19.09988,0,-1,3.268732822967057,4.810397360389955,-9999,16712.340565375,-0.1557159423828125,0.9235382080078125,0.3508758544921875,1,0.6
2020-05-20 01:14:27.233 -0400,1589951665.999663,41.35197303399889,-71.84495546313393,19.09988,0,-1,3.268732822967057,4.810397360389955,-9999,16712.390451375,-0.15386962890625,0.924835205078125,0.3594207763671875,1,0.6
2020-05-20 01:14:27.283 -0400,1589951665.999663,41.35197303399889,-71.84495546313393,19.09988,0,-1,3.268732822967057,4.810397360389955,-9999,16712.440334375,-0.1494598388671875,0.9232330322265625,0.3536376953125,1,0.6
2020-05-20 01:14:27.333 -0400,1589951666.999661,41.35197175082139,-71.8449452503929,20.80853,0.6162745,-1,3.30392307574666,4.786295994016414,-9999,16712.49021779167,-0.152618408203125,0.9205780029296875,0.352996826171875,1,0.6
2020-05-20 01:14:27.382 -0400,1589951666.999661,41.35197175082139,-71.8449452503929,20.80853,0.6162745,-1,3.30392307574666,4.786295994016414,-9999,16712.54010379167,-0.1507720947265625,0.919647216796875,0.344940185546875,1,0.6
2020-05-20 01:14:27.432 -0400,1589951666.999661,41.35197175082139,-71.8449452503929,20.80853,0.6162745,-1,3.30392307574666,4.786295994016414,-9999,16712.58998779167,-0.1504058837890625,0.92974853515625,0.3538818359375,1,0.6
2020-05-20 01:14:27.482 -0400,1589951666.999661,41.35197175082139,-71.8449452503929,20.80853,0.6162745,-1,3.30392307574666,4.786295994016414,-9999,16712.63987479167,-0.15277099609375,0.9210052490234375,0.35357666015625,1,0.6
2020-05-20 01:14:27.532 -0400,1589951666.999661,41.35197175082139,-71.8449452503929,20.80853,0.6162745,-1,3.30392307574666,4.786295994016414,-9999,16712.68976679167,-0.152679443359375,0.9218292236328125,0.3539581298828125,1,0.6
2020-05-20 01:14:27.585 -0400,1589951666.999661,41.35197175082139,-71.8449452503929,20.80853,0.6162745,-1,3.30392307574666,4.786295994016414,-9999,16712.73965679167,-0.1558837890625,0.9231109619140625,0.35162353515625,1,0.6
2020-05-20 01:14:27.632 -0400,1589951666.999661,41.35197175082139,-71.8449452503929,20.80853,0.6162745,-1,3.30392307574666,4.786295994016414,-9999,16712.78954479167,-0.1533203125,0.924957275390625,0.36175537109375,1,0.6
2020-05-20 01:14:27.683 -0400,1589951666.999661,41.35197175082139,-71.8449452503929,20.80853,0.6162745,-1,3.30392307574666,4.786295994016414,-9999,16712.83943279167,-0.1509857177734375,0.921112060546875,0.34759521484375,1,0.6
2020-05-20 01:14:27.732 -0400,1589951666.999661,41.35197175082139,-71.8449452503929,20.80853,0.6162745,-1,3.30392307574666,4.786295994016414,-9999,16712.88931879167,-0.1515350341796875,0.920989990234375,0.3503875732421875,1,0.6
2020-05-20 01:14:27.781 -0400,1589951666.999661,41.35197175082139,-71.8449452503929,20.80853,0.6162745,-1,3.30392307574666,4.786295994016414,-9999,16712.93920479167,-0.151824951171875,0.9283599853515625,0.3510589599609375,1,0.6
2020-05-20 01:14:27.831 -0400,1589951666.999661,41.35197175082139,-71.8449452503929,20.80853,0.6162745,-1,3.30392307574666,4.786295994016414,-9999,16712.98909079167,-0.1517486572265625,0.93133544921875,0.352569580078125,1,0.6
2020-05-20 01:14:27.881 -0400,1589951666.999661,41.35197175082139,-71.8449452503929,20.80853,0.6162745,-1,3.30392307574666,4.786295994016414,-9999,16713.03897979167,-0.1533355712890625,0.9276580810546875,0.3586883544921875,1,0.6
2020-05-20 01:14:27.931 -0400,1589951666.999661,41.35197175082139,-71.8449452503929,20.80853,0.6162745,-1,3.30392307574666,4.786295994016414,-9999,16713.08886779167,-0.14825439453125,0.929779052734375,0.3471832275390625,1,0.6
2020-05-20 01:14:27.981 -0400,1589951666.999661,41.35197175082139,-71.8449452503929,20.80853,0.6162745,-1,3.30392307574666,4.786295994016414,-9999,16713.13875679167,-0.1532440185546875,0.9109039306640625,0.36041259765625,1,0.6
2020-05-20 01:14:28.031 -0400,1589951666.999661,41.35197175082139,-71.8449452503929,20.80853,0.6162745,-1,3.30392307574666,4.786295994016414,-9999,16713.18864179167,-0.1503448486328125,0.92364501953125,0.3516387939453125,1,0.6
2020-05-20 01:14:28.081 -0400,1589951666.999661,41.35197175082139,-71.8449452503929,20.80853,0.6162745,-1,3.30392307574666,4.786295994016414,-9999,16713.23852879167,-0.15093994140625,0.92376708984375,0.36444091796875,1,0.6
2020-05-20 01:14:28.131 -0400,1589951666.999661,41.35197175082139,-71.8449452503929,20.80853,0.6162745,-1,3.30392307574666,4.786295994016414,-9999,16713.28841579167,-0.153167724609375,0.9180755615234375,0.350250244140625,1,0.6
2020-05-20 01:14:28.180 -0400,1589951666.999661,41.35197175082139,-71.8449452503929,20.80853,0.6162745,-1,3.30392307574666,4.786295994016414,-9999,16713.33830279167,-0.15521240234375,0.9220428466796875,0.3573150634765625,1,0.6
2020-05-20 01:14:28.230 -0400,1589951666.999661,41.35197175082139,-71.8449452503929,20.80853,0.6162745,-1,3.30392307574666,4.786295994016414,-9999,16713.38818979167,-0.1505889892578125,0.926544189453125,0.359619140625,1,0.6
2020-05-20 01:14:28.280 -0400,1589951667.999659,41.35197638932191,-71.84493916405327,19.66415,0,-1,3.335904140207996,4.764061355622111,-9999,16713.43808079167,-0.154937744140625,0.920440673828125,0.364013671875,1,0.6
2020-05-20 01:14:28.330 -0400,1589951667.999659,41.35197638932191,-71.84493916405327,19.66415,0,-1,3.335904140207996,4.764061355622111,-9999,16713.48797125,-0.1493377685546875,0.91650390625,0.35308837890625,1,0.6
2020-05-20 01:14:28.380 -0400,1589951667.999659,41.35197638932191,-71.84493916405327,19.66415,0,-1,3.335904140207996,4.764061355622111,-9999,16713.53786125,-0.15423583984375,0.9208526611328125,0.3636932373046875,1,0.6
2020-05-20 01:14:28.430 -0400,1589951667.999659,41.35197638932191,-71.84493916405327,19.66415,0,-1,3.335904140207996,4.764061355622111,-9999,16713.58774925,-0.158599853515625,0.9178009033203125,0.3658447265625,1,0.6
2020-05-20 01:14:28.480 -0400,1589951667.999659,41.35197638932191,-71.84493916405327,19.66415,0,-1,3.335904140207996,4.764061355622111,-9999,16713.63763725,-0.1527099609375,0.928192138671875,0.361846923828125,1,0.6
2020-05-20 01:14:28.530 -0400,1589951667.999659,41.35197638932191,-71.84493916405327,19.66415,0,-1,3.335904140207996,4.764061355622111,-9999,16713.68752225,-0.15692138671875,0.919525146484375,0.36199951171875,1,0.6
2020-05-20 01:14:28.580 -0400,1589951667.999659,41.35197638932191,-71.84493916405327,19.66415,0,-1,3.335904140207996,4.764061355622111,-9999,16713.73741125,-0.15545654296875,0.92352294921875,0.356048583984375,1,0.6
2020-05-20 01:14:28.630 -0400,1589951667.999659,41.35197638932191,-71.84493916405327,19.66415,0,-1,3.335904140207996,4.764061355622111,-9999,16713.78729825,-0.150909423828125,0.925445556640625,0.353179931640625,1,0.6
2020-05-20 01:14:28.679 -0400,1589951667.999659,41.35197638932191,-71.84493916405327,19.66415,0,-1,3.335904140207996,4.764061355622111,-9999,16713.83718525,-0.1557769775390625,0.9237213134765625,0.354400634765625,1,0.6
2020-05-20 01:14:28.729 -0400,1589951667.999659,41.35197638932191,-71.84493916405327,19.66415,0,-1,3.335904140207996,4.764061355622111,-9999,16713.88707225,-0.1551513671875,0.9210662841796875,0.3519287109375,1,0.6
2020-05-20 01:14:28.779 -0400,1589951667.999659,41.35197638932191,-71.84493916405327,19.66415,0,-1,3.335904140207996,4.764061355622111,-9999,16713.93695925,-0.156707763671875,0.9255828857421875,0.35400390625,1,0.6
2020-05-20 01:14:28.829 -0400,1589951667.999659,41.35197638932191,-71.84493916405327,19.66415,0,-1,3.335904140207996,4.764061355622111,-9999,16713.98684425,-0.1562652587890625,0.92169189453125,0.351043701171875,1,0.6
2020-05-20 01:14:28.879 -0400,1589951667.999659,41.35197638932191,-71.84493916405327,19.66415,0,-1,3.335904140207996,4.764061355622111,-9999,16714.03672825,-0.156097412109375,0.926513671875,0.3502960205078125,1,0.6
2020-05-20 01:14:28.929 -0400,1589951667.999659,41.35197638932191,-71.84493916405327,19.66415,0,-1,3.335904140207996,4.764061355622111,-9999,16714.08661425,-0.1551971435546875,0.9230804443359375,0.3524322509765625,1,0.6
2020-05-20 01:14:28.979 -0400,1589951667.999659,41.35197638932191,-71.84493916405327,19.66415,0,-1,3.335904140207996,4.764061355622111,-9999,16714.13650325,-0.15728759765625,0.924957275390625,0.352081298828125,1,0.6
2020-05-20 01:14:29.029 -0400,1589951667.999659,41.35197638932191,-71.84493916405327,19.66415,0,-1,3.335904140207996,4.764061355622111,-9999,16714.18639425,-0.1559600830078125,0.926544189453125,0.3507843017578125,1,0.6
2020-05-20 01:14:29.079 -0400,1589951667.999659,41.35197638932191,-71.84493916405327,19.66415,0,-1,3.335904140207996,4.764061355622111,-9999,16714.23628325,-0.155731201171875,0.92181396484375,0.3506622314453125,1,0.6
2020-05-20 01:14:29.128 -0400,1589951667.999659,41.35197638932191,-71.84493916405327,19.66415,0,-1,3.335904140207996,4.764061355622111,-9999,16714.28616925,-0.157684326171875,0.923553466796875,0.3541259765625,1,0.6
2020-05-20 01:14:29.178 -0400,1589951667.999659,41.35197638932191,-71.84493916405327,19.66415,0,-1,3.335904140207996,4.764061355622111,-9999,16714.33605625,-0.153594970703125,0.9227294921875,0.348297119140625,1,0.6
2020-05-20 01:14:29.228 -0400,1589951667.999659,41.35197638932191,-71.84493916405327,19.66415,0,-1,3.335904140207996,4.764061355622111,-9999,16714.38594425,-0.156280517578125,0.9239501953125,0.3559722900390625,1,0.6
2020-05-20 01:14:29.279 -0400,1589951667.999659,41.35197638932191,-71.84493916405327,19.66415,0,-1,3.335904140207996,4.764061355622111,-9999,16714.43583025,-0.1577301025390625,0.921051025390625,0.350799560546875,1,0.6
2020-05-20 01:14:29.328 -0400,1589951668.999763,41.35197565945396,-71.84493895310435,20.35365,0,-1,3.358844135305436,4.747915659267034,-9999,16714.48571975,-0.15411376953125,0.9230194091796875,0.3544464111328125,1,0.6
2020-05-20 01:14:29.379 -0400,1589951668.999763,41.35197565945396,-71.84493895310435,20.35365,0,-1,3.358844135305436,4.747915659267034,-9999,16714.53560675,-0.157012939453125,0.9244384765625,0.3521270751953125,1,0.6
2020-05-20 01:14:29.428 -0400,1589951668.999763,41.35197565945396,-71.84493895310435,20.35365,0,-1,3.358844135305436,4.747915659267034,-9999,16714.58549675,-0.1566314697265625,0.9236907958984375,0.354034423828125,1,0.6
2020-05-20 01:14:29.478 -0400,1589951668.999763,41.35197565945396,-71.84493895310435,20.35365,0,-1,3.358844135305436,4.747915659267034,-9999,16714.63538475,-0.160797119140625,0.9217681884765625,0.3522491455078125,1,0.6
2020-05-20 01:14:29.528 -0400,1589951668.999763,41.35197565945396,-71.84493895310435,20.35365,0,-1,3.358844135305436,4.747915659267034,-9999,16714.68527175,-0.157073974609375,0.9249114990234375,0.35528564453125,1,0.6
2020-05-20 01:14:29.577 -0400,1589951668.999763,41.35197565945396,-71.84493895310435,20.35365,0,-1,3.358844135305436,4.747915659267034,-9999,16714.73515875,-0.156341552734375,0.9218597412109375,0.3538665771484375,1,0.6
2020-05-20 01:14:29.627 -0400,1589951668.999763,41.35197565945396,-71.84493895310435,20.35365,0,-1,3.358844135305436,4.747915659267034,-9999,16714.78504475,-0.1546478271484375,0.926177978515625,0.35235595703125,1,0.6
2020-05-20 01:14:29.677 -0400,1589951668.999763,41.35197565945396,-71.84493895310435,20.35365,0,-1,3.358844135305436,4.747915659267034,-9999,16714.83493475,-0.1562652587890625,0.924041748046875,0.3529510498046875,1,0.6
2020-05-20 01:14:29.727 -0400,1589951668.999763,41.35197565945396,-71.84493895310435,20.35365,0,-1,3.358844135305436,4.747915659267034,-9999,16714.88482175,-0.1569671630859375,0.9251861572265625,0.3565521240234375,1,0.6
2020-05-20 01:14:29.777 -0400,1589951668.999763,41.35197565945396,-71.84493895310435,20.35365,0,-1,3.358844135305436,4.747915659267034,-9999,16714.93470875,-0.1562957763671875,0.9228668212890625,0.3532257080078125,1,0.6
2020-05-20 01:14:29.827 -0400,1589951668.999763,41.35197565945396,-71.84493895310435,20.35365,0,-1,3.358844135305436,4.747915659267034,-9999,16714.98459475,-0.1566619873046875,0.92236328125,0.3535614013671875,1,0.6
2020-05-20 01:14:29.877 -0400,1589951668.999763,41.35197565945396,-71.84493895310435,20.35365,0,-1,3.358844135305436,4.747915659267034,-9999,16715.03447875,-0.1547698974609375,0.9237060546875,0.3547515869140625,1,0.6
2020-05-20 01:14:29.927 -0400,1589951668.999763,41.35197565945396,-71.84493895310435,20.35365,0,-1,3.358844135305436,4.747915659267034,-9999,16715.08436575,-0.15380859375,0.9251251220703125,0.353515625,1,0.6
2020-05-20 01:14:29.976 -0400,1589951668.999763,41.35197565945396,-71.84493895310435,20.35365,0,-1,3.358844135305436,4.747915659267034,-9999,16715.13425075,-0.1548309326171875,0.9215850830078125,0.3569183349609375,1,0.6
2020-05-20 01:14:30.026 -0400,1589951668.999763,41.35197565945396,-71.84493895310435,20.35365,0,-1,3.358844135305436,4.747915659267034,-9999,16715.18413775,-0.153656005859375,0.9230194091796875,0.3539886474609375,1,0.6
2020-05-20 01:14:30.076 -0400,1589951668.999763,41.35197565945396,-71.84493895310435,20.35365,0,-1,3.358844135305436,4.747915659267034,-9999,16715.23402075,-0.153472900390625,0.9238433837890625,0.3580780029296875,1,0.6
2020-05-20 01:14:30.126 -0400,1589951668.999763,41.35197565945396,-71.84493895310435,20.35365,0,-1,3.358844135305436,4.747915659267034,-9999,16715.28390475,-0.1539306640625,0.9218292236328125,0.356414794921875,1,0.6
2020-05-20 01:14:30.176 -0400,1589951668.999763,41.35197565945396,-71.84493895310435,20.35365,0,-1,3.358844135305436,4.747915659267034,-9999,16715.33378975,-0.15283203125,0.9251251220703125,0.3564300537109375,1,0.6
2020-05-20 01:14:30.226 -0400,1589951668.999763,41.35197565945396,-71.84493895310435,20.35365,0,-1,3.358844135305436,4.747915659267034,-9999,16715.38367675,-0.1520843505859375,0.9228057861328125,0.3556671142578125,1,0.6
2020-05-20 01:14:30.276 -0400,1589951668.999763,41.35197565945396,-71.84493895310435,20.35365,0,-1,3.358844135305436,4.747915659267034,-9999,16715.43356375,-0.152313232421875,0.9266510009765625,0.3605499267578125,1,0.6
2020-05-20 01:14:30.326 -0400,1589951668.999763,41.35197565945396,-71.84493895310435,20.35365,0,-1,3.358844135305436,4.747915659267034,-9999,16715.483452375,-0.150634765625,0.9109649658203125,0.3426666259765625,1,0.6
2020-05-20 01:14:30.379 -0400,1589951669.999766,41.35197955550494,-71.84493395875545,19.42101,0,-1,3.376616083967341,4.73529311176002,-9999,16715.533342375,-0.154449462890625,0.9233245849609375,0.3522491455078125,1,0.6
2020-05-20 01:14:30.426 -0400,1589951669.999766,41.35197955550494,-71.84493395875545,19.42101,0,-1,3.376616083967341,4.73529311176002,-9999,16715.583230375,-0.150726318359375,0.92498779296875,0.3483428955078125,1,0.6
2020-05-20 01:14:30.476 -0400,1589951669.999766,41.35197955550494,-71.84493395875545,19.42101,0,-1,3.376616083967341,4.73529311176002,-9999,16715.633118375,-0.149810791015625,0.9276123046875,0.3477325439453125,1,0.6
2020-05-20 01:14:30.525 -0400,1589951669.999766,41.35197955550494,-71.84493395875545,19.42101,0,-1,3.376616083967341,4.73529311176002,-9999,16715.683003375,-0.1529083251953125,0.925201416015625,0.3428497314453125,1,0.6
2020-05-20 01:14:30.575 -0400,1589951669.999766,41.35197955550494,-71.84493395875545,19.42101,0,-1,3.376616083967341,4.73529311176002,-9999,16715.732885375,-0.1529541015625,0.9272003173828125,0.3416290283203125,1,0.6
2020-05-20 01:14:30.625 -0400,1589951669.999766,41.35197955550494,-71.84493395875545,19.42101,0,-1,3.376616083967341,4.73529311176002,-9999,16715.782771375,-0.1511383056640625,0.9290618896484375,0.345245361328125,1,0.6
2020-05-20 01:14:30.675 -0400,1589951669.999766,41.35197955550494,-71.84493395875545,19.42101,0,-1,3.376616083967341,4.73529311176002,-9999,16715.832656375,-0.151641845703125,0.92779541015625,0.34661865234375,1,0.6
2020-05-20 01:14:30.725 -0400,1589951669.999766,41.35197955550494,-71.84493395875545,19.42101,0,-1,3.376616083967341,4.73529311176002,-9999,16715.882541375,-0.1545867919921875,0.9258575439453125,0.3431854248046875,1,0.6
2020-05-20 01:14:30.775 -0400,1589951669.999766,41.35197955550494,-71.84493395875545,19.42101,0,-1,3.376616083967341,4.73529311176002,-9999,16715.932426375,-0.1552734375,0.93023681640625,0.3449859619140625,1,0.6
2020-05-20 01:14:30.825 -0400,1589951669.999766,41.35197955550494,-71.84493395875545,19.42101,0,-1,3.376616083967341,4.73529311176002,-9999,16715.982310375,-0.1539764404296875,0.92474365234375,0.34320068359375,1,0.6
2020-05-20 01:14:30.874 -0400,1589951669.999766,41.35197955550494,-71.84493395875545,19.42101,0,-1,3.376616083967341,4.73529311176002,-9999,16716.032195375,-0.1538543701171875,0.9295196533203125,0.3418731689453125,1,0.6
2020-05-20 01:14:30.924 -0400,1589951669.999766,41.35197955550494,-71.84493395875545,19.42101,0,-1,3.376616083967341,4.73529311176002,-9999,16716.082080375,-0.15460205078125,0.9300384521484375,0.34197998046875,1,0.6
2020-05-20 01:14:30.974 -0400,1589951669.999766,41.35197955550494,-71.84493395875545,19.42101,0,-1,3.376616083967341,4.73529311176002,-9999,16716.131966375,-0.1529541015625,0.9264678955078125,0.3380126953125,1,0.6
2020-05-20 01:14:31.024 -0400,1589951669.999766,41.35197955550494,-71.84493395875545,19.42101,0,-1,3.376616083967341,4.73529311176002,-9999,16716.181853375,-0.1540679931640625,0.9303131103515625,0.34619140625,1,0.6
2020-05-20 01:14:31.074 -0400,1589951669.999766,41.35197955550494,-71.84493395875545,19.42101,0,-1,3.376616083967341,4.73529311176002,-9999,16716.231738375,-0.1549072265625,0.9226531982421875,0.3271942138671875,1,0.6
2020-05-20 01:14:31.124 -0400,1589951669.999766,41.35197955550494,-71.84493395875545,19.42101,0,-1,3.376616083967341,4.73529311176002,-9999,16716.281622375,-0.1521453857421875,0.941314697265625,0.336517333984375,1,0.6
2020-05-20 01:14:31.174 -0400,1589951669.999766,41.35197955550494,-71.84493395875545,19.42101,0,-1,3.376616083967341,4.73529311176002,-9999,16716.331510375,-0.159912109375,0.958740234375,0.3446197509765625,1,0.6
2020-05-20 01:14:31.224 -0400,1589951669.999766,41.35197955550494,-71.84493395875545,19.42101,0,-1,3.376616083967341,4.73529311176002,-9999,16716.381396375,-0.1412811279296875,0.911163330078125,0.3283538818359375,1,0.6
2020-05-20 01:14:31.273 -0400,1589951669.999766,41.35197955550494,-71.84493395875545,19.42101,0,-1,3.376616083967341,4.73529311176002,-9999,16716.431282375,-0.168487548828125,0.9241943359375,0.2757415771484375,1,0.6
2020-05-20 01:14:31.324 -0400,1589951669.999766,41.35197955550494,-71.84493395875545,19.42101,0,-1,3.376616083967341,4.73529311176002,-9999,16716.48116529167,-0.1707611083984375,0.94073486328125,0.30792236328125,1,0.6
2020-05-20 01:14:31.373 -0400,1589951670.999789,41.35197709039341,-71.84493130849799,19.11457,0,-1,3.358103755993525,4.748439343275959,-9999,16716.53105029167,-0.1681060791015625,0.924835205078125,0.3185272216796875,1,0.6
2020-05-20 01:14:31.423 -0400,1589951670.999789,41.35197709039341,-71.84493130849799,19.11457,0,-1,3.358103755993525,4.748439343275959,-9999,16716.58093729167,-0.1716461181640625,0.9374237060546875,0.328582763671875,1,0.6
2020-05-20 01:14:31.473 -0400,1589951670.999789,41.35197709039341,-71.84493130849799,19.11457,0,-1,3.358103755993525,4.748439343275959,-9999,16716.63082229167,-0.174530029296875,0.935302734375,0.31640625,1,0.6
2020-05-20 01:14:31.523 -0400,1589951670.999789,41.35197709039341,-71.84493130849799,19.11457,0,-1,3.358103755993525,4.748439343275959,-9999,16716.68070529167,-0.167755126953125,0.9268646240234375,0.31646728515625,1,0.6
2020-05-20 01:14:31.573 -0400,1589951670.999789,41.35197709039341,-71.84493130849799,19.11457,0,-1,3.358103755993525,4.748439343275959,-9999,16716.73058929167,-0.1755218505859375,0.939605712890625,0.3102569580078125,1,0.6
2020-05-20 01:14:31.623 -0400,1589951670.999789,41.35197709039341,-71.84493130849799,19.11457,0,-1,3.358103755993525,4.748439343275959,-9999,16716.78047729167,-0.165924072265625,0.9398956298828125,0.305206298828125,1,0.6
2020-05-20 01:14:31.673 -0400,1589951670.999789,41.35197709039341,-71.84493130849799,19.11457,0,-1,3.358103755993525,4.748439343275959,-9999,16716.83036329167,-0.1749420166015625,0.93914794921875,0.3225860595703125,1,0.6
2020-05-20 01:14:31.723 -0400,1589951670.999789,41.35197709039341,-71.84493130849799,19.11457,0,-1,3.358103755993525,4.748439343275959,-9999,16716.88025029167,-0.170013427734375,0.928863525390625,0.3083343505859375,1,0.6
2020-05-20 01:14:31.772 -0400,1589951670.999789,41.35197709039341,-71.84493130849799,19.11457,0,-1,3.358103755993525,4.748439343275959,-9999,16716.93013929167,-0.1686248779296875,0.9553375244140625,0.3143310546875,1,0.6
2020-05-20 01:14:31.822 -0400,1589951670.999789,41.35197709039341,-71.84493130849799,19.11457,0,-1,3.358103755993525,4.748439343275959,-9999,16716.98002929167,-0.1693878173828125,0.922943115234375,0.302490234375,1,0.6
2020-05-20 01:14:31.872 -0400,1589951670.999789,41.35197709039341,-71.84493130849799,19.11457,0,-1,3.358103755993525,4.748439343275959,-9999,16717.02991829167,-0.169525146484375,0.9420928955078125,0.3117218017578125,1,0.6
2020-05-20 01:14:31.922 -0400,1589951670.999789,41.35197709039341,-71.84493130849799,19.11457,0,-1,3.358103755993525,4.748439343275959,-9999,16717.07980929167,-0.1700286865234375,0.9392547607421875,0.3075714111328125,1,0.6
2020-05-20 01:14:31.972 -0400,1589951670.999789,41.35197709039341,-71.84493130849799,19.11457,0,-1,3.358103755993525,4.748439343275959,-9999,16717.12969929167,-0.1689605712890625,0.9319000244140625,0.310546875,1,0.6
2020-05-20 01:14:32.022 -0400,1589951670.999789,41.35197709039341,-71.84493130849799,19.11457,0,-1,3.358103755993525,4.748439343275959,-9999,16717.17959129167,-0.1726837158203125,0.9407958984375,0.3128509521484375,1,0.6
2020-05-20 01:14:32.072 -0400,1589951670.999789,41.35197709039341,-71.84493130849799,19.11457,0,-1,3.358103755993525,4.748439343275959,-9999,16717.22948029167,-0.1726531982421875,0.9320220947265625,0.3196258544921875,1,0.6
2020-05-20 01:14:32.122 -0400,1589951670.999789,41.35197709039341,-71.84493130849799,19.11457,0,-1,3.358103755993525,4.748439343275959,-9999,16717.27937029167,-0.1776275634765625,0.9386444091796875,0.32659912109375,1,0.6
2020-05-20 01:14:32.171 -0400,1589951670.999789,41.35197709039341,-71.84493130849799,19.11457,0,-1,3.358103755993525,4.748439343275959,-9999,16717.32925729167,-0.1700286865234375,0.9355926513671875,0.312835693359375,1,0.6
2020-05-20 01:14:32.221 -0400,1589951670.999789,41.35197709039341,-71.84493130849799,19.11457,0,-1,3.358103755993525,4.748439343275959,-9999,16717.37914729167,-0.174224853515625,0.897857666015625,0.2909088134765625,1,0.6
2020-05-20 01:14:32.271 -0400,1589951671.999789,41.35197868236317,-71.84493258845086,19.64521,0,-1,3.367411618715464,4.741843103997531,-9999,16717.42903629167,-0.170166015625,0.9718780517578125,0.3056182861328125,1,0.6
2020-05-20 01:14:32.321 -0400,1589951671.999789,41.35197868236317,-71.84493258845086,19.64521,0,-1,3.367411618715464,4.741843103997531,-9999,16717.478924625,-0.1709747314453125,0.9277191162109375,0.2985076904296875,1,0.6
2020-05-20 01:14:32.371 -0400,1589951671.999789,41.35197868236317,-71.84493258845086,19.64521,0,-1,3.367411618715464,4.741843103997531,-9999,16717.528815625,-0.1692962646484375,0.951202392578125,0.3160552978515625,1,0.6
2020-05-20 01:14:32.421 -0400,1589951671.999789,41.35197868236317,-71.84493258845086,19.64521,0,-1,3.367411618715464,4.741843103997531,-9999,16717.578703625,-0.1688385009765625,0.9368743896484375,0.3004608154296875,1,0.6
2020-05-20 01:14:32.471 -0400,1589951671.999789,41.35197868236317,-71.84493258845086,19.64521,0,-1,3.367411618715464,4.741843103997531,-9999,16717.628592625,-0.1708526611328125,0.9389495849609375,0.306488037109375,1,0.6
2020-05-20 01:14:32.521 -0400,1589951671.999789,41.35197868236317,-71.84493258845086,19.64521,0,-1,3.367411618715464,4.741843103997531,-9999,16717.678479625,-0.1671905517578125,0.936370849609375,0.30194091796875,1,0.6
2020-05-20 01:14:32.571 -0400,1589951671.999789,41.35197868236317,-71.84493258845086,19.64521,0,-1,3.367411618715464,4.741843103997531,-9999,16717.728367625,-0.168121337890625,0.9376373291015625,0.3029632568359375,1,0.6
2020-05-20 01:14:32.620 -0400,1589951671.999789,41.35197868236317,-71.84493258845086,19.64521,0,-1,3.367411618715464,4.741843103997531,-9999,16717.778254625,-0.169219970703125,0.9458465576171875,0.311279296875,1,0.6
2020-05-20 01:14:32.670 -0400,1589951671.999789,41.35197868236317,-71.84493258845086,19.64521,0,-1,3.367411618715464,4.741843103997531,-9999,16717.828141625,-0.168121337890625,0.929046630859375,0.3006439208984375,1,0.6
2020-05-20 01:14:32.720 -0400,1589951671.999789,41.35197868236317,-71.84493258845086,19.64521,0,-1,3.367411618715464,4.741843103997531,-9999,16717.878028625,-0.166229248046875,0.9432830810546875,0.307525634765625,1,0.6
2020-05-20 01:14:32.770 -0400,1589951671.999789,41.35197868236317,-71.84493258845086,19.64521,0,-1,3.367411618715464,4.741843103997531,-9999,16717.927914625,-0.1652679443359375,0.93841552734375,0.299102783203125,1,0.6
2020-05-20 01:14:32.820 -0400,1589951671.999789,41.35197868236317,-71.84493258845086,19.64521,0,-1,3.367411618715464,4.741843103997531,-9999,16717.977800625,-0.1647491455078125,0.944061279296875,0.3062591552734375,1,0.6
2020-05-20 01:14:32.870 -0400,1589951671.999789,41.35197868236317,-71.84493258845086,19.64521,0,-1,3.367411618715464,4.741843103997531,-9999,16718.027687625,-0.1650390625,0.93817138671875,0.3017425537109375,1,0.6
2020-05-20 01:14:32.920 -0400,1589951671.999789,41.35197868236317,-71.84493258845086,19.64521,0,-1,3.367411618715464,4.741843103997531,-9999,16718.077575625,-0.167388916015625,0.9458770751953125,0.2989044189453125,1,0.6
2020-05-20 01:14:32.970 -0400,1589951671.999789,41.35197868236317,-71.84493258845086,19.64521,0,-1,3.367411618715464,4.741843103997531,-9999,16718.127464625,-0.1623687744140625,0.9462738037109375,0.2823333740234375,1,0.6
2020-05-20 01:14:33.020 -0400,1589951671.999789,41.35197868236317,-71.84493258845086,19.64521,0,-1,3.367411618715464,4.741843103997531,-9999,16718.177349625,-0.162200927734375,0.9399871826171875,0.2731475830078125,1,0.6
2020-05-20 01:14:33.069 -0400,1589951671.999789,41.35197868236317,-71.84493258845086,19.64521,0,-1,3.367411618715464,4.741843103997531,-9999,16718.227234625,-0.1617889404296875,0.9528045654296875,0.287109375,1,0.6
2020-05-20 01:14:33.119 -0400,1589951671.999789,41.35197868236317,-71.84493258845086,19.64521,0,-1,3.367411618715464,4.741843103997531,-9999,16718.277120625,-0.1597442626953125,0.943572998046875,0.2803497314453125,1,0.6
2020-05-20 01:14:33.169 -0400,1589951671.999789,41.35197868236317,-71.84493258845086,19.64521,0,-1,3.367411618715464,4.741843103997531,-9999,16718.327006625,-0.161376953125,0.9428863525390625,0.2922821044921875,1,0.6
2020-05-20 01:14:33.224 -0400,1589951671.999789,41.35197868236317,-71.84493258845086,19.64521,0,-1,3.367411618715464,4.741843103997531,-9999,16718.376891625,-0.161346435546875,0.9488677978515625,0.291534423828125,1,0.6
2020-05-20 01:14:33.271 -0400,1589951672.999793,41.35197795692255,-71.84493130528806,19.97142,0,-1,3.396985708484177,4.720701762359395,-9999,16718.426777625,-0.160400390625,0.9462738037109375,0.2918243408203125,1,0.6
2020-05-20 01:14:33.319 -0400,1589951672.999793,41.35197795692255,-71.84493130528806,19.97142,0,-1,3.396985708484177,4.720701762359395,-9999,16718.476665125,-0.1630401611328125,0.9465484619140625,0.2894439697265625,1,0.6
2020-05-20 01:14:33.369 -0400,1589951672.999793,41.35197795692255,-71.84493130528806,19.97142,0,-1,3.396985708484177,4.720701762359395,-9999,16718.526552125,-0.162322998046875,0.9462890625,0.290283203125,1,0.6
2020-05-20 01:14:33.419 -0400,1589951672.999793,41.35197795692255,-71.84493130528806,19.97142,0,-1,3.396985708484177,4.720701762359395,-9999,16718.576439125,-0.1649932861328125,0.9476165771484375,0.2983245849609375,1,0.6
2020-05-20 01:14:33.469 -0400,1589951672.999793,41.35197795692255,-71.84493130528806,19.97142,0,-1,3.396985708484177,4.720701762359395,-9999,16718.626326125,-0.1658172607421875,0.9407806396484375,0.2925872802734375,1,0.6
2020-05-20 01:14:33.518 -0400,1589951672.999793,41.35197795692255,-71.84493130528806,19.97142,0,-1,3.396985708484177,4.720701762359395,-9999,16718.676213125,-0.16497802734375,0.9445648193359375,0.3032989501953125,1,0.6
2020-05-20 01:14:33.568 -0400,1589951672.999793,41.35197795692255,-71.84493130528806,19.97142,0,-1,3.396985708484177,4.720701762359395,-9999,16718.726100125,-0.164825439453125,0.9402313232421875,0.28851318359375,1,0.6
2020-05-20 01:14:33.618 -0400,1589951672.999793,41.35197795692255,-71.84493130528806,19.97142,0,-1,3.396985708484177,4.720701762359395,-9999,16718.775989125,-0.1696624755859375,0.93963623046875,0.3073883056640625,1,0.6
2020-05-20 01:14:33.668 -0400,1589951672.999793,41.35197795692255,-71.84493130528806,19.97142,0,-1,3.396985708484177,4.720701762359395,-9999,16718.825878125,-0.168487548828125,0.9376983642578125,0.3006439208984375,1,0.6
2020-05-20 01:14:33.718 -0400,1589951672.999793,41.35197795692255,-71.84493130528806,19.97142,0,-1,3.396985708484177,4.720701762359395,-9999,16718.875765125,-0.1690216064453125,0.9415435791015625,0.305511474609375,1,0.6
2020-05-20 01:14:33.768 -0400,1589951672.999793,41.35197795692255,-71.84493130528806,19.97142,0,-1,3.396985708484177,4.720701762359395,-9999,16718.925651125,-0.1673126220703125,0.9426727294921875,0.3003692626953125,1,0.6
2020-05-20 01:14:33.818 -0400,1589951672.999793,41.35197795692255,-71.84493130528806,19.97142,0,-1,3.396985708484177,4.720701762359395,-9999,16718.975537125,-0.166351318359375,0.9377899169921875,0.2964630126953125,1,0.6
2020-05-20 01:14:33.868 -0400,1589951672.999793,41.35197795692255,-71.84493130528806,19.97142,0,-1,3.396985708484177,4.720701762359395,-9999,16719.025426125,-0.1674957275390625,0.946990966796875,0.293304443359375,1,0.6
2020-05-20 01:14:33.917 -0400,1589951672.999793,41.35197795692255,-71.84493130528806,19.97142,0,-1,3.396985708484177,4.720701762359395,-9999,16719.075315125,-0.169921875,0.935546875,0.2979583740234375,1,0.6
2020-05-20 01:14:33.967 -0400,1589951672.999793,41.35197795692255,-71.84493130528806,19.97142,0,-1,3.396985708484177,4.720701762359395,-9999,16719.125200125,-0.1621551513671875,0.933013916015625,0.2766571044921875,1,0.6
2020-05-20 01:14:34.017 -0400,1589951672.999793,41.35197795692255,-71.84493130528806,19.97142,0,-1,3.396985708484177,4.720701762359395,-9999,16719.175085125,-0.1707000732421875,0.939971923828125,0.30364990234375,1,0.6
2020-05-20 01:14:34.067 -0400,1589951672.999793,41.35197795692255,-71.84493130528806,19.97142,0,-1,3.396985708484177,4.720701762359395,-9999,16719.224970125,-0.16607666015625,0.9479217529296875,0.302276611328125,1,0.6
2020-05-20 01:14:34.117 -0400,1589951672.999793,41.35197795692255,-71.84493130528806,19.97142,0,-1,3.396985708484177,4.720701762359395,-9999,16719.274857125,-0.1654052734375,0.925537109375,0.295318603515625,1,0.6
2020-05-20 01:14:34.167 -0400,1589951672.999793,41.35197795692255,-71.84493130528806,19.97142,0,-1,3.396985708484177,4.720701762359395,-9999,16719.324744125,-0.170440673828125,0.94171142578125,0.3021697998046875,1,0.6
2020-05-20 01:14:34.217 -0400,1589951672.999793,41.35197795692255,-71.84493130528806,19.97142,0,-1,3.396985708484177,4.720701762359395,-9999,16719.374631125,-0.165435791015625,0.9427032470703125,0.300689697265625,1,0.6
2020-05-20 01:14:34.275 -0400,1589951672.999793,41.35197795692255,-71.84493130528806,19.97142,0,-1,3.396985708484177,4.720701762359395,-9999,16719.424519125,-0.16650390625,0.9407501220703125,0.3065643310546875,1,0.6
2020-05-20 01:14:34.317 -0400,1589951673.999788,41.35197706765923,-71.84493002412201,19.17994,0,-1,3.366819889651631,4.742263263826146,-9999,16719.47440829167,-0.1665802001953125,0.9434967041015625,0.3020477294921875,1,0.6
2020-05-20 01:14:34.367 -0400,1589951673.999788,41.35197706765923,-71.84493002412201,19.17994,0,-1,3.366819889651631,4.742263263826146,-9999,16719.52429729167,-0.166107177734375,0.939849853515625,0.3112030029296875,1,0.6
2020-05-20 01:14:34.416 -0400,1589951673.999788,41.35197706765923,-71.84493002412201,19.17994,0,-1,3.366819889651631,4.742263263826146,-9999,16719.57418529167,-0.166900634765625,0.933319091796875,0.2963714599609375,1,0.6
2020-05-20 01:14:34.466 -0400,1589951673.999788,41.35197706765923,-71.84493002412201,19.17994,0,-1,3.366819889651631,4.742263263826146,-9999,16719.62406929167,-0.1676025390625,0.9510345458984375,0.318695068359375,1,0.6
2020-05-20 01:14:34.516 -0400,1589951673.999788,41.35197706765923,-71.84493002412201,19.17994,0,-1,3.366819889651631,4.742263263826146,-9999,16719.67395529167,-0.1646728515625,0.9417877197265625,0.300872802734375,1,0.6
2020-05-20 01:14:34.566 -0400,1589951673.999788,41.35197706765923,-71.84493002412201,19.17994,0,-1,3.366819889651631,4.742263263826146,-9999,16719.72383929167,-0.1599578857421875,0.954010009765625,0.3171844482421875,1,0.6
2020-05-20 01:14:34.616 -0400,1589951673.999788,41.35197706765923,-71.84493002412201,19.17994,0,-1,3.366819889651631,4.742263263826146,-9999,16719.77372629167,-0.1570587158203125,0.9669342041015625,0.2906494140625,1,0.6
2020-05-20 01:14:34.666 -0400,1589951673.999788,41.35197706765923,-71.84493002412201,19.17994,0,-1,3.366819889651631,4.742263263826146,-9999,16719.82361729167,-0.1764373779296875,0.930450439453125,0.23944091796875,1,0.6
2020-05-20 01:14:34.716 -0400,1589951673.999788,41.35197706765923,-71.84493002412201,19.17994,0,-1,3.366819889651631,4.742263263826146,-9999,16719.87350829167,-0.1652679443359375,1.024063110351562,0.262725830078125,1,0.6
2020-05-20 01:14:34.766 -0400,1589951673.999788,41.35197706765923,-71.84493002412201,19.17994,0,-1,3.366819889651631,4.742263263826146,-9999,16719.92339929167,-0.2078399658203125,0.893951416015625,0.2399139404296875,1,0.6
2020-05-20 01:14:34.816 -0400,1589951673.999788,41.35197706765923,-71.84493002412201,19.17994,0,-1,3.366819889651631,4.742263263826146,-9999,16719.97328929167,-0.215301513671875,1.031021118164062,0.119171142578125,1,0.6
2020-05-20 01:14:34.865 -0400,1589951673.999788,41.35197706765923,-71.84493002412201,19.17994,0,-1,3.366819889651631,4.742263263826146,-9999,16720.02317929167,-0.2158660888671875,1.157638549804688,-0.0538787841796875,1,0.6
2020-05-20 01:14:34.915 -0400,1589951673.999788,41.35197706765923,-71.84493002412201,19.17994,0,-1,3.366819889651631,4.742263263826146,-9999,16720.07307029167,-0.210601806640625,1.1142578125,-0.0792388916015625,1,0.6
2020-05-20 01:14:34.965 -0400,1589951673.999788,41.35197706765923,-71.84493002412201,19.17994,0,-1,3.366819889651631,4.742263263826146,-9999,16720.12296029167,-0.2920074462890625,0.822601318359375,-0.0006866455078125,1,0.6
2020-05-20 01:14:35.015 -0400,1589951673.999788,41.35197706765923,-71.84493002412201,19.17994,0,-1,3.366819889651631,4.742263263826146,-9999,16720.17285129167,-0.3745880126953125,0.8498382568359375,-0.0703582763671875,1,0.6
2020-05-20 01:14:35.065 -0400,1589951673.999788,41.35197706765923,-71.84493002412201,19.17994,0,-1,3.366819889651631,4.742263263826146,-9999,16720.22274029167,-0.3962249755859375,0.860748291015625,-0.0387420654296875,1,0.6
2020-05-20 01:14:35.115 -0400,1589951673.999788,41.35197706765923,-71.84493002412201,19.17994,0,-1,3.366819889651631,4.742263263826146,-9999,16720.27263229167,-0.4269561767578125,0.9127197265625,0.01971435546875,1,0.6
2020-05-20 01:14:35.165 -0400,1589951673.999788,41.35197706765923,-71.84493002412201,19.17994,0,-1,3.366819889651631,4.742263263826146,-9999,16720.32252429167,-0.457000732421875,0.8472442626953125,0.104400634765625,1,0.6
2020-05-20 01:14:35.214 -0400,1589951673.999788,41.35197706765923,-71.84493002412201,19.17994,0,-1,3.366819889651631,4.742263263826146,-9999,16720.37241429167,-0.4748077392578125,0.7967681884765625,0.0469818115234375,1,0.6
2020-05-20 01:14:35.265 -0400,1589951674.999787,41.35198198019707,-71.84492729330978,18.73871,0,-1,3.33918092011777,4.761765199535806,-9999,16720.42230529167,-0.4686126708984375,0.864715576171875,-0.0649261474609375,1,0.6
2020-05-20 01:14:35.314 -0400,1589951674.999787,41.35198198019707,-71.84492729330978,18.73871,0,-1,3.33918092011777,4.761765199535806,-9999,16720.472196,-0.429962158203125,0.9473876953125,-0.1225128173828125,1,0.6
2020-05-20 01:14:35.364 -0400,1589951674.999787,41.35198198019707,-71.84492729330978,18.73871,0,-1,3.33918092011777,4.761765199535806,-9999,16720.522086,-0.3438720703125,0.984588623046875,-0.2305755615234375,1,0.6
2020-05-20 01:14:35.414 -0400,1589951674.999787,41.35198198019707,-71.84492729330978,18.73871,0,-1,3.33918092011777,4.761765199535806,-9999,16720.57198,-0.34857177734375,0.9166259765625,-0.2569732666015625,1,0.6
2020-05-20 01:14:35.464 -0400,1589951674.999787,41.35198198019707,-71.84492729330978,18.73871,0,-1,3.33918092011777,4.761765199535806,-9999,16720.621872,-0.3165130615234375,0.907623291015625,-0.2722930908203125,1,0.6
2020-05-20 01:14:35.514 -0400,1589951674.999787,41.35198198019707,-71.84492729330978,18.73871,0,-1,3.33918092011777,4.761765199535806,-9999,16720.671762,-0.2860107421875,0.84912109375,-0.3774871826171875,1,0.6
2020-05-20 01:14:35.564 -0400,1589951674.999787,41.35198198019707,-71.84492729330978,18.73871,0,-1,3.33918092011777,4.761765199535806,-9999,16720.721656,-0.27349853515625,0.84906005859375,-0.42816162109375,1,0.6
2020-05-20 01:14:35.614 -0400,1589951674.999787,41.35198198019707,-71.84492729330978,18.73871,0,-1,3.33918092011777,4.761765199535806,-9999,16720.771548,-0.246185302734375,0.79608154296875,-0.532928466796875,1,0.6
2020-05-20 01:14:35.663 -0400,1589951674.999787,41.35198198019707,-71.84492729330978,18.73871,0,-1,3.33918092011777,4.761765199535806,-9999,16720.821439,-0.189178466796875,0.76422119140625,-0.5934906005859375,1,0.6
2020-05-20 01:14:35.713 -0400,1589951674.999787,41.35198198019707,-71.84492729330978,18.73871,0,-1,3.33918092011777,4.761765199535806,-9999,16720.87133,-0.1546783447265625,0.6031494140625,-0.8548126220703125,1,0.6
2020-05-20 01:14:35.763 -0400,1589951674.999787,41.35198198019707,-71.84492729330978,18.73871,0,-1,3.33918092011777,4.761765199535806,-9999,16720.921223,-0.232757568359375,0.41259765625,-0.6987152099609375,1,0.6
2020-05-20 01:14:35.813 -0400,1589951674.999787,41.35198198019707,-71.84492729330978,18.73871,0,-1,3.33918092011777,4.761765199535806,-9999,16720.971112,-0.142425537109375,0.4121246337890625,-0.829803466796875,1,0.6
2020-05-20 01:14:35.863 -0400,1589951674.999787,41.35198198019707,-71.84492729330978,18.73871,0,-1,3.33918092011777,4.761765199535806,-9999,16721.021001,-0.14080810546875,0.30255126953125,-0.805908203125,1,0.6
2020-05-20 01:14:35.913 -0400,1589951674.999787,41.35198198019707,-71.84492729330978,18.73871,0,-1,3.33918092011777,4.761765199535806,-9999,16721.070892,-0.10040283203125,0.3736114501953125,-0.867401123046875,1,0.6
2020-05-20 01:14:35.963 -0400,1589951674.999787,41.35198198019707,-71.84492729330978,18.73871,0,-1,3.33918092011777,4.761765199535806,-9999,16721.120784,-0.068389892578125,0.39373779296875,-1.004348754882812,1,0.6
2020-05-20 01:14:36.014 -0400,1589951674.999787,41.35198198019707,-71.84492729330978,18.73871,0,-1,3.33918092011777,4.761765199535806,-9999,16721.170674,-0.048980712890625,0.4769439697265625,-1.020187377929688,1,0.6
2020-05-20 01:14:36.069 -0400,1589951674.999787,41.35198198019707,-71.84492729330978,18.73871,0,-1,3.33918092011777,4.761765199535806,-9999,16721.22056,-0.030059814453125,0.2637939453125,-1.006790161132812,1,0.6
2020-05-20 01:14:36.112 -0400,1589951674.999787,41.35198198019707,-71.84492729330978,18.73871,0,-1,3.33918092011777,4.761765199535806,-9999,16721.270446,-0.0368804931640625,0.358245849609375,-0.9296875,1,0.6
2020-05-20 01:14:36.162 -0400,1589951674.999787,41.35198198019707,-71.84492729330978,18.73871,0,-1,3.33918092011777,4.761765199535806,-9999,16721.320337,0.000518798828125,0.2458038330078125,-0.9630279541015625,1,0.6
2020-05-20 01:14:36.212 -0400,1589951674.999787,41.35198198019707,-71.84492729330978,18.73871,0,-1,3.33918092011777,4.761765199535806,-9999,16721.370229,-0.0484771728515625,0.2720184326171875,-0.915313720703125,1,0.6
2020-05-20 01:14:36.262 -0400,1589951675.999789,41.35197960448016,-71.84492794925586,18.72001,0,-1,3.318340468939143,4.776311711455774,-9999,16721.420116,-0.081695556640625,0.225738525390625,-1.019058227539062,1,0.6
2020-05-20 01:14:36.312 -0400,1589951675.999789,41.35197960448016,-71.84492794925586,18.72001,0,-1,3.318340468939143,4.776311711455774,-9999,16721.469999875,-0.042724609375,0.286407470703125,-1.009857177734375,1,0.6
2020-05-20 01:14:36.362 -0400,1589951675.999789,41.35197960448016,-71.84492794925586,18.72001,0,-1,3.318340468939143,4.776311711455774,-9999,16721.519885875,-0.04266357421875,0.26666259765625,-0.9626617431640625,1,0.6
2020-05-20 01:14:36.412 -0400,1589951675.999789,41.35197960448016,-71.84492794925586,18.72001,0,-1,3.318340468939143,4.776311711455774,-9999,16721.569776875,-0.05126953125,0.243988037109375,-0.947357177734375,1,0.6
2020-05-20 01:14:36.462 -0400,1589951675.999789,41.35197960448016,-71.84492794925586,18.72001,0,-1,3.318340468939143,4.776311711455774,-9999,16721.619666875,-0.0439453125,0.2741851806640625,-0.9447021484375,1,0.6
2020-05-20 01:14:36.517 -0400,1589951675.999789,41.35197960448016,-71.84492794925586,18.72001,0,-1,3.318340468939143,4.776311711455774,-9999,16721.669556875,-0.0390472412109375,0.2433013916015625,-0.9604949951171875,1,0.6
2020-05-20 01:14:36.562 -0400,1589951675.999789,41.35197960448016,-71.84492794925586,18.72001,0,-1,3.318340468939143,4.776311711455774,-9999,16721.719446875,-0.0457305908203125,0.24127197265625,-0.965423583984375,1,0.6
2020-05-20 01:14:36.611 -0400,1589951675.999789,41.35197960448016,-71.84492794925586,18.72001,0,-1,3.318340468939143,4.776311711455774,-9999,16721.769334875,-0.038238525390625,0.2491607666015625,-0.9865875244140625,1,0.6
2020-05-20 01:14:36.662 -0400,1589951675.999789,41.35197960448016,-71.84492794925586,18.72001,0,-1,3.318340468939143,4.776311711455774,-9999,16721.819222875,-0.0257568359375,0.245391845703125,-0.9581756591796875,1,0.6
2020-05-20 01:14:36.711 -0400,1589951675.999789,41.35197960448016,-71.84492794925586,18.72001,0,-1,3.318340468939143,4.776311711455774,-9999,16721.869111875,-0.0299835205078125,0.24981689453125,-0.9715423583984375,1,0.6
2020-05-20 01:14:36.762 -0400,1589951675.999789,41.35197960448016,-71.84492794925586,18.72001,0,-1,3.318340468939143,4.776311711455774,-9999,16721.918997875,-0.0345001220703125,0.259765625,-0.9680633544921875,1,0.6
2020-05-20 01:14:36.811 -0400,1589951675.999789,41.35197960448016,-71.84492794925586,18.72001,0,-1,3.318340468939143,4.776311711455774,-9999,16721.968887875,-0.0319061279296875,0.26336669921875,-0.97784423828125,1,0.6
2020-05-20 01:14:36.861 -0400,1589951675.999789,41.35197960448016,-71.84492794925586,18.72001,0,-1,3.318340468939143,4.776311711455774,-9999,16722.018778875,-0.0379791259765625,0.25592041015625,-0.96466064453125,1,0.6
2020-05-20 01:14:36.911 -0400,1589951675.999789,41.35197960448016,-71.84492794925586,18.72001,0,-1,3.318340468939143,4.776311711455774,-9999,16722.068666875,-0.0398101806640625,0.2715911865234375,-0.966644287109375,1,0.6
2020-05-20 01:14:36.961 -0400,1589951675.999789,41.35197960448016,-71.84492794925586,18.72001,0,-1,3.318340468939143,4.776311711455774,-9999,16722.118554875,-0.0345001220703125,0.255767822265625,-0.9589996337890625,1,0.6
2020-05-20 01:14:37.022 -0400,1589951675.999789,41.35197960448016,-71.84492794925586,18.72001,0,-1,3.318340468939143,4.776311711455774,-9999,16722.168442875,-0.04058837890625,0.2823638916015625,-0.9708099365234375,1,0.6
2020-05-20 01:14:37.061 -0400,1589951675.999789,41.35197960448016,-71.84492794925586,18.72001,0,-1,3.318340468939143,4.776311711455774,-9999,16722.218331875,-0.0368194580078125,0.27239990234375,-0.9628143310546875,1,0.6
2020-05-20 01:14:37.111 -0400,1589951675.999789,41.35197960448016,-71.84492794925586,18.72001,0,-1,3.318340468939143,4.776311711455774,-9999,16722.268219875,-0.0370330810546875,0.277557373046875,-0.9658050537109375,1,0.6
2020-05-20 01:14:37.161 -0400,1589951675.999789,41.35197960448016,-71.84492794925586,18.72001,0,-1,3.318340468939143,4.776311711455774,-9999,16722.318110875,-0.0396575927734375,0.2744598388671875,-0.96307373046875,1,0.6
2020-05-20 01:14:37.210 -0400,1589951675.999789,41.35197960448016,-71.84492794925586,18.72001,0,-1,3.318340468939143,4.776311711455774,-9999,16722.367999875,-0.035675048828125,0.2810821533203125,-0.961273193359375,1,0.6
2020-05-20 01:14:37.260 -0400,1589951676.999791,41.35197169320752,-71.84492732072945,16.79805,0,-1,3.314567244643329,4.778930948813382,-9999,16722.417890875,-0.039825439453125,0.2823638916015625,-0.9646453857421875,1,0.6
2020-05-20 01:14:37.310 -0400,1589951676.999791,41.35197169320752,-71.84492732072945,16.79805,0,-1,3.314567244643329,4.778930948813382,-9999,16722.467781875,-0.0367431640625,0.2792510986328125,-0.957550048828125,1,0.6
2020-05-20 01:14:37.360 -0400,1589951676.999791,41.35197169320752,-71.84492732072945,16.79805,0,-1,3.314567244643329,4.778930948813382,-9999,16722.517673875,-0.041839599609375,0.2777099609375,-0.9575347900390625,1,0.6
2020-05-20 01:14:37.410 -0400,1589951676.999791,41.35197169320752,-71.84492732072945,16.79805,0,-1,3.314567244643329,4.778930948813382,-9999,16722.567562875,-0.0391082763671875,0.2901458740234375,-0.9589691162109375,1,0.6
2020-05-20 01:14:37.460 -0400,1589951676.999791,41.35197169320752,-71.84492732072945,16.79805,0,-1,3.314567244643329,4.778930948813382,-9999,16722.617457875,-0.0404510498046875,0.2849273681640625,-0.959014892578125,1,0.6
2020-05-20 01:14:37.523 -0400,1589951676.999791,41.35197169320752,-71.84492732072945,16.79805,0,-1,3.314567244643329,4.778930948813382,-9999,16722.667347875,-0.0395355224609375,0.2914581298828125,-0.9649658203125,1,0.6
2020-05-20 01:14:37.560 -0400,1589951676.999791,41.35197169320752,-71.84492732072945,16.79805,0,-1,3.314567244643329,4.778930948813382,-9999,16722.717235875,-0.0345611572265625,0.2869720458984375,-0.9590301513671875,1,0.6
2020-05-20 01:14:37.610 -0400,1589951676.999791,41.35197169320752,-71.84492732072945,16.79805,0,-1,3.314567244643329,4.778930948813382,-9999,16722.767122875,-0.0371246337890625,0.288116455078125,-0.9609527587890625,1,0.6
2020-05-20 01:14:37.659 -0400,1589951676.999791,41.35197169320752,-71.84492732072945,16.79805,0,-1,3.314567244643329,4.778930948813382,-9999,16722.817008875,-0.036376953125,0.2875518798828125,-0.9566192626953125,1,0.6
2020-05-20 01:14:37.709 -0400,1589951676.999791,41.35197169320752,-71.84492732072945,16.79805,0,-1,3.314567244643329,4.778930948813382,-9999,16722.866896875,-0.0369415283203125,0.288116455078125,-0.961212158203125,1,0.6
2020-05-20 01:14:37.759 -0400,1589951676.999791,41.35197169320752,-71.84492732072945,16.79805,0,-1,3.314567244643329,4.778930948813382,-9999,16722.916786875,-0.036224365234375,0.283599853515625,-0.96075439453125,1,0.6
2020-05-20 01:14:37.809 -0400,1589951676.999791,41.35197169320752,-71.84492732072945,16.79805,0,-1,3.314567244643329,4.778930948813382,-9999,16722.966677875,-0.0337066650390625,0.283050537109375,-0.9604644775390625,1,0.6
2020-05-20 01:14:37.859 -0400,1589951676.999791,41.35197169320752,-71.84492732072945,16.79805,0,-1,3.314567244643329,4.778930948813382,-9999,16723.016565875,-0.03350830078125,0.282928466796875,-0.957550048828125,1,0.6
2020-05-20 01:14:37.909 -0400,1589951676.999791,41.35197169320752,-71.84492732072945,16.79805,0,-1,3.314567244643329,4.778930948813382,-9999,16723.066453875,-0.0380706787109375,0.279327392578125,-0.958892822265625,1,0.6
2020-05-20 01:14:37.959 -0400,1589951676.999791,41.35197169320752,-71.84492732072945,16.79805,0,-1,3.314567244643329,4.778930948813382,-9999,16723.116343875,-0.0331878662109375,0.2891998291015625,-0.9622650146484375,1,0.6
2020-05-20 01:14:38.022 -0400,1589951676.999791,41.35197169320752,-71.84492732072945,16.79805,0,-1,3.314567244643329,4.778930948813382,-9999,16723.166232875,-0.029632568359375,0.2823486328125,-0.9597015380859375,1,0.6
2020-05-20 01:14:38.059 -0400,1589951676.999791,41.35197169320752,-71.84492732072945,16.79805,0,-1,3.314567244643329,4.778930948813382,-9999,16723.216122875,-0.031280517578125,0.28106689453125,-0.956573486328125,1,0.6
2020-05-20 01:14:38.108 -0400,1589951676.999791,41.35197169320752,-71.84492732072945,16.79805,0,-1,3.314567244643329,4.778930948813382,-9999,16723.266009875,-0.034393310546875,0.2849884033203125,-0.9602813720703125,1,0.6
2020-05-20 01:14:38.158 -0400,1589951676.999791,41.35197169320752,-71.84492732072945,16.79805,0,-1,3.314567244643329,4.778930948813382,-9999,16723.315896875,-0.0337982177734375,0.28082275390625,-0.9575042724609375,1,0.6
2020-05-20 01:14:38.208 -0400,1589951676.999791,41.35197169320752,-71.84492732072945,16.79805,0,-1,3.314567244643329,4.778930948813382,-9999,16723.365784875,-0.0276031494140625,0.2817840576171875,-0.96087646484375,1,0.6
2020-05-20 01:14:38.258 -0400,1589951676.999791,41.35197169320752,-71.84492732072945,16.79805,0,-1,3.314567244643329,4.778930948813382,-9999,16723.415672875,-0.0284576416015625,0.2879486083984375,-0.9636688232421875,1,0.6
2020-05-20 01:14:38.308 -0400,1589951677.999794,41.35197118216535,-71.84492219437779,16.25837,0,-1,3.35988384606328,4.747179960118624,-9999,16723.465558875,-0.028564453125,0.28631591796875,-0.960235595703125,1,0.6
2020-05-20 01:14:38.358 -0400,1589951677.999794,41.35197118216535,-71.84492219437779,16.25837,0,-1,3.35988384606328,4.747179960118624,-9999,16723.515445875,-0.03173828125,0.2818145751953125,-0.9615631103515625,1,0.6
2020-05-20 01:14:38.408 -0400,1589951677.999794,41.35197118216535,-71.84492219437779,16.25837,0,-1,3.35988384606328,4.747179960118624,-9999,16723.565332875,-0.0292205810546875,0.2834320068359375,-0.9588775634765625,1,0.6
2020-05-20 01:14:38.457 -0400,1589951677.999794,41.35197118216535,-71.84492219437779,16.25837,0,-1,3.35988384606328,4.747179960118624,-9999,16723.615219875,-0.0262603759765625,0.28118896484375,-0.9633636474609375,1,0.6
2020-05-20 01:14:38.523 -0400,1589951677.999794,41.35197118216535,-71.84492219437779,16.25837,0,-1,3.35988384606328,4.747179960118624,-9999,16723.665105875,-0.02349853515625,0.28155517578125,-0.9622802734375,1,0.6
2020-05-20 01:14:38.557 -0400,1589951677.999794,41.35197118216535,-71.84492219437779,16.25837,0,-1,3.35988384606328,4.747179960118624,-9999,16723.714991875,-0.0305938720703125,0.2811737060546875,-0.9590911865234375,1,0.6
2020-05-20 01:14:38.608 -0400,1589951677.999794,41.35197118216535,-71.84492219437779,16.25837,0,-1,3.35988384606328,4.747179960118624,-9999,16723.764878875,-0.025115966796875,0.281951904296875,-0.9650115966796875,1,0.6
2020-05-20 01:14:38.657 -0400,1589951677.999794,41.35197118216535,-71.84492219437779,16.25837,0,-1,3.35988384606328,4.747179960118624,-9999,16723.814764875,-0.023162841796875,0.28271484375,-0.9621429443359375,1,0.6
2020-05-20 01:14:38.707 -0400,1589951677.999794,41.35197118216535,-71.84492219437779,16.25837,0,-1,3.35988384606328,4.747179960118624,-9999,16723.864656875,-0.026611328125,0.2919769287109375,-0.9765472412109375,1,0.6
2020-05-20 01:14:38.757 -0400,1589951677.999794,41.35197118216535,-71.84492219437779,16.25837,0,-1,3.35988384606328,4.747179960118624,-9999,16723.914546875,-0.0258331298828125,0.2762451171875,-0.9539794921875,1,0.6
2020-05-20 01:14:38.807 -0400,1589951677.999794,41.35197118216535,-71.84492219437779,16.25837,0,-1,3.35988384606328,4.747179960118624,-9999,16723.964438875,-0.02838134765625,0.2756500244140625,-0.9557037353515625,1,0.6
2020-05-20 01:14:38.857 -0400,1589951677.999794,41.35197118216535,-71.84492219437779,16.25837,0,-1,3.35988384606328,4.747179960118624,-9999,16724.014329875,-0.0269927978515625,0.2816009521484375,-0.963165283203125,1,0.6
2020-05-20 01:14:38.906 -0400,1589951677.999794,41.35197118216535,-71.84492219437779,16.25837,0,-1,3.35988384606328,4.747179960118624,-9999,16724.064216875,-0.02752685546875,0.2735748291015625,-0.9540557861328125,1,0.6
2020-05-20 01:14:38.956 -0400,1589951677.999794,41.35197118216535,-71.84492219437779,16.25837,0,-1,3.35988384606328,4.747179960118624,-9999,16724.114104875,-0.0321807861328125,0.2737579345703125,-0.96405029296875,1,0.6
2020-05-20 01:14:39.006 -0400,1589951677.999794,41.35197118216535,-71.84492219437779,16.25837,0,-1,3.35988384606328,4.747179960118624,-9999,16724.163993875,-0.027587890625,0.2752838134765625,-0.962371826171875,1,0.6
2020-05-20 01:14:39.056 -0400,1589951677.999794,41.35197118216535,-71.84492219437779,16.25837,0,-1,3.35988384606328,4.747179960118624,-9999,16724.213878875,-0.029937744140625,0.2743377685546875,-0.9607086181640625,1,0.6
2020-05-20 01:14:39.106 -0400,1589951677.999794,41.35197118216535,-71.84492219437779,16.25837,0,-1,3.35988384606328,4.747179960118624,-9999,16724.263765875,-0.028778076171875,0.2700653076171875,-0.9599761962890625,1,0.6
2020-05-20 01:14:39.156 -0400,1589951677.999794,41.35197118216535,-71.84492219437779,16.25837,0,-1,3.35988384606328,4.747179960118624,-9999,16724.313651875,-0.02838134765625,0.2686309814453125,-0.9653167724609375,1,0.6
2020-05-20 01:14:39.206 -0400,1589951677.999794,41.35197118216535,-71.84492219437779,16.25837,0,-1,3.35988384606328,4.747179960118624,-9999,16724.363536875,-0.03167724609375,0.273162841796875,-0.9671630859375,1,0.6
2020-05-20 01:14:39.256 -0400,1589951677.999794,41.35197118216535,-71.84492219437779,16.25837,0,-1,3.35988384606328,4.747179960118624,-9999,16724.413421875,-0.029754638671875,0.269866943359375,-0.962493896484375,1,0.6
2020-05-20 01:14:39.306 -0400,1589951678.999793,41.35197118216535,-71.84492219437779,16.25837,0,-1,3.248022317068837,4.824405461879383,-9999,16724.463307875,-0.02813720703125,0.27349853515625,-0.96484375,1,0.6
2020-05-20 01:14:39.356 -0400,1589951678.999793,41.35197118216535,-71.84492219437779,16.25837,0,-1,3.248022317068837,4.824405461879383,-9999,16724.5131935,-0.0292816162109375,0.2752227783203125,-0.9629974365234375,1,0.6
2020-05-20 01:14:39.405 -0400,1589951678.999793,41.35197118216535,-71.84492219437779,16.25837,0,-1,3.248022317068837,4.824405461879383,-9999,16724.5630805,-0.0308380126953125,0.2733001708984375,-0.966033935546875,1,0.6
2020-05-20 01:14:39.455 -0400,1589951678.999793,41.35197118216535,-71.84492219437779,16.25837,0,-1,3.248022317068837,4.824405461879383,-9999,16724.6129705,-0.0287322998046875,0.267425537109375,-0.96405029296875,1,0.6
2020-05-20 01:14:39.505 -0400,1589951678.999793,41.35197118216535,-71.84492219437779,16.25837,0,-1,3.248022317068837,4.824405461879383,-9999,16724.6628605,-0.03204345703125,0.27105712890625,-0.9618682861328125,1,0.6
2020-05-20 01:14:39.555 -0400,1589951678.999793,41.35197118216535,-71.84492219437779,16.25837,0,-1,3.248022317068837,4.824405461879383,-9999,16724.7127475,-0.0282440185546875,0.2806854248046875,-0.96514892578125,1,0.6
2020-05-20 01:14:39.605 -0400,1589951678.999793,41.35197118216535,-71.84492219437779,16.25837,0,-1,3.248022317068837,4.824405461879383,-9999,16724.7626345,-0.0291595458984375,0.2728271484375,-0.9638824462890625,1,0.6
2020-05-20 01:14:39.655 -0400,1589951678.999793,41.35197118216535,-71.84492219437779,16.25837,0,-1,3.248022317068837,4.824405461879383,-9999,16724.8125225,-0.0303955078125,0.2754364013671875,-0.9698486328125,1,0.6
2020-05-20 01:14:39.705 -0400,1589951678.999793,41.35197118216535,-71.84492219437779,16.25837,0,-1,3.248022317068837,4.824405461879383,-9999,16724.8624125,-0.0305938720703125,0.2763519287109375,-0.965057373046875,1,0.6
2020-05-20 01:14:39.755 -0400,1589951678.999793,41.35197118216535,-71.84492219437779,16.25837,0,-1,3.248022317068837,4.824405461879383,-9999,16724.9122975,-0.0305023193359375,0.2764739990234375,-0.961090087890625,1,0.6
2020-05-20 01:14:39.804 -0400,1589951678.999793,41.35197118216535,-71.84492219437779,16.25837,0,-1,3.248022317068837,4.824405461879383,-9999,16724.9621845,-0.0258941650390625,0.27813720703125,-0.9639129638671875,1,0.6
2020-05-20 01:14:39.854 -0400,1589951678.999793,41.35197118216535,-71.84492219437779,16.25837,0,-1,3.248022317068837,4.824405461879383,-9999,16725.0120695,-0.030792236328125,0.2762451171875,-0.9616851806640625,1,0.6
2020-05-20 01:14:39.904 -0400,1589951678.999793,41.35197118216535,-71.84492219437779,16.25837,0,-1,3.248022317068837,4.824405461879383,-9999,16725.0619535,-0.0298614501953125,0.2819671630859375,-0.964324951171875,1,0.6
2020-05-20 01:14:39.954 -0400,1589951678.999793,41.35197118216535,-71.84492219437779,16.25837,0,-1,3.248022317068837,4.824405461879383,-9999,16725.1118385,-0.02923583984375,0.2804107666015625,-0.9621429443359375,1,0.6
2020-05-20 01:14:40.004 -0400,1589951678.999793,41.35197118216535,-71.84492219437779,16.25837,0,-1,3.248022317068837,4.824405461879383,-9999,16725.1617225,-0.0325164794921875,0.2837982177734375,-0.960174560546875,1,0.6
2020-05-20 01:14:40.054 -0400,1589951678.999793,41.35197118216535,-71.84492219437779,16.25837,0,-1,3.248022317068837,4.824405461879383,-9999,16725.2116055,-0.0311431884765625,0.283111572265625,-0.9624176025390625,1,0.6
2020-05-20 01:14:40.104 -0400,1589951678.999793,41.35197118216535,-71.84492219437779,16.25837,0,-1,3.248022317068837,4.824405461879383,-9999,16725.2614915,-0.03192138671875,0.2825927734375,-0.9626312255859375,1,0.6
2020-05-20 01:14:40.154 -0400,1589951678.999793,41.35197118216535,-71.84492219437779,16.25837,0,-1,3.248022317068837,4.824405461879383,-9999,16725.3113775,-0.0319671630859375,0.282012939453125,-0.9626617431640625,1,0.6
2020-05-20 01:14:40.204 -0400,1589951678.999793,41.35197118216535,-71.84492219437779,16.25837,0,-1,3.248022317068837,4.824405461879383,-9999,16725.3612605,-0.0346221923828125,0.2850189208984375,-0.9623565673828125,1,0.6
2020-05-20 01:14:40.253 -0400,1589951678.999793,41.35197118216535,-71.84492219437779,16.25837,0,-1,3.248022317068837,4.824405461879383,-9999,16725.4111475,-0.0311279296875,0.28369140625,-0.963134765625,1,0.6
2020-05-20 01:14:40.303 -0400,1589951679.999794,41.35197118216535,-71.84492219437779,16.25837,0,-1,3.216573646020169,4.84542990997882,-9999,16725.4610325,-0.0316925048828125,0.2866363525390625,-0.96124267578125,1,0.6
2020-05-20 01:14:40.353 -0400,1589951679.999794,41.35197118216535,-71.84492219437779,16.25837,0,-1,3.216573646020169,4.84542990997882,-9999,16725.51091441667,-0.0355224609375,0.28472900390625,-0.9579315185546875,1,0.6
2020-05-20 01:14:40.403 -0400,1589951679.999794,41.35197118216535,-71.84492219437779,16.25837,0,-1,3.216573646020169,4.84542990997882,-9999,16725.56080041667,-0.0312042236328125,0.283843994140625,-0.9598388671875,1,0.6
2020-05-20 01:14:40.453 -0400,1589951679.999794,41.35197118216535,-71.84492219437779,16.25837,0,-1,3.216573646020169,4.84542990997882,-9999,16725.61068541667,-0.031402587890625,0.2850341796875,-0.96051025390625,1,0.6
2020-05-20 01:14:40.503 -0400,1589951679.999794,41.35197118216535,-71.84492219437779,16.25837,0,-1,3.216573646020169,4.84542990997882,-9999,16725.66057341667,-0.03460693359375,0.2868804931640625,-0.9608154296875,1,0.6
2020-05-20 01:14:40.553 -0400,1589951679.999794,41.35197118216535,-71.84492219437779,16.25837,0,-1,3.216573646020169,4.84542990997882,-9999,16725.71046141667,-0.032379150390625,0.285308837890625,-0.9601287841796875,1,0.6
2020-05-20 01:14:40.603 -0400,1589951679.999794,41.35197118216535,-71.84492219437779,16.25837,0,-1,3.216573646020169,4.84542990997882,-9999,16725.76034941667,-0.0333709716796875,0.2816925048828125,-0.956268310546875,1,0.6
2020-05-20 01:14:40.652 -0400,1589951679.999794,41.35197118216535,-71.84492219437779,16.25837,0,-1,3.216573646020169,4.84542990997882,-9999,16725.81023641667,-0.0344696044921875,0.2876434326171875,-0.9608917236328125,1,0.6
2020-05-20 01:14:40.703 -0400,1589951679.999794,41.35197118216535,-71.84492219437779,16.25837,0,-1,3.216573646020169,4.84542990997882,-9999,16725.86012241667,-0.0283660888671875,0.287261962890625,-0.9591522216796875,1,0.6
2020-05-20 01:14:40.752 -0400,1589951679.999794,41.35197118216535,-71.84492219437779,16.25837,0,-1,3.216573646020169,4.84542990997882,-9999,16725.91000941667,-0.0299072265625,0.285797119140625,-0.9604949951171875,1,0.6
2020-05-20 01:14:40.802 -0400,1589951679.999794,41.35197118216535,-71.84492219437779,16.25837,0,-1,3.216573646020169,4.84542990997882,-9999,16725.95989441667,-0.0316925048828125,0.2887115478515625,-0.96051025390625,1,0.6
2020-05-20 01:14:40.852 -0400,1589951679.999794,41.35197118216535,-71.84492219437779,16.25837,0,-1,3.216573646020169,4.84542990997882,-9999,16726.00977541667,-0.0306396484375,0.2868194580078125,-0.9586334228515625,1,0.6
2020-05-20 01:14:40.902 -0400,1589951679.999794,41.35197118216535,-71.84492219437779,16.25837,0,-1,3.216573646020169,4.84542990997882,-9999,16726.05965641667,-0.0315399169921875,0.2882537841796875,-0.9598236083984375,1,0.6
2020-05-20 01:14:40.952 -0400,1589951679.999794,41.35197118216535,-71.84492219437779,16.25837,0,-1,3.216573646020169,4.84542990997882,-9999,16726.10953241667,-0.0303192138671875,0.287261962890625,-0.96142578125,1,0.6
2020-05-20 01:14:41.002 -0400,1589951679.999794,41.35197118216535,-71.84492219437779,16.25837,0,-1,3.216573646020169,4.84542990997882,-9999,16726.15941241667,-0.0295257568359375,0.293701171875,-0.9592437744140625,1,0.6
2020-05-20 01:14:41.052 -0400,1589951679.999794,41.35197118216535,-71.84492219437779,16.25837,0,-1,3.216573646020169,4.84542990997882,-9999,16726.20929441667,-0.0275726318359375,0.28997802734375,-0.957366943359375,1,0.6
2020-05-20 01:14:41.102 -0400,1589951679.999794,41.35197118216535,-71.84492219437779,16.25837,0,-1,3.216573646020169,4.84542990997882,-9999,16726.25917641667,-0.0312347412109375,0.2843170166015625,-0.958770751953125,1,0.6
2020-05-20 01:14:41.151 -0400,1589951679.999794,41.35197118216535,-71.84492219437779,16.25837,0,-1,3.216573646020169,4.84542990997882,-9999,16726.30906141667,-0.0286407470703125,0.288116455078125,-0.95806884765625,1,0.6
2020-05-20 01:14:41.201 -0400,1589951679.999794,41.35197118216535,-71.84492219437779,16.25837,0,-1,3.216573646020169,4.84542990997882,-9999,16726.35894541667,-0.034088134765625,0.292266845703125,-0.961212158203125,1,0.6
2020-05-20 01:14:41.251 -0400,1589951679.999794,41.35197118216535,-71.84492219437779,16.25837,0,-1,3.216573646020169,4.84542990997882,-9999,16726.40882841667,-0.02923583984375,0.2910919189453125,-0.9578094482421875,1,0.6
2020-05-20 01:14:41.301 -0400,1589951680.999792,41.35197118216535,-71.84492219437779,16.25837,0,-1,3.190590677504832,4.862578345014926,-9999,16726.45871041667,-0.0320587158203125,0.28619384765625,-0.95623779296875,1,0.6
2020-05-20 01:14:41.351 -0400,1589951680.999792,41.35197118216535,-71.84492219437779,16.25837,0,-1,3.190590677504832,4.862578345014926,-9999,16726.50859275,-0.0350799560546875,0.2886505126953125,-0.9637603759765625,1,0.6
2020-05-20 01:14:41.401 -0400,1589951680.999792,41.35197118216535,-71.84492219437779,16.25837,0,-1,3.190590677504832,4.862578345014926,-9999,16726.55847675,-0.028564453125,0.29241943359375,-0.9657440185546875,1,0.6
2020-05-20 01:14:41.451 -0400,1589951680.999792,41.35197118216535,-71.84492219437779,16.25837,0,-1,3.190590677504832,4.862578345014926,-9999,16726.60836075,-0.0318450927734375,0.282501220703125,-0.9608917236328125,1,0.6
2020-05-20 01:14:41.501 -0400,1589951680.999792,41.35197118216535,-71.84492219437779,16.25837,0,-1,3.190590677504832,4.862578345014926,-9999,16726.65824475,-0.0293426513671875,0.284088134765625,-0.960845947265625,1,0.6
2020-05-20 01:14:41.551 -0400,1589951680.999792,41.35197118216535,-71.84492219437779,16.25837,0,-1,3.190590677504832,4.862578345014926,-9999,16726.70813075,-0.031494140625,0.293304443359375,-0.9618682861328125,1,0.6
2020-05-20 01:14:41.601 -0400,1589951680.999792,41.35197118216535,-71.84492219437779,16.25837,0,-1,3.190590677504832,4.862578345014926,-9999,16726.75801175,-0.0288543701171875,0.2861480712890625,-0.95855712890625,1,0.6
2020-05-20 01:14:41.650 -0400,1589951680.999792,41.35197118216535,-71.84492219437779,16.25837,0,-1,3.190590677504832,4.862578345014926,-9999,16726.80789475,-0.03131103515625,0.28546142578125,-0.95989990234375,1,0.6
2020-05-20 01:14:41.700 -0400,1589951680.999792,41.35197118216535,-71.84492219437779,16.25837,0,-1,3.190590677504832,4.862578345014926,-9999,16726.85777975,-0.0301666259765625,0.286865234375,-0.9603118896484375,1,0.6
2020-05-20 01:14:41.750 -0400,1589951680.999792,41.35197118216535,-71.84492219437779,16.25837,0,-1,3.190590677504832,4.862578345014926,-9999,16726.90766275,-0.0312042236328125,0.2840118408203125,-0.958587646484375,1,0.6
2020-05-20 01:14:41.800 -0400,1589951680.999792,41.35197118216535,-71.84492219437779,16.25837,0,-1,3.190590677504832,4.862578345014926,-9999,16726.95754575,-0.0322418212890625,0.28802490234375,-0.960662841796875,1,0.6
2020-05-20 01:14:41.850 -0400,1589951680.999792,41.35197118216535,-71.84492219437779,16.25837,0,-1,3.190590677504832,4.862578345014926,-9999,16727.00742975,-0.027923583984375,0.2881622314453125,-0.9581146240234375,1,0.6
2020-05-20 01:14:41.900 -0400,1589951680.999792,41.35197118216535,-71.84492219437779,16.25837,0,-1,3.190590677504832,4.862578345014926,-9999,16727.05731575,-0.0332183837890625,0.289642333984375,-0.9533233642578125,1,0.6
2020-05-20 01:14:41.949 -0400,1589951680.999792,41.35197118216535,-71.84492219437779,16.25837,0,-1,3.190590677504832,4.862578345014926,-9999,16727.10720075,-0.0296173095703125,0.28790283203125,-0.9579925537109375,1,0.6
2020-05-20 01:14:41.999 -0400,1589951680.999792,41.35197118216535,-71.84492219437779,16.25837,0,-1,3.190590677504832,4.862578345014926,-9999,16727.15708775,-0.0328521728515625,0.2882080078125,-0.960540771484375,1,0.6
2020-05-20 01:14:42.049 -0400,1589951680.999792,41.35197118216535,-71.84492219437779,16.25837,0,-1,3.190590677504832,4.862578345014926,-9999,16727.20697475,-0.03204345703125,0.2880401611328125,-0.959869384765625,1,0.6
2020-05-20 01:14:42.099 -0400,1589951680.999792,41.35197118216535,-71.84492219437779,16.25837,0,-1,3.190590677504832,4.862578345014926,-9999,16727.25686175,-0.0312957763671875,0.2914886474609375,-0.9554443359375,1,0.6
2020-05-20 01:14:42.149 -0400,1589951680.999792,41.35197118216535,-71.84492219437779,16.25837,0,-1,3.190590677504832,4.862578345014926,-9999,16727.30674875,-0.0331573486328125,0.2903900146484375,-0.959197998046875,1,0.6
2020-05-20 01:14:42.199 -0400,1589951680.999792,41.35197118216535,-71.84492219437779,16.25837,0,-1,3.190590677504832,4.862578345014926,-9999,16727.35663675,-0.0307769775390625,0.2880859375,-0.9598388671875,1,0.6
2020-05-20 01:14:42.249 -0400,1589951680.999792,41.35197118216535,-71.84492219437779,16.25837,0,-1,3.190590677504832,4.862578345014926,-9999,16727.40652475,-0.03173828125,0.2897491455078125,-0.9598388671875,1,0.6
2020-05-20 01:14:42.299 -0400,1589951680.999792,41.35197118216535,-71.84492219437779,16.25837,0,-1,3.190590677504832,4.862578345014926,-9999,16727.45641175,-0.03131103515625,0.292236328125,-0.9579925537109375,1,0.6
2020-05-20 01:14:42.349 -0400,1589951680.999792,41.35197118216535,-71.84492219437779,16.25837,0,-1,3.190590677504832,4.862578345014926,-9999,16727.50629816667,-0.0337371826171875,0.2920684814453125,-0.9586639404296875,1,0.6
2020-05-20 01:14:42.399 -0400,1589951681.999788,41.35197118216535,-71.84492219437779,16.25837,0,-1,3.219693769743764,4.843357209814493,-9999,16727.55618516667,-0.030181884765625,0.2897796630859375,-0.9601898193359375,1,0.6
2020-05-20 01:14:42.448 -0400,1589951681.999788,41.35197118216535,-71.84492219437779,16.25837,0,-1,3.219693769743764,4.843357209814493,-9999,16727.60607516667,-0.033294677734375,0.29327392578125,-0.9602813720703125,1,0.6
2020-05-20 01:14:42.498 -0400,1589951681.999788,41.35197118216535,-71.84492219437779,16.25837,0,-1,3.219693769743764,4.843357209814493,-9999,16727.65596116667,-0.032562255859375,0.292999267578125,-0.9549102783203125,1,0.6
2020-05-20 01:14:42.548 -0400,1589951681.999788,41.35197118216535,-71.84492219437779,16.25837,0,-1,3.219693769743764,4.843357209814493,-9999,16727.70584516667,-0.03009033203125,0.2868499755859375,-0.954742431640625,1,0.6
2020-05-20 01:14:42.598 -0400,1589951681.999788,41.35197118216535,-71.84492219437779,16.25837,0,-1,3.219693769743764,4.843357209814493,-9999,16727.75573416667,-0.0325775146484375,0.2904205322265625,-0.9621734619140625,1,0.6
2020-05-20 01:14:42.648 -0400,1589951681.999788,41.35197118216535,-71.84492219437779,16.25837,0,-1,3.219693769743764,4.843357209814493,-9999,16727.80562216667,-0.030853271484375,0.284576416015625,-0.959259033203125,1,0.6
2020-05-20 01:14:42.698 -0400,1589951681.999788,41.35197118216535,-71.84492219437779,16.25837,0,-1,3.219693769743764,4.843357209814493,-9999,16727.85551016667,-0.0300750732421875,0.2856903076171875,-0.95794677734375,1,0.6
2020-05-20 01:14:42.748 -0400,1589951681.999788,41.35197118216535,-71.84492219437779,16.25837,0,-1,3.219693769743764,4.843357209814493,-9999,16727.90539716667,-0.0303497314453125,0.28582763671875,-0.96282958984375,1,0.6
2020-05-20 01:14:42.798 -0400,1589951681.999788,41.35197118216535,-71.84492219437779,16.25837,0,-1,3.219693769743764,4.843357209814493,-9999,16727.95528316667,-0.032989501953125,0.285064697265625,-0.966339111328125,1,0.6
2020-05-20 01:14:42.848 -0400,1589951681.999788,41.35197118216535,-71.84492219437779,16.25837,0,-1,3.219693769743764,4.843357209814493,-9999,16728.00517216667,-0.0284881591796875,0.2840423583984375,-0.9658203125,1,0.6
2020-05-20 01:14:42.897 -0400,1589951681.999788,41.35197118216535,-71.84492219437779,16.25837,0,-1,3.219693769743764,4.843357209814493,-9999,16728.05505816667,-0.0289154052734375,0.2839202880859375,-0.9615325927734375,1,0.6
2020-05-20 01:14:42.947 -0400,1589951681.999788,41.35197118216535,-71.84492219437779,16.25837,0,-1,3.219693769743764,4.843357209814493,-9999,16728.10494616667,-0.034515380859375,0.282501220703125,-0.957427978515625,1,0.6
2020-05-20 01:14:42.997 -0400,1589951681.999788,41.35197118216535,-71.84492219437779,16.25837,0,-1,3.219693769743764,4.843357209814493,-9999,16728.15483416667,-0.0287933349609375,0.2861480712890625,-0.957244873046875,1,0.6
2020-05-20 01:14:43.047 -0400,1589951681.999788,41.35197118216535,-71.84492219437779,16.25837,0,-1,3.219693769743764,4.843357209814493,-9999,16728.20472116667,-0.0291290283203125,0.2834930419921875,-0.960357666015625,1,0.6
2020-05-20 01:14:43.097 -0400,1589951681.999788,41.35197118216535,-71.84492219437779,16.25837,0,-1,3.219693769743764,4.843357209814493,-9999,16728.25461016667,-0.030517578125,0.282684326171875,-0.9631805419921875,1,0.6
2020-05-20 01:14:43.147 -0400,1589951681.999788,41.35197118216535,-71.84492219437779,16.25837,0,-1,3.219693769743764,4.843357209814493,-9999,16728.30449916667,-0.0284576416015625,0.2832794189453125,-0.9629974365234375,1,0.6
2020-05-20 01:14:43.197 -0400,1589951681.999788,41.35197118216535,-71.84492219437779,16.25837,0,-1,3.219693769743764,4.843357209814493,-9999,16728.35438616667,-0.0282135009765625,0.281768798828125,-0.9613494873046875,1,0.6
2020-05-20 01:14:43.246 -0400,1589951681.999788,41.35197118216535,-71.84492219437779,16.25837,0,-1,3.219693769743764,4.843357209814493,-9999,16728.40427416667,-0.02874755859375,0.2901153564453125,-0.9635467529296875,1,0.6
2020-05-20 01:14:43.296 -0400,1589951681.999788,41.35197118216535,-71.84492219437779,16.25837,0,-1,3.219693769743764,4.843357209814493,-9999,16728.45416316667,-0.0248870849609375,0.2896270751953125,-0.9582977294921875,1,0.6
2020-05-20 01:14:43.346 -0400,1589951681.999788,41.35197118216535,-71.84492219437779,16.25837,0,-1,3.219693769743764,4.843357209814493,-9999,16728.50405354167,-0.0295562744140625,0.2829132080078125,-0.9609222412109375,1,0.6
2020-05-20 01:14:43.396 -0400,1589951682.999786,41.35197118216535,-71.84492219437779,16.25837,0,-1,3.229430504919244,4.836870439311547,-9999,16728.55394254167,-0.026123046875,0.2834320068359375,-0.9622344970703125,1,0.6
2020-05-20 01:14:43.446 -0400,1589951682.999786,41.35197118216535,-71.84492219437779,16.25837,0,-1,3.229430504919244,4.836870439311547,-9999,16728.60383054167,-0.02630615234375,0.2906951904296875,-0.9588165283203125,1,0.6
2020-05-20 01:14:43.496 -0400,1589951682.999786,41.35197118216535,-71.84492219437779,16.25837,0,-1,3.229430504919244,4.836870439311547,-9999,16728.65371754167,-0.025115966796875,0.2827301025390625,-0.9621124267578125,1,0.6
2020-05-20 01:14:43.546 -0400,1589951682.999786,41.35197118216535,-71.84492219437779,16.25837,0,-1,3.229430504919244,4.836870439311547,-9999,16728.70360654167,-0.02850341796875,0.286712646484375,-0.963531494140625,1,0.6
2020-05-20 01:14:43.596 -0400,1589951682.999786,41.35197118216535,-71.84492219437779,16.25837,0,-1,3.229430504919244,4.836870439311547,-9999,16728.75349654167,-0.028594970703125,0.288177490234375,-0.9593963623046875,1,0.6
2020-05-20 01:14:43.646 -0400,1589951682.999786,41.35197118216535,-71.84492219437779,16.25837,0,-1,3.229430504919244,4.836870439311547,-9999,16728.80338454167,-0.0191650390625,0.284912109375,-0.9661407470703125,1,0.6
2020-05-20 01:14:43.696 -0400,1589951682.999786,41.35197118216535,-71.84492219437779,16.25837,0,-1,3.229430504919244,4.836870439311547,-9999,16728.85327054167,-0.02484130859375,0.2886505126953125,-0.969451904296875,1,0.6
2020-05-20 01:14:43.745 -0400,1589951682.999786,41.35197118216535,-71.84492219437779,16.25837,0,-1,3.229430504919244,4.836870439311547,-9999,16728.90315354167,-0.0214385986328125,0.289459228515625,-0.96221923828125,1,0.6
2020-05-20 01:14:43.795 -0400,1589951682.999786,41.35197118216535,-71.84492219437779,16.25837,0,-1,3.229430504919244,4.836870439311547,-9999,16728.95303654167,-0.01873779296875,0.2905120849609375,-0.96258544921875,1,0.6
2020-05-20 01:14:43.845 -0400,1589951682.999786,41.35197118216535,-71.84492219437779,16.25837,0,-1,3.229430504919244,4.836870439311547,-9999,16729.00292254167,-0.0241546630859375,0.29095458984375,-0.9683990478515625,1,0.6
2020-05-20 01:14:43.895 -0400,1589951682.999786,41.35197118216535,-71.84492219437779,16.25837,0,-1,3.229430504919244,4.836870439311547,-9999,16729.05280854167,-0.01544189453125,0.286224365234375,-0.9585418701171875,1,0.6
2020-05-20 01:14:43.945 -0400,1589951682.999786,41.35197118216535,-71.84492219437779,16.25837,0,-1,3.229430504919244,4.836870439311547,-9999,16729.10269054167,-0.005828857421875,0.2884979248046875,-0.9779052734375,1,0.6
2020-05-20 01:14:43.995 -0400,1589951682.999786,41.35197118216535,-71.84492219437779,16.25837,0,-1,3.229430504919244,4.836870439311547,-9999,16729.15257554167,0.0030975341796875,0.2958984375,-0.970306396484375,1,0.6
2020-05-20 01:14:44.045 -0400,1589951682.999786,41.35197118216535,-71.84492219437779,16.25837,0,-1,3.229430504919244,4.836870439311547,-9999,16729.20245954167,0.0106048583984375,0.2913055419921875,-0.9937591552734375,1,0.6
2020-05-20 01:14:44.094 -0400,1589951682.999786,41.35197118216535,-71.84492219437779,16.25837,0,-1,3.229430504919244,4.836870439311547,-9999,16729.25234454167,0.0302734375,0.3223419189453125,-1.010940551757812,1,0.6
2020-05-20 01:14:44.144 -0400,1589951682.999786,41.35197118216535,-71.84492219437779,16.25837,0,-1,3.229430504919244,4.836870439311547,-9999,16729.30222854167,0.048126220703125,0.3324127197265625,-0.967498779296875,1,0.6
2020-05-20 01:14:44.195 -0400,1589951682.999786,41.35197118216535,-71.84492219437779,16.25837,0,-1,3.229430504919244,4.836870439311547,-9999,16729.35211154167,0.0043792724609375,0.2631683349609375,-0.9473114013671875,1,0.6
2020-05-20 01:14:44.244 -0400,1589951682.999786,41.35197118216535,-71.84492219437779,16.25837,0,-1,3.229430504919244,4.836870439311547,-9999,16729.40199454167,-0.078460693359375,0.243896484375,-0.9242401123046875,1,0.6
2020-05-20 01:14:44.294 -0400,1589951683.999783,41.35197118216535,-71.84492219437779,16.25837,0,-1,3.265026022028721,4.812914097328576,-9999,16729.45187654167,-0.0797271728515625,0.25640869140625,-0.958160400390625,1,0.6
2020-05-20 01:14:44.344 -0400,1589951683.999783,41.35197118216535,-71.84492219437779,16.25837,0,-1,3.265026022028721,4.812914097328576,-9999,16729.501760125,-0.0074005126953125,0.2610321044921875,-1.029541015625,1,0.6
2020-05-20 01:14:44.394 -0400,1589951683.999783,41.35197118216535,-71.84492219437779,16.25837,0,-1,3.265026022028721,4.812914097328576,-9999,16729.551644125,0.0021209716796875,0.27850341796875,-0.99945068359375,1,0.6
2020-05-20 01:14:44.444 -0400,1589951683.999783,41.35197118216535,-71.84492219437779,16.25837,0,-1,3.265026022028721,4.812914097328576,-9999,16729.601528125,0.0002288818359375,0.2853546142578125,-0.9879608154296875,1,0.6
2020-05-20 01:14:44.494 -0400,1589951683.999783,41.35197118216535,-71.84492219437779,16.25837,0,-1,3.265026022028721,4.812914097328576,-9999,16729.651413125,-0.02471923828125,0.2550201416015625,-0.961395263671875,1,0.6
2020-05-20 01:14:44.544 -0400,1589951683.999783,41.35197118216535,-71.84492219437779,16.25837,0,-1,3.265026022028721,4.812914097328576,-9999,16729.701299125,-0.0276031494140625,0.2377777099609375,-0.9631195068359375,1,0.6
2020-05-20 01:14:44.594 -0400,1589951683.999783,41.35197118216535,-71.84492219437779,16.25837,0,-1,3.265026022028721,4.812914097328576,-9999,16729.751188125,-0.030242919921875,0.2193450927734375,-0.9441680908203125,1,0.6
2020-05-20 01:14:44.643 -0400,1589951683.999783,41.35197118216535,-71.84492219437779,16.25837,0,-1,3.265026022028721,4.812914097328576,-9999,16729.801077125,-0.00555419921875,0.2378387451171875,-0.929290771484375,1,0.6
2020-05-20 01:14:44.693 -0400,1589951683.999783,41.35197118216535,-71.84492219437779,16.25837,0,-1,3.265026022028721,4.812914097328576,-9999,16729.850965125,-0.0083465576171875,0.212890625,-0.8869171142578125,1,0.6
2020-05-20 01:14:44.743 -0400,1589951683.999783,41.35197118216535,-71.84492219437779,16.25837,0,-1,3.265026022028721,4.812914097328576,-9999,16729.900851125,-0.0022430419921875,0.1772613525390625,-0.950897216796875,1,0.6
2020-05-20 01:14:44.793 -0400,1589951683.999783,41.35197118216535,-71.84492219437779,16.25837,0,-1,3.265026022028721,4.812914097328576,-9999,16729.950735125,-0.040283203125,0.2559051513671875,-0.8978424072265625,1,0.6
2020-05-20 01:14:44.843 -0400,1589951683.999783,41.35197118216535,-71.84492219437779,16.25837,0,-1,3.265026022028721,4.812914097328576,-9999,16730.000624125,0.026580810546875,0.321563720703125,-0.9753265380859375,1,0.6
2020-05-20 01:14:44.893 -0400,1589951683.999783,41.35197118216535,-71.84492219437779,16.25837,0,-1,3.265026022028721,4.812914097328576,-9999,16730.050512125,-0.005218505859375,0.2516326904296875,-1.061798095703125,1,0.6
2020-05-20 01:14:44.943 -0400,1589951683.999783,41.35197118216535,-71.84492219437779,16.25837,0,-1,3.265026022028721,4.812914097328576,-9999,16730.100398125,0.0437774658203125,0.2367706298828125,-0.860504150390625,1,0.6
2020-05-20 01:14:44.993 -0400,1589951683.999783,41.35197118216535,-71.84492219437779,16.25837,0,-1,3.265026022028721,4.812914097328576,-9999,16730.150286125,0.04461669921875,0.2132110595703125,-1.057586669921875,1,0.6
2020-05-20 01:14:45.042 -0400,1589951683.999783,41.35197118216535,-71.84492219437779,16.25837,0,-1,3.265026022028721,4.812914097328576,-9999,16730.200175125,-0.0207366943359375,0.2012939453125,-1.133163452148438,1,0.6
2020-05-20 01:14:45.092 -0400,1589951683.999783,41.35197118216535,-71.84492219437779,16.25837,0,-1,3.265026022028721,4.812914097328576,-9999,16730.250061125,-0.0428009033203125,0.2516021728515625,-1.158096313476562,1,0.6
2020-05-20 01:14:45.142 -0400,1589951683.999783,41.35197118216535,-71.84492219437779,16.25837,0,-1,3.265026022028721,4.812914097328576,-9999,16730.299947125,-0.0550994873046875,0.1456146240234375,-0.8964996337890625,1,0.6
2020-05-20 01:14:45.192 -0400,1589951683.999783,41.35197118216535,-71.84492219437779,16.25837,0,-1,3.265026022028721,4.812914097328576,-9999,16730.349835125,0.0152587890625,0.1504364013671875,-0.810638427734375,1,0.6
2020-05-20 01:14:45.242 -0400,1589951683.999783,41.35197118216535,-71.84492219437779,16.25837,0,-1,3.265026022028721,4.812914097328576,-9999,16730.399719125,0.0145263671875,0.2783050537109375,-0.9320831298828125,1,0.6
2020-05-20 01:14:45.292 -0400,1589951684.999782,41.35197118216535,-71.84492219437779,16.25837,0,-1,3.267159247313135,4.811466251101125,-9999,16730.449606125,-0.0122528076171875,0.2590179443359375,-0.96356201171875,1,0.6
2020-05-20 01:14:45.342 -0400,1589951684.999782,41.35197118216535,-71.84492219437779,16.25837,0,-1,3.267159247313135,4.811466251101125,-9999,16730.49949391667,0.0044097900390625,0.265167236328125,-0.960296630859375,1,0.6
2020-05-20 01:14:45.392 -0400,1589951684.999782,41.35197118216535,-71.84492219437779,16.25837,0,-1,3.267159247313135,4.811466251101125,-9999,16730.54937991667,-0.0192718505859375,0.2857818603515625,-0.9980010986328125,1,0.6
2020-05-20 01:14:45.442 -0400,1589951684.999782,41.35197118216535,-71.84492219437779,16.25837,0,-1,3.267159247313135,4.811466251101125,-9999,16730.59926491667,0.012603759765625,0.2772979736328125,-1.06573486328125,1,0.6
2020-05-20 01:14:45.491 -0400,1589951684.999782,41.35197118216535,-71.84492219437779,16.25837,0,-1,3.267159247313135,4.811466251101125,-9999,16730.64914991667,-0.0718994140625,0.23333740234375,-0.9216156005859375,1,0.6
2020-05-20 01:14:45.541 -0400,1589951684.999782,41.35197118216535,-71.84492219437779,16.25837,0,-1,3.267159247313135,4.811466251101125,-9999,16730.69903391667,-0.043792724609375,0.258544921875,-0.89544677734375,1,0.6
2020-05-20 01:14:45.591 -0400,1589951684.999782,41.35197118216535,-71.84492219437779,16.25837,0,-1,3.267159247313135,4.811466251101125,-9999,16730.74892091667,0.017547607421875,0.3042449951171875,-0.983551025390625,1,0.6
2020-05-20 01:14:45.641 -0400,1589951684.999782,41.35197118216535,-71.84492219437779,16.25837,0,-1,3.267159247313135,4.811466251101125,-9999,16730.79880991667,0.02008056640625,0.302886962890625,-0.9683685302734375,1,0.6
2020-05-20 01:14:45.691 -0400,1589951684.999782,41.35197118216535,-71.84492219437779,16.25837,0,-1,3.267159247313135,4.811466251101125,-9999,16730.84869691667,-0.000152587890625,0.277313232421875,-0.820220947265625,1,0.6
2020-05-20 01:14:45.741 -0400,1589951684.999782,41.35197118216535,-71.84492219437779,16.25837,0,-1,3.267159247313135,4.811466251101125,-9999,16730.89858491667,-0.0019073486328125,0.2440643310546875,-1.012619018554688,1,0.6
2020-05-20 01:14:45.791 -0400,1589951684.999782,41.35197118216535,-71.84492219437779,16.25837,0,-1,3.267159247313135,4.811466251101125,-9999,16730.94847291667,-0.0508575439453125,0.25323486328125,-0.9502410888671875,1,0.6
2020-05-20 01:14:45.840 -0400,1589951684.999782,41.35197118216535,-71.84492219437779,16.25837,0,-1,3.267159247313135,4.811466251101125,-9999,16730.99835991667,0.0128021240234375,0.26641845703125,-1.022842407226562,1,0.6
2020-05-20 01:14:45.891 -0400,1589951684.999782,41.35197118216535,-71.84492219437779,16.25837,0,-1,3.267159247313135,4.811466251101125,-9999,16731.04824891667,-0.0021209716796875,0.288116455078125,-1.02874755859375,1,0.6
2020-05-20 01:14:45.940 -0400,1589951684.999782,41.35197118216535,-71.84492219437779,16.25837,0,-1,3.267159247313135,4.811466251101125,-9999,16731.09813591667,-0.0370025634765625,0.2477569580078125,-0.964996337890625,1,0.6
2020-05-20 01:14:45.990 -0400,1589951684.999782,41.35197118216535,-71.84492219437779,16.25837,0,-1,3.267159247313135,4.811466251101125,-9999,16731.14801991667,0.033599853515625,0.2543792724609375,-0.8817901611328125,1,0.6
2020-05-20 01:14:46.040 -0400,1589951684.999782,41.35197118216535,-71.84492219437779,16.25837,0,-1,3.267159247313135,4.811466251101125,-9999,16731.19790491667,-0.00054931640625,0.314300537109375,-0.9557647705078125,1,0.6
2020-05-20 01:14:46.091 -0400,1589951684.999782,41.35197118216535,-71.84492219437779,16.25837,0,-1,3.267159247313135,4.811466251101125,-9999,16731.24779191667,-0.0241546630859375,0.2732696533203125,-1.019241333007812,1,0.6
2020-05-20 01:14:46.140 -0400,1589951684.999782,41.35197118216535,-71.84492219437779,16.25837,0,-1,3.267159247313135,4.811466251101125,-9999,16731.29767591667,-0.0337677001953125,0.2799530029296875,-0.9634246826171875,1,0.6
2020-05-20 01:14:46.190 -0400,1589951684.999782,41.35197118216535,-71.84492219437779,16.25837,0,-1,3.267159247313135,4.811466251101125,-9999,16731.34756091667,-0.0068817138671875,0.278533935546875,-1.00067138671875,1,0.6
2020-05-20 01:14:46.241 -0400,1589951684.999782,41.35197118216535,-71.84492219437779,16.25837,0,-1,3.267159247313135,4.811466251101125,-9999,16731.39744591667,0.0076446533203125,0.25616455078125,-0.9097442626953125,1,0.6
2020-05-20 01:14:46.290 -0400,1589951684.999782,41.35197118216535,-71.84492219437779,16.25837,0,-1,3.267159247313135,4.811466251101125,-9999,16731.44733091667,0.0042266845703125,0.2772369384765625,-0.9083099365234375,1,0.6
2020-05-20 01:14:46.339 -0400,1589951684.999782,41.35197118216535,-71.84492219437779,16.25837,0,-1,3.267159247313135,4.811466251101125,-9999,16731.497216125,-0.003509521484375,0.31072998046875,-0.990447998046875,1,0.6
2020-05-20 01:14:46.389 -0400,1589951685.999777,41.35199325525524,-71.84492546343306,17.35314,0,-1,3.270834336074731,4.808968681405964,-9999,16731.547102125,-0.02447509765625,0.2647705078125,-0.9322509765625,1,0.6
2020-05-20 01:14:46.439 -0400,1589951685.999777,41.35199325525524,-71.84492546343306,17.35314,0,-1,3.270834336074731,4.808968681405964,-9999,16731.596991125,-0.0056915283203125,0.3083343505859375,-0.97796630859375,1,0.6
2020-05-20 01:14:46.489 -0400,1589951685.999777,41.35199325525524,-71.84492546343306,17.35314,0,-1,3.270834336074731,4.808968681405964,-9999,16731.646879125,-0.0224609375,0.287078857421875,-0.9755706787109375,1,0.6
2020-05-20 01:14:46.539 -0400,1589951685.999777,41.35199325525524,-71.84492546343306,17.35314,0,-1,3.270834336074731,4.808968681405964,-9999,16731.696766125,0.006256103515625,0.3654937744140625,-0.9837493896484375,1,0.6
2020-05-20 01:14:46.589 -0400,1589951685.999777,41.35199325525524,-71.84492546343306,17.35314,0,-1,3.270834336074731,4.808968681405964,-9999,16731.746654125,-0.001220703125,0.3507843017578125,-0.9783782958984375,1,0.6
2020-05-20 01:14:46.639 -0400,1589951685.999777,41.35199325525524,-71.84492546343306,17.35314,0,-1,3.270834336074731,4.808968681405964,-9999,16731.796538125,-0.0159912109375,0.3171844482421875,-0.9002532958984375,1,0.6
2020-05-20 01:14:46.689 -0400,1589951685.999777,41.35199325525524,-71.84492546343306,17.35314,0,-1,3.270834336074731,4.808968681405964,-9999,16731.846426125,-0.0047760009765625,0.2928466796875,-0.9390411376953125,1,0.6
2020-05-20 01:14:46.738 -0400,1589951685.999777,41.35199325525524,-71.84492546343306,17.35314,0,-1,3.270834336074731,4.808968681405964,-9999,16731.896316125,-0.001251220703125,0.41754150390625,-1.0299072265625,1,0.6
2020-05-20 01:14:46.789 -0400,1589951685.999777,41.35199325525524,-71.84492546343306,17.35314,0,-1,3.270834336074731,4.808968681405964,-9999,16731.946201125,-0.0400238037109375,0.1853485107421875,-0.8768310546875,1,0.6
2020-05-20 01:14:46.838 -0400,1589951685.999777,41.35199325525524,-71.84492546343306,17.35314,0,-1,3.270834336074731,4.808968681405964,-9999,16731.996086125,-0.0630035400390625,0.2781982421875,-0.8953857421875,1,0.6
2020-05-20 01:14:46.888 -0400,1589951685.999777,41.35199325525524,-71.84492546343306,17.35314,0,-1,3.270834336074731,4.808968681405964,-9999,16732.045974125,0.0059814453125,0.3427276611328125,-0.9311370849609375,1,0.6
2020-05-20 01:14:46.938 -0400,1589951685.999777,41.35199325525524,-71.84492546343306,17.35314,0,-1,3.270834336074731,4.808968681405964,-9999,16732.095855125,-0.002899169921875,0.3925323486328125,-0.981414794921875,1,0.6
2020-05-20 01:14:46.988 -0400,1589951685.999777,41.35199325525524,-71.84492546343306,17.35314,0,-1,3.270834336074731,4.808968681405964,-9999,16732.145739125,-0.0677642822265625,0.3024749755859375,-0.9088592529296875,1,0.6
2020-05-20 01:14:47.038 -0400,1589951685.999777,41.35199325525524,-71.84492546343306,17.35314,0,-1,3.270834336074731,4.808968681405964,-9999,16732.195624125,-0.01837158203125,0.354156494140625,-0.9248809814453125,1,0.6
2020-05-20 01:14:47.088 -0400,1589951685.999777,41.35199325525524,-71.84492546343306,17.35314,0,-1,3.270834336074731,4.808968681405964,-9999,16732.245508125,-0.0045928955078125,0.220611572265625,-0.9540557861328125,1,0.6
2020-05-20 01:14:47.138 -0400,1589951685.999777,41.35199325525524,-71.84492546343306,17.35314,0,-1,3.270834336074731,4.808968681405964,-9999,16732.295398125,-0.087066650390625,0.2966766357421875,-0.988922119140625,1,0.6
2020-05-20 01:14:47.188 -0400,1589951685.999777,41.35199325525524,-71.84492546343306,17.35314,0,-1,3.270834336074731,4.808968681405964,-9999,16732.345284125,-0.0999755859375,0.23223876953125,-0.9534454345703125,1,0.6
2020-05-20 01:14:47.237 -0400,1589951686.99977,41.35199006992598,-71.84492447143955,17.35785,0,-1,3.275952151948545,4.805483797801479,-9999,16732.395170125,-0.0650787353515625,0.2607421875,-0.9809722900390625,1,0.6
2020-05-20 01:14:47.287 -0400,1589951686.99977,41.35199006992598,-71.84492447143955,17.35785,0,-1,3.275952151948545,4.805483797801479,-9999,16732.445054125,-0.0446319580078125,0.2266082763671875,-0.92352294921875,1,0.6
2020-05-20 01:14:47.337 -0400,1589951686.99977,41.35199006992598,-71.84492447143955,17.35785,0,-1,3.275952151948545,4.805483797801479,-9999,16732.49493529167,0.0046844482421875,0.2642059326171875,-0.983367919921875,1,0.6
2020-05-20 01:14:47.387 -0400,1589951686.99977,41.35199006992598,-71.84492447143955,17.35785,0,-1,3.275952151948545,4.805483797801479,-9999,16732.54481729167,-0.0290679931640625,0.289276123046875,-0.94793701171875,1,0.6
2020-05-20 01:14:47.437 -0400,1589951686.99977,41.35199006992598,-71.84492447143955,17.35785,0,-1,3.275952151948545,4.805483797801479,-9999,16732.59470329167,0.00421142578125,0.31024169921875,-0.930511474609375,1,0.6
2020-05-20 01:14:47.487 -0400,1589951686.99977,41.35199006992598,-71.84492447143955,17.35785,0,-1,3.275952151948545,4.805483797801479,-9999,16732.64459029167,-0.017242431640625,0.2942047119140625,-1.1181640625,1,0.6
2020-05-20 01:14:47.537 -0400,1589951686.99977,41.35199006992598,-71.84492447143955,17.35785,0,-1,3.275952151948545,4.805483797801479,-9999,16732.69447729167,-0.05047607421875,0.18768310546875,-0.8496856689453125,1,0.6
2020-05-20 01:14:47.586 -0400,1589951686.99977,41.35199006992598,-71.84492447143955,17.35785,0,-1,3.275952151948545,4.805483797801479,-9999,16732.74436329167,-0.0638885498046875,0.3252716064453125,-1.061874389648438,1,0.6
2020-05-20 01:14:47.636 -0400,1589951686.99977,41.35199006992598,-71.84492447143955,17.35785,0,-1,3.275952151948545,4.805483797801479,-9999,16732.79424829167,-0.045196533203125,0.2477569580078125,-0.9266204833984375,1,0.6
2020-05-20 01:14:47.686 -0400,1589951686.99977,41.35199006992598,-71.84492447143955,17.35785,0,-1,3.275952151948545,4.805483797801479,-9999,16732.84413429167,-0.0306243896484375,0.3055572509765625,-0.8611907958984375,1,0.6
2020-05-20 01:14:47.736 -0400,1589951686.99977,41.35199006992598,-71.84492447143955,17.35785,0,-1,3.275952151948545,4.805483797801479,-9999,16732.89402129167,-0.0164947509765625,0.338470458984375,-0.9268646240234375,1,0.6
2020-05-20 01:14:47.786 -0400,1589951686.99977,41.35199006992598,-71.84492447143955,17.35785,0,-1,3.275952151948545,4.805483797801479,-9999,16732.94390629167,-0.0153656005859375,0.342926025390625,-0.9730987548828125,1,0.6
2020-05-20 01:14:47.836 -0400,1589951686.99977,41.35199006992598,-71.84492447143955,17.35785,0,-1,3.275952151948545,4.805483797801479,-9999,16732.99379029167,-0.0278472900390625,0.2563323974609375,-0.9134368896484375,1,0.6
2020-05-20 01:14:47.886 -0400,1589951686.99977,41.35199006992598,-71.84492447143955,17.35785,0,-1,3.275952151948545,4.805483797801479,-9999,16733.04367729167,-0.0242462158203125,0.4924468994140625,-1.1025390625,1,0.6
2020-05-20 01:14:47.936 -0400,1589951686.99977,41.35199006992598,-71.84492447143955,17.35785,0,-1,3.275952151948545,4.805483797801479,-9999,16733.09356429167,-0.06744384765625,0.2425384521484375,-0.9084930419921875,1,0.6
2020-05-20 01:14:47.986 -0400,1589951686.99977,41.35199006992598,-71.84492447143955,17.35785,0,-1,3.275952151948545,4.805483797801479,-9999,16733.14345329167,-0.041259765625,0.331024169921875,-0.9462127685546875,1,0.6
2020-05-20 01:14:48.035 -0400,1589951686.99977,41.35199006992598,-71.84492447143955,17.35785,0,-1,3.275952151948545,4.805483797801479,-9999,16733.19334129167,-0.0391693115234375,0.2772674560546875,-0.9311065673828125,1,0.6
2020-05-20 01:14:48.085 -0400,1589951686.99977,41.35199006992598,-71.84492447143955,17.35785,0,-1,3.275952151948545,4.805483797801479,-9999,16733.24322829167,-0.0335845947265625,0.292938232421875,-0.9138031005859375,1,0.6
2020-05-20 01:14:48.135 -0400,1589951686.99977,41.35199006992598,-71.84492447143955,17.35785,0,-1,3.275952151948545,4.805483797801479,-9999,16733.29311229167,-0.0372161865234375,0.3168182373046875,-0.946533203125,1,0.6
2020-05-20 01:14:48.185 -0400,1589951686.99977,41.35199006992598,-71.84492447143955,17.35785,0,-1,3.275952151948545,4.805483797801479,-9999,16733.34299629167,-0.0558929443359375,0.355560302734375,-0.9701690673828125,1,0.6
2020-05-20 01:14:48.235 -0400,1589951687.999766,41.35198838634306,-71.84492390050372,17.38561,0,-1,3.282870385579848,4.800760258987284,-9999,16733.39288029167,-0.069000244140625,0.340911865234375,-0.9693145751953125,1,0.6
2020-05-20 01:14:48.285 -0400,1589951687.999766,41.35198838634306,-71.84492390050372,17.38561,0,-1,3.282870385579848,4.800760258987284,-9999,16733.44276629167,-0.0597991943359375,0.3100433349609375,-0.91357421875,1,0.6
2020-05-20 01:14:48.335 -0400,1589951687.999766,41.35198838634306,-71.84492390050372,17.38561,0,-1,3.282870385579848,4.800760258987284,-9999,16733.49265329167,-0.0359954833984375,0.3075103759765625,-0.938568115234375,1,0.6
2020-05-20 01:14:48.385 -0400,1589951687.999766,41.35198838634306,-71.84492390050372,17.38561,0,-1,3.282870385579848,4.800760258987284,-9999,16733.54254129167,-0.0167388916015625,0.32745361328125,-0.9393310546875,1,0.6
2020-05-20 01:14:48.435 -0400,1589951687.999766,41.35198838634306,-71.84492390050372,17.38561,0,-1,3.282870385579848,4.800760258987284,-9999,16733.59242629167,-0.0238189697265625,0.3026123046875,-0.9379425048828125,1,0.6
2020-05-20 01:14:48.484 -0400,1589951687.999766,41.35198838634306,-71.84492390050372,17.38561,0,-1,3.282870385579848,4.800760258987284,-9999,16733.64231329167,-0.0734710693359375,0.309722900390625,-0.9481658935546875,1,0.6
2020-05-20 01:14:48.534 -0400,1589951687.999766,41.35198838634306,-71.84492390050372,17.38561,0,-1,3.282870385579848,4.800760258987284,-9999,16733.69219929167,-0.0616302490234375,0.3199310302734375,-0.9434051513671875,1,0.6
2020-05-20 01:14:48.584 -0400,1589951687.999766,41.35198838634306,-71.84492390050372,17.38561,0,-1,3.282870385579848,4.800760258987284,-9999,16733.74208529167,-0.0384521484375,0.3230438232421875,-0.899017333984375,1,0.6
2020-05-20 01:14:48.634 -0400,1589951687.999766,41.35198838634306,-71.84492390050372,17.38561,0,-1,3.282870385579848,4.800760258987284,-9999,16733.79196929167,-0.0673675537109375,0.3658599853515625,-0.9652862548828125,1,0.6
2020-05-20 01:14:48.684 -0400,1589951687.999766,41.35198838634306,-71.84492390050372,17.38561,0,-1,3.282870385579848,4.800760258987284,-9999,16733.84185529167,-0.034149169921875,0.3166351318359375,-0.937042236328125,1,0.6
2020-05-20 01:14:48.734 -0400,1589951687.999766,41.35198838634306,-71.84492390050372,17.38561,0,-1,3.282870385579848,4.800760258987284,-9999,16733.89174229167,-0.0379180908203125,0.3270416259765625,-0.948089599609375,1,0.6
2020-05-20 01:14:48.784 -0400,1589951687.999766,41.35198838634306,-71.84492390050372,17.38561,0,-1,3.282870385579848,4.800760258987284,-9999,16733.94162729167,-0.0516815185546875,0.3423614501953125,-0.9170379638671875,1,0.6
2020-05-20 01:14:48.834 -0400,1589951687.999766,41.35198838634306,-71.84492390050372,17.38561,0,-1,3.282870385579848,4.800760258987284,-9999,16733.99150929167,-0.027008056640625,0.344207763671875,-0.951019287109375,1,0.6
2020-05-20 01:14:48.883 -0400,1589951687.999766,41.35198838634306,-71.84492390050372,17.38561,0,-1,3.282870385579848,4.800760258987284,-9999,16734.04139329167,-0.0494537353515625,0.3121337890625,-0.934417724609375,1,0.6
2020-05-20 01:14:48.933 -0400,1589951687.999766,41.35198838634306,-71.84492390050372,17.38561,0,-1,3.282870385579848,4.800760258987284,-9999,16734.09127929167,-0.0394744873046875,0.3130340576171875,-0.982391357421875,1,0.6
2020-05-20 01:14:48.983 -0400,1589951687.999766,41.35198838634306,-71.84492390050372,17.38561,0,-1,3.282870385579848,4.800760258987284,-9999,16734.14116229167,-0.0397796630859375,0.3130950927734375,-0.929931640625,1,0.6
2020-05-20 01:14:49.033 -0400,1589951687.999766,41.35198838634306,-71.84492390050372,17.38561,0,-1,3.282870385579848,4.800760258987284,-9999,16734.19104429167,-0.0902099609375,0.4021148681640625,-1.027084350585938,1,0.6
2020-05-20 01:14:49.083 -0400,1589951687.999766,41.35198838634306,-71.84492390050372,17.38561,0,-1,3.282870385579848,4.800760258987284,-9999,16734.24092629167,-0.0513458251953125,0.2670135498046875,-0.8945770263671875,1,0.6
2020-05-20 01:14:49.133 -0400,1589951687.999766,41.35198838634306,-71.84492390050372,17.38561,0,-1,3.282870385579848,4.800760258987284,-9999,16734.29080829167,-0.0320281982421875,0.4781646728515625,-1.0125732421875,1,0.6
2020-05-20 01:14:49.183 -0400,1589951687.999766,41.35198838634306,-71.84492390050372,17.38561,0,-1,3.282870385579848,4.800760258987284,-9999,16734.34068729167,-0.045745849609375,0.29986572265625,-0.8665771484375,1,0.6
2020-05-20 01:14:49.233 -0400,1589951687.999766,41.35198838634306,-71.84492390050372,17.38561,0,-1,3.282870385579848,4.800760258987284,-9999,16734.39056629167,-0.020416259765625,0.331512451171875,-0.9002685546875,1,0.6
2020-05-20 01:14:49.283 -0400,1589951687.999766,41.35198838634306,-71.84492390050372,17.38561,0,-1,3.282870385579848,4.800760258987284,-9999,16734.44044529167,-0.0209197998046875,0.36328125,-0.901458740234375,1,0.6
2020-05-20 01:14:49.333 -0400,1589951688.999763,41.35198838634306,-71.84492390050372,17.38561,0,-1,3.265624009930093,4.812508374907719,-9999,16734.49032829167,0.0017547607421875,0.2885284423828125,-0.9581146240234375,1,0.6
2020-05-20 01:14:49.382 -0400,1589951688.999763,41.35198838634306,-71.84492390050372,17.38561,0,-1,3.265624009930093,4.812508374907719,-9999,16734.54020929167,-0.0238189697265625,0.3284149169921875,-0.9603271484375,1,0.6
2020-05-20 01:14:49.432 -0400,1589951688.999763,41.35198838634306,-71.84492390050372,17.38561,0,-1,3.265624009930093,4.812508374907719,-9999,16734.59009229167,-0.0597076416015625,0.34954833984375,-1.000213623046875,1,0.6
2020-05-20 01:14:49.482 -0400,1589951688.999763,41.35198838634306,-71.84492390050372,17.38561,0,-1,3.265624009930093,4.812508374907719,-9999,16734.63997529167,-0.0546722412109375,0.3300018310546875,-0.9547271728515625,1,0.6
2020-05-20 01:14:49.532 -0400,1589951688.999763,41.35198838634306,-71.84492390050372,17.38561,0,-1,3.265624009930093,4.812508374907719,-9999,16734.68985729167,-0.0434722900390625,0.3001251220703125,-0.9260101318359375,1,0.6
2020-05-20 01:14:49.582 -0400,1589951688.999763,41.35198838634306,-71.84492390050372,17.38561,0,-1,3.265624009930093,4.812508374907719,-9999,16734.73973929167,-0.04254150390625,0.3441314697265625,-0.941009521484375,1,0.6
2020-05-20 01:14:49.632 -0400,1589951688.999763,41.35198838634306,-71.84492390050372,17.38561,0,-1,3.265624009930093,4.812508374907719,-9999,16734.78962029167,-0.045318603515625,0.347137451171875,-0.9425811767578125,1,0.6
2020-05-20 01:14:49.682 -0400,1589951688.999763,41.35198838634306,-71.84492390050372,17.38561,0,-1,3.265624009930093,4.812508374907719,-9999,16734.83950429167,-0.0388641357421875,0.3292236328125,-0.933258056640625,1,0.6
2020-05-20 01:14:49.731 -0400,1589951688.999763,41.35198838634306,-71.84492390050372,17.38561,0,-1,3.265624009930093,4.812508374907719,-9999,16734.88938929167,-0.0437469482421875,0.322540283203125,-0.934722900390625,1,0.6
2020-05-20 01:14:49.782 -0400,1589951688.999763,41.35198838634306,-71.84492390050372,17.38561,0,-1,3.265624009930093,4.812508374907719,-9999,16734.93927429167,-0.0457916259765625,0.3218231201171875,-0.940155029296875,1,0.6
2020-05-20 01:14:49.831 -0400,1589951688.999763,41.35198838634306,-71.84492390050372,17.38561,0,-1,3.265624009930093,4.812508374907719,-9999,16734.98915929167,-0.04803466796875,0.334503173828125,-0.9436798095703125,1,0.6
2020-05-20 01:14:49.881 -0400,1589951688.999763,41.35198838634306,-71.84492390050372,17.38561,0,-1,3.265624009930093,4.812508374907719,-9999,16735.03904329167,-0.0341033935546875,0.3077850341796875,-0.9532928466796875,1,0.6
2020-05-20 01:14:49.931 -0400,1589951688.999763,41.35198838634306,-71.84492390050372,17.38561,0,-1,3.265624009930093,4.812508374907719,-9999,16735.08892729167,-0.04205322265625,0.32110595703125,-0.9258880615234375,1,0.6
2020-05-20 01:14:49.981 -0400,1589951688.999763,41.35198838634306,-71.84492390050372,17.38561,0,-1,3.265624009930093,4.812508374907719,-9999,16735.13880929167,-0.0597991943359375,0.360198974609375,-0.948394775390625,1,0.6
