loggingTime(txt),locationTimestamp_since1970(s),locationLatitude(WGS84),locationLongitude(WGS84),locationAltitude(m),locationSpeed(m/s),locationCourse(°),locationVerticalAccuracy(m),locationHorizontalAccuracy(m),locationFloor(Z),accelerometerTimestamp_sinceReboot(s),accelerometerAccelerationX(G),accelerometerAccelerationY(G),accelerometerAccelerationZ(G),batteryState,batteryLevel
2020-05-20 01:10:07.989 -0400,1589951407.47507,41.35202544271646,-71.84494356492382,18.73717,-1,-1,10,65,-9999,16544.12345075,0.0438079833984375,-0.3466644287109375,-0.95123291015625,1,0.6
2020-05-20 01:10:08.039 -0400,1589951407.47507,41.35202544271646,-71.84494356492382,18.73717,-1,-1,10,65,-9999,16544.17334175,0.0152740478515625,-0.366424560546875,-0.9094390869140625,1,0.6
2020-05-20 01:10:08.089 -0400,1589951407.47507,41.35202544271646,-71.84494356492382,18.73717,-1,-1,10,65,-9999,16544.223231875,0.0430450439453125,-0.3683013916015625,-0.9148712158203125,1,0.6
2020-05-20 01:10:08.139 -0400,1589951407.47507,41.35202544271646,-71.84494356492382,18.73717,-1,-1,10,65,-9999,16544.273124875,0.07861328125,-0.3628997802734375,-0.9065704345703125,1,0.6
2020-05-20 01:10:08.189 -0400,1589951407.47507,41.35202544271646,-71.84494356492382,18.73717,-1,-1,10,65,-9999,16544.323016875,0.1133270263671875,-0.354522705078125,-0.86376953125,1,0.6
2020-05-20 01:10:08.239 -0400,1589951407.47507,41.35202544271646,-71.84494356492382,18.73717,-1,-1,10,65,-9999,16544.372906875,0.228912353515625,-0.3734130859375,-0.771575927734375,1,0.6
2020-05-20 01:10:08.289 -0400,1589951407.47507,41.35202544271646,-71.84494356492382,18.73717,-1,-1,10,65,-9999,16544.422799875,0.1455535888671875,-0.3486785888671875,-0.8204498291015625,1,0.6
2020-05-20 01:10:08.339 -0400,1589951407.47507,41.35202544271646,-71.84494356492382,18.73717,-1,-1,10,65,-9999,16544.472690875,0.15618896484375,-0.2786407470703125,-0.929046630859375,1,0.6
2020-05-20 01:10:08.388 -0400,1589951407.47507,41.35202544271646,-71.84494356492382,18.73717,-1,-1,10,65,-9999,16544.522580875,0.1012725830078125,-0.1562042236328125,-0.9610748291015625,1,0.6
2020-05-20 01:10:08.439 -0400,1589951407.47507,41.35202544271646,-71.84494356492382,18.73717,-1,-1,10,65,-9999,16544.572470875,0.089996337890625,0.14984130859375,-0.975250244140625,1,0.6
2020-05-20 01:10:08.488 -0400,1589951407.47507,41.35202544271646,-71.84494356492382,18.73717,-1,-1,10,65,-9999,16544.622362875,0.007476806640625,0.36138916015625,-0.9051513671875,1,0.6
2020-05-20 01:10:08.538 -0400,1589951407.47507,41.35202544271646,-71.84494356492382,18.73717,-1,-1,10,65,-9999,16544.672254875,-0.0173187255859375,0.6102142333984375,-0.846282958984375,1,0.6
2020-05-20 01:10:08.588 -0400,1589951407.47507,41.35202544271646,-71.84494356492382,18.73717,-1,-1,10,65,-9999,16544.722146875,-0.0538482666015625,0.6737060546875,-0.860504150390625,1,0.6
2020-05-20 01:10:08.638 -0400,1589951407.47507,41.35202544271646,-71.84494356492382,18.73717,-1,-1,10,65,-9999,16544.772043875,-0.05474853515625,0.793975830078125,-0.7208709716796875,1,0.6
2020-05-20 01:10:08.688 -0400,1589951407.47507,41.35202544271646,-71.84494356492382,18.73717,-1,-1,10,65,-9999,16544.821937875,-0.1247406005859375,0.989593505859375,-0.62744140625,1,0.6
2020-05-20 01:10:08.738 -0400,1589951407.47507,41.35202544271646,-71.84494356492382,18.73717,-1,-1,10,65,-9999,16544.871828875,-0.23248291015625,0.98876953125,-0.5034027099609375,1,0.6
2020-05-20 01:10:08.788 -0400,1589951407.47507,41.35202544271646,-71.84494356492382,18.73717,-1,-1,10,65,-9999,16544.921722875,-0.237335205078125,0.9212188720703125,-0.2670440673828125,1,0.6
2020-05-20 01:10:08.838 -0400,1589951407.47507,41.35202544271646,-71.84494356492382,18.73717,-1,-1,10,65,-9999,16544.971614875,-0.271575927734375,1.127166748046875,-0.343963623046875,1,0.6
2020-05-20 01:10:08.889 -0400,1589951407.47507,41.35202544271646,-71.84494356492382,18.73717,-1,-1,10,65,-9999,16545.021507875,-0.279937744140625,1.063873291015625,-0.13134765625,1,0.6
2020-05-20 01:10:08.938 -0400,1589951407.47507,41.35202544271646,-71.84494356492382,18.73717,-1,-1,10,65,-9999,16545.071398875,-0.3432464599609375,0.9684295654296875,0.0703582763671875,1,0.6
2020-05-20 01:10:08.987 -0400,1589951407.47507,41.35202544271646,-71.84494356492382,18.73717,-1,-1,10,65,-9999,16545.121290875,-0.3004302978515625,0.833984375,0.2213592529296875,1,0.6
2020-05-20 01:10:09.037 -0400,1589951408.866751,41.35203461476571,-71.84499898406618,19.037,-1,-1,10,65,-9999,16545.171183875,-0.2244110107421875,0.974273681640625,0.2205047607421875,1,0.6
2020-05-20 01:10:09.087 -0400,1589951408.866751,41.35203461476571,-71.84499898406618,19.037,-1,-1,10,65,-9999,16545.22107879167,-0.244659423828125,0.94171142578125,0.3493804931640625,1,0.6
2020-05-20 01:10:09.137 -0400,1589951408.866751,41.35203461476571,-71.84499898406618,19.037,-1,-1,10,65,-9999,16545.27097179167,-0.112457275390625,0.756195068359375,0.319244384765625,1,0.6
2020-05-20 01:10:09.187 -0400,1589951408.866751,41.35203461476571,-71.84499898406618,19.037,-1,-1,10,65,-9999,16545.32086279167,-0.1053466796875,0.8777313232421875,0.5094451904296875,1,0.6
2020-05-20 01:10:09.237 -0400,1589951408.866751,41.35203461476571,-71.84499898406618,19.037,-1,-1,10,65,-9999,16545.37075479167,-0.031280517578125,0.8834228515625,0.4706878662109375,1,0.6
2020-05-20 01:10:09.301 -0400,1589951408.866751,41.35203461476571,-71.84499898406618,19.037,-1,-1,10,65,-9999,16545.42064779167,-0.0321197509765625,0.8690948486328125,0.5358428955078125,1,0.6
2020-05-20 01:10:09.337 -0400,1589951408.866751,41.35203461476571,-71.84499898406618,19.037,-1,-1,10,65,-9999,16545.47053879167,0.0131988525390625,0.854736328125,0.565216064453125,1,0.6
2020-05-20 01:10:09.386 -0400,1589951408.866751,41.35203461476571,-71.84499898406618,19.037,-1,-1,10,65,-9999,16545.52043279167,-0.0337066650390625,0.9452667236328125,0.6621246337890625,1,0.6
2020-05-20 01:10:09.436 -0400,1589951408.866751,41.35203461476571,-71.84499898406618,19.037,-1,-1,10,65,-9999,16545.57032579167,-0.06591796875,0.8990478515625,0.685302734375,1,0.6
2020-05-20 01:10:09.486 -0400,1589951408.866751,41.35203461476571,-71.84499898406618,19.037,-1,-1,10,65,-9999,16545.62022279167,-0.0648345947265625,0.7644500732421875,0.6136474609375,1,0.6
2020-05-20 01:10:09.537 -0400,1589951408.866751,41.35203461476571,-71.84499898406618,19.037,-1,-1,10,65,-9999,16545.67011679167,-0.0675811767578125,0.888580322265625,0.577056884765625,1,0.6
2020-05-20 01:10:09.586 -0400,1589951408.866751,41.35203461476571,-71.84499898406618,19.037,-1,-1,10,65,-9999,16545.72001179167,-0.1660614013671875,0.8726654052734375,0.658935546875,1,0.6
2020-05-20 01:10:09.636 -0400,1589951408.866751,41.35203461476571,-71.84499898406618,19.037,-1,-1,10,65,-9999,16545.76990679167,-0.15167236328125,0.89801025390625,0.605804443359375,1,0.6
2020-05-20 01:10:09.686 -0400,1589951408.866751,41.35203461476571,-71.84499898406618,19.037,-1,-1,10,65,-9999,16545.81979979167,-0.08306884765625,0.7969512939453125,0.6427001953125,1,0.6
2020-05-20 01:10:09.736 -0400,1589951408.866751,41.35203461476571,-71.84499898406618,19.037,-1,-1,10,65,-9999,16545.86969479167,-0.071990966796875,0.647369384765625,0.7381134033203125,1,0.6
2020-05-20 01:10:09.785 -0400,1589951408.866751,41.35203461476571,-71.84499898406618,19.037,-1,-1,10,65,-9999,16545.91958679167,-0.1048736572265625,0.6689300537109375,0.7564849853515625,1,0.6
2020-05-20 01:10:09.836 -0400,1589951408.866751,41.35203461476571,-71.84499898406618,19.037,-1,-1,10,65,-9999,16545.96948179167,-0.162628173828125,0.6814727783203125,0.7399139404296875,1,0.6
2020-05-20 01:10:09.885 -0400,1589951408.866751,41.35203461476571,-71.84499898406618,19.037,-1,-1,10,65,-9999,16546.01937679167,-0.1499786376953125,0.652740478515625,0.7670440673828125,1,0.6
2020-05-20 01:10:09.935 -0400,1589951408.866751,41.35203461476571,-71.84499898406618,19.037,-1,-1,10,65,-9999,16546.06927079167,-0.164520263671875,0.7471160888671875,0.744964599609375,1,0.6
2020-05-20 01:10:09.985 -0400,1589951408.866751,41.35203461476571,-71.84499898406618,19.037,-1,-1,10,65,-9999,16546.11916479167,-0.190460205078125,0.6970062255859375,0.69158935546875,1,0.6
2020-05-20 01:10:10.035 -0400,1589951408.866751,41.35203461476571,-71.84499898406618,19.037,-1,-1,10,65,-9999,16546.16906179167,-0.29541015625,0.8741302490234375,0.6827850341796875,1,0.6
2020-05-20 01:10:10.085 -0400,1589951408.866751,41.35203461476571,-71.84499898406618,19.037,-1,-1,10,65,-9999,16546.218960375,-0.255615234375,0.883697509765625,0.6862030029296875,1,0.6
2020-05-20 01:10:10.135 -0400,1589951408.866751,41.35203461476571,-71.84499898406618,19.037,-1,-1,10,65,-9999,16546.268858375,-0.2675628662109375,0.6804962158203125,0.589385986328125,1,0.6
2020-05-20 01:10:10.185 -0400,1589951408.866751,41.35203461476571,-71.84499898406618,19.037,-1,-1,10,65,-9999,16546.318752375,-0.1553802490234375,0.623291015625,0.563507080078125,1,0.6
2020-05-20 01:10:10.235 -0400,1589951408.866751,41.35203461476571,-71.84499898406618,19.037,-1,-1,10,65,-9999,16546.368647375,-0.0439910888671875,0.60284423828125,0.5524139404296875,1,0.6
2020-05-20 01:10:10.285 -0400,1589951408.866751,41.35203461476571,-71.84499898406618,19.037,-1,-1,10,65,-9999,16546.418543375,0.0413665771484375,0.77716064453125,0.60736083984375,1,0.6
2020-05-20 01:10:10.335 -0400,1589951408.866751,41.35203461476571,-71.84499898406618,19.037,-1,-1,10,65,-9999,16546.468441375,0.1187896728515625,1.177566528320312,0.605438232421875,1,0.6
2020-05-20 01:10:10.384 -0400,1589951408.866751,41.35203461476571,-71.84499898406618,19.037,-1,-1,10,65,-9999,16546.518335375,0.158203125,1.201568603515625,0.4479522705078125,1,0.6
2020-05-20 01:10:10.434 -0400,1589951408.866751,41.35203461476571,-71.84499898406618,19.037,-1,-1,10,65,-9999,16546.568230375,0.162567138671875,1.009307861328125,0.265380859375,1,0.6
2020-05-20 01:10:10.485 -0400,1589951408.866751,41.35203461476571,-71.84499898406618,19.037,-1,-1,10,65,-9999,16546.618125375,0.056121826171875,0.7335662841796875,0.228271484375,1,0.6
2020-05-20 01:10:10.536 -0400,1589951408.866751,41.35203461476571,-71.84499898406618,19.037,-1,-1,10,65,-9999,16546.668021375,-0.2388153076171875,0.9126434326171875,0.1383819580078125,1,0.6
2020-05-20 01:10:10.584 -0400,1589951408.866751,41.35203461476571,-71.84499898406618,19.037,-1,-1,10,65,-9999,16546.717920375,-0.3463897705078125,1.196380615234375,0.110595703125,1,0.6
2020-05-20 01:10:10.634 -0400,1589951408.866751,41.35203461476571,-71.84499898406618,19.037,-1,-1,10,65,-9999,16546.767818375,-0.3240509033203125,0.9123687744140625,-0.1339263916015625,1,0.6
2020-05-20 01:10:10.684 -0400,1589951408.866751,41.35203461476571,-71.84499898406618,19.037,-1,-1,10,65,-9999,16546.817716375,-0.28436279296875,0.30078125,-0.205780029296875,1,0.6
2020-05-20 01:10:10.734 -0400,1589951408.866751,41.35203461476571,-71.84499898406618,19.037,-1,-1,10,65,-9999,16546.867609375,-0.242919921875,0.972381591796875,-0.6569976806640625,1,0.6
2020-05-20 01:10:10.783 -0400,1589951408.866751,41.35203461476571,-71.84499898406618,19.037,-1,-1,10,65,-9999,16546.917503375,-0.2440948486328125,0.9400482177734375,-0.3932647705078125,1,0.6
2020-05-20 01:10:10.833 -0400,1589951408.866751,41.35203461476571,-71.84499898406618,19.037,-1,-1,10,65,-9999,16546.967397375,-0.20587158203125,1.159835815429688,-0.3798065185546875,1,0.6
2020-05-20 01:10:10.883 -0400,1589951408.866751,41.35203461476571,-71.84499898406618,19.037,-1,-1,10,65,-9999,16547.017294375,-0.120635986328125,0.89886474609375,-0.4102935791015625,1,0.6
2020-05-20 01:10:10.933 -0400,1589951408.866751,41.35203461476571,-71.84499898406618,19.037,-1,-1,10,65,-9999,16547.067187375,-0.083526611328125,0.981231689453125,-0.440582275390625,1,0.6
2020-05-20 01:10:10.983 -0400,1589951408.866751,41.35203461476571,-71.84499898406618,19.037,-1,-1,10,65,-9999,16547.117083375,-0.288177490234375,1.107025146484375,-0.5269927978515625,1,0.6
2020-05-20 01:10:11.033 -0400,1589951408.866751,41.35203461476571,-71.84499898406618,19.037,-1,-1,10,65,-9999,16547.166980375,-0.4441680908203125,1.057769775390625,-0.5784454345703125,1,0.6
2020-05-20 01:10:11.083 -0400,1589951408.866751,41.35203461476571,-71.84499898406618,19.037,-1,-1,10,65,-9999,16547.21687541667,-0.6015777587890625,0.97698974609375,-0.561370849609375,1,0.6
2020-05-20 01:10:11.133 -0400,1589951408.866751,41.35203461476571,-71.84499898406618,19.037,-1,-1,10,65,-9999,16547.26677241667,-0.503814697265625,0.849273681640625,-0.5724334716796875,1,0.6
2020-05-20 01:10:11.183 -0400,1589951408.866751,41.35203461476571,-71.84499898406618,19.037,-1,-1,10,65,-9999,16547.31666641667,-0.4965057373046875,0.5057220458984375,-0.4414520263671875,1,0.6
2020-05-20 01:10:11.233 -0400,1589951408.866751,41.35203461476571,-71.84499898406618,19.037,-1,-1,10,65,-9999,16547.36656041667,-0.3308258056640625,0.4590911865234375,-0.6358489990234375,1,0.6
2020-05-20 01:10:11.282 -0400,1589951408.866751,41.35203461476571,-71.84499898406618,19.037,-1,-1,10,65,-9999,16547.41645441667,-0.15679931640625,0.3411712646484375,-0.6075286865234375,1,0.6
2020-05-20 01:10:11.332 -0400,1589951408.866751,41.35203461476571,-71.84499898406618,19.037,-1,-1,10,65,-9999,16547.46635141667,0.095855712890625,0.5302734375,-0.79254150390625,1,0.6
2020-05-20 01:10:11.382 -0400,1589951408.866751,41.35203461476571,-71.84499898406618,19.037,-1,-1,10,65,-9999,16547.51624441667,0.320770263671875,0.29669189453125,-0.80352783203125,1,0.6
2020-05-20 01:10:11.432 -0400,1589951408.866751,41.35203461476571,-71.84499898406618,19.037,-1,-1,10,65,-9999,16547.56613441667,0.3401947021484375,0.3713836669921875,-0.8904266357421875,1,0.6
2020-05-20 01:10:11.482 -0400,1589951408.866751,41.35203461476571,-71.84499898406618,19.037,-1,-1,10,65,-9999,16547.61602741667,0.3145294189453125,0.2263946533203125,-0.842193603515625,1,0.6
2020-05-20 01:10:11.532 -0400,1589951408.866751,41.35203461476571,-71.84499898406618,19.037,-1,-1,10,65,-9999,16547.66592341667,0.2685699462890625,0.375579833984375,-0.896270751953125,1,0.6
2020-05-20 01:10:11.582 -0400,1589951408.866751,41.35203461476571,-71.84499898406618,19.037,-1,-1,10,65,-9999,16547.71582041667,0.2278594970703125,0.305572509765625,-0.9833984375,1,0.6
2020-05-20 01:10:11.632 -0400,1589951408.866751,41.35203461476571,-71.84499898406618,19.037,-1,-1,10,65,-9999,16547.76571641667,0.12335205078125,0.3454437255859375,-0.9978485107421875,1,0.6
2020-05-20 01:10:11.682 -0400,1589951408.866751,41.35203461476571,-71.84499898406618,19.037,-1,-1,10,65,-9999,16547.81561341667,0.051971435546875,0.2198944091796875,-1.00244140625,1,0.6
2020-05-20 01:10:11.732 -0400,1589951408.866751,41.35203461476571,-71.84499898406618,19.037,-1,-1,10,65,-9999,16547.86551041667,0.063751220703125,0.2610931396484375,-0.9705810546875,1,0.6
2020-05-20 01:10:11.782 -0400,1589951411.451504,41.35203455799661,-71.84491017875544,16.2914,1.211911,45.63116400631979,26.16362282711261,32.16351252646765,-9999,16547.91541041667,0.1427459716796875,0.23675537109375,-1.115447998046875,1,0.6
2020-05-20 01:10:11.831 -0400,1589951411.451504,41.35203455799661,-71.84491017875544,16.2914,1.211911,45.63116400631979,26.16362282711261,32.16351252646765,-9999,16547.96530841667,0.0898590087890625,0.1844482421875,-1.072540283203125,1,0.6
2020-05-20 01:10:11.881 -0400,1589951411.451504,41.35203455799661,-71.84491017875544,16.2914,1.211911,45.63116400631979,26.16362282711261,32.16351252646765,-9999,16548.01520341667,0.06573486328125,0.1236419677734375,-0.985992431640625,1,0.6
2020-05-20 01:10:11.931 -0400,1589951411.451504,41.35203455799661,-71.84491017875544,16.2914,1.211911,45.63116400631979,26.16362282711261,32.16351252646765,-9999,16548.06510041667,0.152801513671875,0.054168701171875,-0.961090087890625,1,0.6
2020-05-20 01:10:11.981 -0400,1589951411.451504,41.35203455799661,-71.84491017875544,16.2914,1.211911,45.63116400631979,26.16362282711261,32.16351252646765,-9999,16548.11499741667,0.25921630859375,0.1265106201171875,-0.962921142578125,1,0.6
2020-05-20 01:10:12.031 -0400,1589951411.451504,41.35203455799661,-71.84491017875544,16.2914,1.211911,45.63116400631979,26.16362282711261,32.16351252646765,-9999,16548.16489341667,0.307373046875,0.22650146484375,-0.7791900634765625,1,0.6
2020-05-20 01:10:12.081 -0400,1589951411.451504,41.35203455799661,-71.84491017875544,16.2914,1.211911,45.63116400631979,26.16362282711261,32.16351252646765,-9999,16548.214789,0.1500701904296875,0.2738800048828125,-1.091934204101562,1,0.6
2020-05-20 01:10:12.131 -0400,1589951411.451504,41.35203455799661,-71.84491017875544,16.2914,1.211911,45.63116400631979,26.16362282711261,32.16351252646765,-9999,16548.26468,0.13873291015625,0.221343994140625,-1.097091674804688,1,0.6
2020-05-20 01:10:12.181 -0400,1589951411.451504,41.35203455799661,-71.84491017875544,16.2914,1.211911,45.63116400631979,26.16362282711261,32.16351252646765,-9999,16548.314575,0.2187652587890625,0.2317047119140625,-0.896820068359375,1,0.6
2020-05-20 01:10:12.231 -0400,1589951411.451504,41.35203455799661,-71.84491017875544,16.2914,1.211911,45.63116400631979,26.16362282711261,32.16351252646765,-9999,16548.364468,0.1887054443359375,0.1443634033203125,-0.938140869140625,1,0.6
2020-05-20 01:10:12.281 -0400,1589951411.451504,41.35203455799661,-71.84491017875544,16.2914,1.211911,45.63116400631979,26.16362282711261,32.16351252646765,-9999,16548.414359,0.2000274658203125,0.277435302734375,-0.96649169921875,1,0.6
2020-05-20 01:10:12.331 -0400,1589951411.451504,41.35203455799661,-71.84491017875544,16.2914,1.211911,45.63116400631979,26.16362282711261,32.16351252646765,-9999,16548.464248,0.206146240234375,0.236053466796875,-0.963623046875,1,0.6
2020-05-20 01:10:12.381 -0400,1589951411.451504,41.35203455799661,-71.84491017875544,16.2914,1.211911,45.63116400631979,26.16362282711261,32.16351252646765,-9999,16548.514139,0.2309112548828125,0.21771240234375,-0.9267425537109375,1,0.6
2020-05-20 01:10:12.430 -0400,1589951411.451504,41.35203455799661,-71.84491017875544,16.2914,1.211911,45.63116400631979,26.16362282711261,32.16351252646765,-9999,16548.564033,0.21002197265625,0.2652587890625,-0.9277496337890625,1,0.6
2020-05-20 01:10:12.480 -0400,1589951411.451504,41.35203455799661,-71.84491017875544,16.2914,1.211911,45.63116400631979,26.16362282711261,32.16351252646765,-9999,16548.61393,0.2043304443359375,0.2577972412109375,-0.9532470703125,1,0.6
2020-05-20 01:10:12.530 -0400,1589951411.451504,41.35203455799661,-71.84491017875544,16.2914,1.211911,45.63116400631979,26.16362282711261,32.16351252646765,-9999,16548.663825,0.1993865966796875,0.2862701416015625,-0.9612579345703125,1,0.6
2020-05-20 01:10:12.580 -0400,1589951411.451504,41.35203455799661,-71.84491017875544,16.2914,1.211911,45.63116400631979,26.16362282711261,32.16351252646765,-9999,16548.713718,0.221221923828125,0.2718353271484375,-0.931304931640625,1,0.6
2020-05-20 01:10:12.630 -0400,1589951411.451504,41.35203455799661,-71.84491017875544,16.2914,1.211911,45.63116400631979,26.16362282711261,32.16351252646765,-9999,16548.763611,0.229095458984375,0.279876708984375,-0.925933837890625,1,0.6
2020-05-20 01:10:12.683 -0400,1589951412.445504,41.35203579097815,-71.84489727296139,15.90545,1.211911,72.97150385257704,13.33725044467457,26.71228559152869,-9999,16548.813505,0.2208404541015625,0.2604522705078125,-0.9210205078125,1,0.6
2020-05-20 01:10:12.730 -0400,1589951412.445504,41.35203579097815,-71.84489727296139,15.90545,1.211911,72.97150385257704,13.33725044467457,26.71228559152869,-9999,16548.863397,0.2255859375,0.2814788818359375,-0.9282684326171875,1,0.6
2020-05-20 01:10:12.779 -0400,1589951412.445504,41.35203579097815,-71.84489727296139,15.90545,1.211911,72.97150385257704,13.33725044467457,26.71228559152869,-9999,16548.913292,0.2260894775390625,0.2695159912109375,-0.9353790283203125,1,0.6
2020-05-20 01:10:12.829 -0400,1589951412.445504,41.35203579097815,-71.84489727296139,15.90545,1.211911,72.97150385257704,13.33725044467457,26.71228559152869,-9999,16548.963188,0.2267303466796875,0.289764404296875,-0.9361572265625,1,0.6
2020-05-20 01:10:12.879 -0400,1589951412.445504,41.35203579097815,-71.84489727296139,15.90545,1.211911,72.97150385257704,13.33725044467457,26.71228559152869,-9999,16549.013084,0.2219696044921875,0.27008056640625,-0.9360198974609375,1,0.6
2020-05-20 01:10:12.929 -0400,1589951412.445504,41.35203579097815,-71.84489727296139,15.90545,1.211911,72.97150385257704,13.33725044467457,26.71228559152869,-9999,16549.062984,0.2260894775390625,0.282470703125,-0.9358062744140625,1,0.6
2020-05-20 01:10:12.979 -0400,1589951412.445504,41.35203579097815,-71.84489727296139,15.90545,1.211911,72.97150385257704,13.33725044467457,26.71228559152869,-9999,16549.112885,0.2281494140625,0.269134521484375,-0.9249420166015625,1,0.6
2020-05-20 01:10:13.029 -0400,1589951412.445504,41.35203579097815,-71.84489727296139,15.90545,1.211911,72.97150385257704,13.33725044467457,26.71228559152869,-9999,16549.162786,0.2310028076171875,0.282257080078125,-0.937225341796875,1,0.6
2020-05-20 01:10:13.079 -0400,1589951412.445504,41.35203579097815,-71.84489727296139,15.90545,1.211911,72.97150385257704,13.33725044467457,26.71228559152869,-9999,16549.21268529167,0.2248382568359375,0.275390625,-0.928375244140625,1,0.6
2020-05-20 01:10:13.129 -0400,1589951412.445504,41.35203579097815,-71.84489727296139,15.90545,1.211911,72.97150385257704,13.33725044467457,26.71228559152869,-9999,16549.26258529167,0.2292938232421875,0.282928466796875,-0.9295196533203125,1,0.6
2020-05-20 01:10:13.178 -0400,1589951412.445504,41.35203579097815,-71.84489727296139,15.90545,1.211911,72.97150385257704,13.33725044467457,26.71228559152869,-9999,16549.31248229167,0.2215118408203125,0.3224639892578125,-0.9487457275390625,1,0.6
2020-05-20 01:10:13.228 -0400,1589951412.445504,41.35203579097815,-71.84489727296139,15.90545,1.211911,72.97150385257704,13.33725044467457,26.71228559152869,-9999,16549.36237829167,0.2949066162109375,0.211212158203125,-0.81103515625,1,0.6
2020-05-20 01:10:13.278 -0400,1589951412.445504,41.35203579097815,-71.84489727296139,15.90545,1.211911,72.97150385257704,13.33725044467457,26.71228559152869,-9999,16549.41227529167,0.3413848876953125,0.3095245361328125,-0.98870849609375,1,0.6
2020-05-20 01:10:13.328 -0400,1589951412.445504,41.35203579097815,-71.84489727296139,15.90545,1.211911,72.97150385257704,13.33725044467457,26.71228559152869,-9999,16549.46217329167,0.3334197998046875,0.216827392578125,-0.9591827392578125,1,0.6
2020-05-20 01:10:13.378 -0400,1589951412.445504,41.35203579097815,-71.84489727296139,15.90545,1.211911,72.97150385257704,13.33725044467457,26.71228559152869,-9999,16549.51207029167,0.207855224609375,0.01251220703125,-0.902679443359375,1,0.6
2020-05-20 01:10:13.428 -0400,1589951412.445504,41.35203579097815,-71.84489727296139,15.90545,1.211911,72.97150385257704,13.33725044467457,26.71228559152869,-9999,16549.56197129167,0.198028564453125,0.1834716796875,-0.8735504150390625,1,0.6
2020-05-20 01:10:13.478 -0400,1589951412.445504,41.35203579097815,-71.84489727296139,15.90545,1.211911,72.97150385257704,13.33725044467457,26.71228559152869,-9999,16549.61186929167,0.2214202880859375,0.1851654052734375,-0.892486572265625,1,0.6
2020-05-20 01:10:13.528 -0400,1589951412.445504,41.35203579097815,-71.84489727296139,15.90545,1.211911,72.97150385257704,13.33725044467457,26.71228559152869,-9999,16549.66176529167,0.3348541259765625,0.223907470703125,-0.9462432861328125,1,0.6
2020-05-20 01:10:13.578 -0400,1589951412.445504,41.35203579097815,-71.84489727296139,15.90545,1.211911,72.97150385257704,13.33725044467457,26.71228559152869,-9999,16549.71166029167,0.2686309814453125,0.2247314453125,-0.9400634765625,1,0.6
2020-05-20 01:10:13.628 -0400,1589951412.445504,41.35203579097815,-71.84489727296139,15.90545,1.211911,72.97150385257704,13.33725044467457,26.71228559152869,-9999,16549.76155829167,0.1676025390625,0.0735321044921875,-0.8666229248046875,1,0.6
2020-05-20 01:10:13.677 -0400,1589951412.445504,41.35203579097815,-71.84489727296139,15.90545,1.211911,72.97150385257704,13.33725044467457,26.71228559152869,-9999,16549.81145329167,0.2715606689453125,0.230682373046875,-1.001739501953125,1,0.6
2020-05-20 01:10:13.727 -0400,1589951412.445504,41.35203579097815,-71.84489727296139,15.90545,1.211911,72.97150385257704,13.33725044467457,26.71228559152869,-9999,16549.86134829167,0.2510833740234375,0.16693115234375,-0.9305572509765625,1,0.6
2020-05-20 01:10:13.788 -0400,1589951412.445504,41.35203579097815,-71.84489727296139,15.90545,1.211911,72.97150385257704,13.33725044467457,26.71228559152869,-9999,16549.91124429167,0.2032470703125,0.21337890625,-0.9764556884765625,1,0.6
2020-05-20 01:10:13.827 -0400,1589951413.451501,41.35204524806942,-71.84491024437322,15.76809,1.126299,41.033232775634,13.3221639591492,27.38599079893991,-9999,16549.96113829167,0.133453369140625,0.1835174560546875,-0.96490478515625,1,0.6
2020-05-20 01:10:13.877 -0400,1589951413.451501,41.35204524806942,-71.84491024437322,15.76809,1.126299,41.033232775634,13.3221639591492,27.38599079893991,-9999,16550.01103329167,-0.0165863037109375,0.1561126708984375,-0.9879913330078125,1,0.6
2020-05-20 01:10:13.927 -0400,1589951413.451501,41.35204524806942,-71.84491024437322,15.76809,1.126299,41.033232775634,13.3221639591492,27.38599079893991,-9999,16550.06092629167,0.0522918701171875,0.14251708984375,-1.012420654296875,1,0.6
2020-05-20 01:10:13.977 -0400,1589951413.451501,41.35204524806942,-71.84491024437322,15.76809,1.126299,41.033232775634,13.3221639591492,27.38599079893991,-9999,16550.11082029167,-0.0149688720703125,0.2672271728515625,-0.889190673828125,1,0.6
2020-05-20 01:10:14.027 -0400,1589951413.451501,41.35204524806942,-71.84491024437322,15.76809,1.126299,41.033232775634,13.3221639591492,27.38599079893991,-9999,16550.16071229167,-0.069061279296875,0.24725341796875,-0.8718414306640625,1,0.6
2020-05-20 01:10:14.077 -0400,1589951413.451501,41.35204524806942,-71.84491024437322,15.76809,1.126299,41.033232775634,13.3221639591492,27.38599079893991,-9999,16550.21060375,-0.0598602294921875,0.3176422119140625,-0.99029541015625,1,0.6
2020-05-20 01:10:14.127 -0400,1589951413.451501,41.35204524806942,-71.84491024437322,15.76809,1.126299,41.033232775634,13.3221639591492,27.38599079893991,-9999,16550.26049375,-0.1168365478515625,0.2335968017578125,-0.96832275390625,1,0.6
2020-05-20 01:10:14.176 -0400,1589951413.451501,41.35204524806942,-71.84491024437322,15.76809,1.126299,41.033232775634,13.3221639591492,27.38599079893991,-9999,16550.31038275,-0.2141265869140625,0.3087005615234375,-1.020248413085938,1,0.6
2020-05-20 01:10:14.226 -0400,1589951413.451501,41.35204524806942,-71.84491024437322,15.76809,1.126299,41.033232775634,13.3221639591492,27.38599079893991,-9999,16550.36027175,-0.2281951904296875,0.25128173828125,-0.972747802734375,1,0.6
2020-05-20 01:10:14.276 -0400,1589951413.451501,41.35204524806942,-71.84491024437322,15.76809,1.126299,41.033232775634,13.3221639591492,27.38599079893991,-9999,16550.41016075,-0.18402099609375,0.2676239013671875,-1.041046142578125,1,0.6
2020-05-20 01:10:14.326 -0400,1589951413.451501,41.35204524806942,-71.84491024437322,15.76809,1.126299,41.033232775634,13.3221639591492,27.38599079893991,-9999,16550.46005075,-0.168304443359375,0.244293212890625,-0.918548583984375,1,0.6
2020-05-20 01:10:14.376 -0400,1589951413.451501,41.35204524806942,-71.84491024437322,15.76809,1.126299,41.033232775634,13.3221639591492,27.38599079893991,-9999,16550.50993975,-0.1481781005859375,0.3159027099609375,-0.9074554443359375,1,0.6
2020-05-20 01:10:14.426 -0400,1589951413.451501,41.35204524806942,-71.84491024437322,15.76809,1.126299,41.033232775634,13.3221639591492,27.38599079893991,-9999,16550.55983375,-0.176239013671875,0.279266357421875,-0.925933837890625,1,0.6
2020-05-20 01:10:14.476 -0400,1589951413.451501,41.35204524806942,-71.84491024437322,15.76809,1.126299,41.033232775634,13.3221639591492,27.38599079893991,-9999,16550.60972675,-0.0305328369140625,0.2957305908203125,-1.000259399414062,1,0.6
2020-05-20 01:10:14.526 -0400,1589951413.451501,41.35204524806942,-71.84491024437322,15.76809,1.126299,41.033232775634,13.3221639591492,27.38599079893991,-9999,16550.65961875,-0.075469970703125,0.2423553466796875,-0.8878021240234375,1,0.6
2020-05-20 01:10:14.576 -0400,1589951413.451501,41.35204524806942,-71.84491024437322,15.76809,1.126299,41.033232775634,13.3221639591492,27.38599079893991,-9999,16550.70951275,-0.13214111328125,0.2897186279296875,-0.953704833984375,1,0.6
2020-05-20 01:10:14.625 -0400,1589951413.451501,41.35204524806942,-71.84491024437322,15.76809,1.126299,41.033232775634,13.3221639591492,27.38599079893991,-9999,16550.75940375,-0.0285186767578125,0.308929443359375,-0.9513092041015625,1,0.6
2020-05-20 01:10:14.675 -0400,1589951413.451501,41.35204524806942,-71.84491024437322,15.76809,1.126299,41.033232775634,13.3221639591492,27.38599079893991,-9999,16550.80929275,-0.0696868896484375,0.2587738037109375,-0.919891357421875,1,0.6
2020-05-20 01:10:14.725 -0400,1589951413.451501,41.35204524806942,-71.84491024437322,15.76809,1.126299,41.033232775634,13.3221639591492,27.38599079893991,-9999,16550.85918075,-0.1002044677734375,0.2814178466796875,-0.955780029296875,1,0.6
2020-05-20 01:10:14.775 -0400,1589951414.460499,41.35203558930446,-71.84493822128832,15.87704,0.7047945,268.3918217526184,13.83471487378914,26.84370692653222,-9999,16550.90907275,-0.0917205810546875,0.2588653564453125,-0.960479736328125,1,0.6
2020-05-20 01:10:14.825 -0400,1589951414.460499,41.35203558930446,-71.84493822128832,15.87704,0.7047945,268.3918217526184,13.83471487378914,26.84370692653222,-9999,16550.95896575,-0.1515045166015625,0.2402801513671875,-1.004302978515625,1,0.6
2020-05-20 01:10:14.875 -0400,1589951414.460499,41.35203558930446,-71.84493822128832,15.87704,0.7047945,268.3918217526184,13.83471487378914,26.84370692653222,-9999,16551.00885875,-0.15960693359375,0.1981048583984375,-0.9908599853515625,1,0.6
2020-05-20 01:10:14.925 -0400,1589951414.460499,41.35203558930446,-71.84493822128832,15.87704,0.7047945,268.3918217526184,13.83471487378914,26.84370692653222,-9999,16551.05875475,-0.1231689453125,0.2655792236328125,-1.048248291015625,1,0.6
2020-05-20 01:10:14.975 -0400,1589951414.460499,41.35203558930446,-71.84493822128832,15.87704,0.7047945,268.3918217526184,13.83471487378914,26.84370692653222,-9999,16551.10864775,-0.1045989990234375,0.219635009765625,-1.002197265625,1,0.6
2020-05-20 01:10:15.025 -0400,1589951414.460499,41.35203558930446,-71.84493822128832,15.87704,0.7047945,268.3918217526184,13.83471487378914,26.84370692653222,-9999,16551.15853875,-0.0403594970703125,0.1412506103515625,-0.950531005859375,1,0.6
2020-05-20 01:10:15.075 -0400,1589951414.460499,41.35203558930446,-71.84493822128832,15.87704,0.7047945,268.3918217526184,13.83471487378914,26.84370692653222,-9999,16551.20842779167,-0.019561767578125,0.3283233642578125,-0.9665069580078125,1,0.6
2020-05-20 01:10:15.124 -0400,1589951414.460499,41.35203558930446,-71.84493822128832,15.87704,0.7047945,268.3918217526184,13.83471487378914,26.84370692653222,-9999,16551.25831579167,-0.0123748779296875,0.121063232421875,-1.105133056640625,1,0.6
2020-05-20 01:10:15.174 -0400,1589951414.460499,41.35203558930446,-71.84493822128832,15.87704,0.7047945,268.3918217526184,13.83471487378914,26.84370692653222,-9999,16551.30820579167,0.17095947265625,0.187255859375,-0.914306640625,1,0.6
2020-05-20 01:10:15.224 -0400,1589951414.460499,41.35203558930446,-71.84493822128832,15.87704,0.7047945,268.3918217526184,13.83471487378914,26.84370692653222,-9999,16551.35809679167,0.0667724609375,0.1246185302734375,-0.754547119140625,1,0.6
2020-05-20 01:10:15.274 -0400,1589951414.460499,41.35203558930446,-71.84493822128832,15.87704,0.7047945,268.3918217526184,13.83471487378914,26.84370692653222,-9999,16551.40798579167,0.11102294921875,0.1535797119140625,-0.9624481201171875,1,0.6
2020-05-20 01:10:15.324 -0400,1589951414.460499,41.35203558930446,-71.84493822128832,15.87704,0.7047945,268.3918217526184,13.83471487378914,26.84370692653222,-9999,16551.45787679167,0.2329254150390625,0.1696014404296875,-1.015304565429688,1,0.6
2020-05-20 01:10:15.374 -0400,1589951414.460499,41.35203558930446,-71.84493822128832,15.87704,0.7047945,268.3918217526184,13.83471487378914,26.84370692653222,-9999,16551.50776679167,0.1107330322265625,0.2151336669921875,-1.0128173828125,1,0.6
2020-05-20 01:10:15.424 -0400,1589951414.460499,41.35203558930446,-71.84493822128832,15.87704,0.7047945,268.3918217526184,13.83471487378914,26.84370692653222,-9999,16551.55765679167,0.021636962890625,0.2319488525390625,-0.963409423828125,1,0.6
2020-05-20 01:10:15.474 -0400,1589951414.460499,41.35203558930446,-71.84493822128832,15.87704,0.7047945,268.3918217526184,13.83471487378914,26.84370692653222,-9999,16551.60754779167,0.0254974365234375,0.20343017578125,-0.9263916015625,1,0.6
2020-05-20 01:10:15.523 -0400,1589951414.460499,41.35203558930446,-71.84493822128832,15.87704,0.7047945,268.3918217526184,13.83471487378914,26.84370692653222,-9999,16551.65743479167,-0.0097503662109375,0.2781524658203125,-1.032730102539062,1,0.6
2020-05-20 01:10:15.573 -0400,1589951414.460499,41.35203558930446,-71.84493822128832,15.87704,0.7047945,268.3918217526184,13.83471487378914,26.84370692653222,-9999,16551.70732479167,-0.0708160400390625,0.406341552734375,-1.077987670898438,1,0.6
2020-05-20 01:10:15.623 -0400,1589951414.460499,41.35203558930446,-71.84493822128832,15.87704,0.7047945,268.3918217526184,13.83471487378914,26.84370692653222,-9999,16551.75721579167,0.0081634521484375,0.2918243408203125,-1.01019287109375,1,0.6
2020-05-20 01:10:15.673 -0400,1589951414.460499,41.35203558930446,-71.84493822128832,15.87704,0.7047945,268.3918217526184,13.83471487378914,26.84370692653222,-9999,16551.80710779167,0.0089111328125,0.272369384765625,-0.8980560302734375,1,0.6
2020-05-20 01:10:15.723 -0400,1589951415.458497,41.35203417138261,-71.84495785927776,15.8749,0.8226673,290.0590975579249,14.15717036300464,25.50531661853801,-9999,16551.85699979167,0.120941162109375,0.3807373046875,-0.999786376953125,1,0.6
2020-05-20 01:10:15.773 -0400,1589951415.458497,41.35203417138261,-71.84495785927776,15.8749,0.8226673,290.0590975579249,14.15717036300464,25.50531661853801,-9999,16551.90688779167,0.183837890625,0.2901763916015625,-0.9322967529296875,1,0.6
2020-05-20 01:10:15.823 -0400,1589951415.458497,41.35203417138261,-71.84495785927776,15.8749,0.8226673,290.0590975579249,14.15717036300464,25.50531661853801,-9999,16551.95677479167,0.1192474365234375,0.2061004638671875,-0.92779541015625,1,0.6
2020-05-20 01:10:15.873 -0400,1589951415.458497,41.35203417138261,-71.84495785927776,15.8749,0.8226673,290.0590975579249,14.15717036300464,25.50531661853801,-9999,16552.00666179167,0.19390869140625,0.25335693359375,-0.9145965576171875,1,0.6
2020-05-20 01:10:15.922 -0400,1589951415.458497,41.35203417138261,-71.84495785927776,15.8749,0.8226673,290.0590975579249,14.15717036300464,25.50531661853801,-9999,16552.05655279167,0.2209014892578125,0.2517852783203125,-0.927154541015625,1,0.6
2020-05-20 01:10:15.972 -0400,1589951415.458497,41.35203417138261,-71.84495785927776,15.8749,0.8226673,290.0590975579249,14.15717036300464,25.50531661853801,-9999,16552.10643979167,0.1602783203125,0.26177978515625,-0.9441070556640625,1,0.6
2020-05-20 01:10:16.022 -0400,1589951415.458497,41.35203417138261,-71.84495785927776,15.8749,0.8226673,290.0590975579249,14.15717036300464,25.50531661853801,-9999,16552.15632779167,0.246612548828125,0.27337646484375,-0.902557373046875,1,0.6
2020-05-20 01:10:16.072 -0400,1589951415.458497,41.35203417138261,-71.84495785927776,15.8749,0.8226673,290.0590975579249,14.15717036300464,25.50531661853801,-9999,16552.20621991667,0.193359375,0.334442138671875,-0.9363555908203125,1,0.6
2020-05-20 01:10:16.122 -0400,1589951415.458497,41.35203417138261,-71.84495785927776,15.8749,0.8226673,290.0590975579249,14.15717036300464,25.50531661853801,-9999,16552.25610591667,0.1916351318359375,0.339447021484375,-0.9775238037109375,1,0.6
2020-05-20 01:10:16.172 -0400,1589951415.458497,41.35203417138261,-71.84495785927776,15.8749,0.8226673,290.0590975579249,14.15717036300464,25.50531661853801,-9999,16552.30599491667,0.177093505859375,0.3467254638671875,-0.9782867431640625,1,0.6
2020-05-20 01:10:16.222 -0400,1589951415.458497,41.35203417138261,-71.84495785927776,15.8749,0.8226673,290.0590975579249,14.15717036300464,25.50531661853801,-9999,16552.35588591667,0.1887054443359375,0.32171630859375,-0.910858154296875,1,0.6
2020-05-20 01:10:16.272 -0400,1589951415.458497,41.35203417138261,-71.84495785927776,15.8749,0.8226673,290.0590975579249,14.15717036300464,25.50531661853801,-9999,16552.40577391667,0.2000732421875,0.322662353515625,-0.886138916015625,1,0.6
2020-05-20 01:10:16.322 -0400,1589951415.458497,41.35203417138261,-71.84495785927776,15.8749,0.8226673,290.0590975579249,14.15717036300464,25.50531661853801,-9999,16552.45566791667,0.2119598388671875,0.3236541748046875,-0.9164276123046875,1,0.6
2020-05-20 01:10:16.371 -0400,1589951415.458497,41.35203417138261,-71.84495785927776,15.8749,0.8226673,290.0590975579249,14.15717036300464,25.50531661853801,-9999,16552.50555891667,0.1978759765625,0.3443603515625,-0.9479217529296875,1,0.6
2020-05-20 01:10:16.421 -0400,1589951415.458497,41.35203417138261,-71.84495785927776,15.8749,0.8226673,290.0590975579249,14.15717036300464,25.50531661853801,-9999,16552.55544991667,0.191619873046875,0.3231964111328125,-0.9456787109375,1,0.6
2020-05-20 01:10:16.471 -0400,1589951415.458497,41.35203417138261,-71.84495785927776,15.8749,0.8226673,290.0590975579249,14.15717036300464,25.50531661853801,-9999,16552.60533991667,0.196075439453125,0.336029052734375,-0.93707275390625,1,0.6
2020-05-20 01:10:16.521 -0400,1589951415.458497,41.35203417138261,-71.84495785927776,15.8749,0.8226673,290.0590975579249,14.15717036300464,25.50531661853801,-9999,16552.65522991667,0.1798095703125,0.3004913330078125,-0.909393310546875,1,0.6
2020-05-20 01:10:16.571 -0400,1589951415.458497,41.35203417138261,-71.84495785927776,15.8749,0.8226673,290.0590975579249,14.15717036300464,25.50531661853801,-9999,16552.70512191667,0.1987457275390625,0.3121490478515625,-0.92486572265625,1,0.6
2020-05-20 01:10:16.621 -0400,1589951415.458497,41.35203417138261,-71.84495785927776,15.8749,0.8226673,290.0590975579249,14.15717036300464,25.50531661853801,-9999,16552.75501191667,0.22027587890625,0.2965087890625,-0.9258270263671875,1,0.6
2020-05-20 01:10:16.671 -0400,1589951415.458497,41.35203417138261,-71.84495785927776,15.8749,0.8226673,290.0590975579249,14.15717036300464,25.50531661853801,-9999,16552.80490291667,0.1838531494140625,0.3343353271484375,-0.9352569580078125,1,0.6
2020-05-20 01:10:16.721 -0400,1589951416.455497,41.35203800561994,-71.84498087500715,15.92135,0.8366872,314.9482181662776,13.26507033104169,23.28455120047393,-9999,16552.85479591667,0.2076873779296875,0.298675537109375,-0.9209747314453125,1,0.6
2020-05-20 01:10:16.771 -0400,1589951416.455497,41.35203800561994,-71.84498087500715,15.92135,0.8366872,314.9482181662776,13.26507033104169,23.28455120047393,-9999,16552.90469091667,0.1869049072265625,0.2672576904296875,-0.9278564453125,1,0.6
2020-05-20 01:10:16.821 -0400,1589951416.455497,41.35203800561994,-71.84498087500715,15.92135,0.8366872,314.9482181662776,13.26507033104169,23.28455120047393,-9999,16552.95458391667,0.1645660400390625,0.302215576171875,-0.957366943359375,1,0.6
2020-05-20 01:10:16.870 -0400,1589951416.455497,41.35203800561994,-71.84498087500715,15.92135,0.8366872,314.9482181662776,13.26507033104169,23.28455120047393,-9999,16553.00447391667,0.196685791015625,0.2824554443359375,-0.9470367431640625,1,0.6
2020-05-20 01:10:16.920 -0400,1589951416.455497,41.35203800561994,-71.84498087500715,15.92135,0.8366872,314.9482181662776,13.26507033104169,23.28455120047393,-9999,16553.05436091667,0.191192626953125,0.29620361328125,-0.9647216796875,1,0.6
2020-05-20 01:10:16.970 -0400,1589951416.455497,41.35203800561994,-71.84498087500715,15.92135,0.8366872,314.9482181662776,13.26507033104169,23.28455120047393,-9999,16553.10425191667,0.149322509765625,0.27764892578125,-0.9302215576171875,1,0.6
2020-05-20 01:10:17.020 -0400,1589951416.455497,41.35203800561994,-71.84498087500715,15.92135,0.8366872,314.9482181662776,13.26507033104169,23.28455120047393,-9999,16553.15414191667,0.15301513671875,0.2696075439453125,-0.9117279052734375,1,0.6
2020-05-20 01:10:17.070 -0400,1589951416.455497,41.35203800561994,-71.84498087500715,15.92135,0.8366872,314.9482181662776,13.26507033104169,23.28455120047393,-9999,16553.20403175,0.18536376953125,0.2423553466796875,-0.9358367919921875,1,0.6
2020-05-20 01:10:17.120 -0400,1589951416.455497,41.35203800561994,-71.84498087500715,15.92135,0.8366872,314.9482181662776,13.26507033104169,23.28455120047393,-9999,16553.25392075,0.1301422119140625,0.2962188720703125,-0.9536285400390625,1,0.6
2020-05-20 01:10:17.170 -0400,1589951416.455497,41.35203800561994,-71.84498087500715,15.92135,0.8366872,314.9482181662776,13.26507033104169,23.28455120047393,-9999,16553.30380775,0.1058502197265625,0.2768402099609375,-0.906768798828125,1,0.6
2020-05-20 01:10:17.220 -0400,1589951416.455497,41.35203800561994,-71.84498087500715,15.92135,0.8366872,314.9482181662776,13.26507033104169,23.28455120047393,-9999,16553.35369775,0.013031005859375,0.37518310546875,-0.994842529296875,1,0.6
2020-05-20 01:10:17.270 -0400,1589951416.455497,41.35203800561994,-71.84498087500715,15.92135,0.8366872,314.9482181662776,13.26507033104169,23.28455120047393,-9999,16553.40358975,-0.0249176025390625,0.37548828125,-0.973785400390625,1,0.6
2020-05-20 01:10:17.319 -0400,1589951416.455497,41.35203800561994,-71.84498087500715,15.92135,0.8366872,314.9482181662776,13.26507033104169,23.28455120047393,-9999,16553.45348175,-0.019378662109375,0.3309478759765625,-0.98236083984375,1,0.6
2020-05-20 01:10:17.369 -0400,1589951416.455497,41.35203800561994,-71.84498087500715,15.92135,0.8366872,314.9482181662776,13.26507033104169,23.28455120047393,-9999,16553.50337175,0.041595458984375,0.36505126953125,-0.926666259765625,1,0.6
2020-05-20 01:10:17.419 -0400,1589951416.455497,41.35203800561994,-71.84498087500715,15.92135,0.8366872,314.9482181662776,13.26507033104169,23.28455120047393,-9999,16553.55326375,0.0270843505859375,0.42034912109375,-0.910736083984375,1,0.6
2020-05-20 01:10:17.469 -0400,1589951416.455497,41.35203800561994,-71.84498087500715,15.92135,0.8366872,314.9482181662776,13.26507033104169,23.28455120047393,-9999,16553.60315475,0.0302886962890625,0.379791259765625,-0.885955810546875,1,0.6
2020-05-20 01:10:17.519 -0400,1589951416.455497,41.35203800561994,-71.84498087500715,15.92135,0.8366872,314.9482181662776,13.26507033104169,23.28455120047393,-9999,16553.65304375,0.036712646484375,0.32391357421875,-0.9152374267578125,1,0.6
2020-05-20 01:10:17.569 -0400,1589951416.455497,41.35203800561994,-71.84498087500715,15.92135,0.8366872,314.9482181662776,13.26507033104169,23.28455120047393,-9999,16553.70293475,0.0237274169921875,0.3507232666015625,-0.9366455078125,1,0.6
2020-05-20 01:10:17.619 -0400,1589951416.455497,41.35203800561994,-71.84498087500715,15.92135,0.8366872,314.9482181662776,13.26507033104169,23.28455120047393,-9999,16553.75282675,0.0577392578125,0.371246337890625,-0.8781585693359375,1,0.6
2020-05-20 01:10:17.669 -0400,1589951416.455497,41.35203800561994,-71.84498087500715,15.92135,0.8366872,314.9482181662776,13.26507033104169,23.28455120047393,-9999,16553.80271675,-0.017364501953125,0.321563720703125,-0.972930908203125,1,0.6
2020-05-20 01:10:17.719 -0400,1589951416.455497,41.35203800561994,-71.84498087500715,15.92135,0.8366872,314.9482181662776,13.26507033104169,23.28455120047393,-9999,16553.85261075,-0.05963134765625,0.328521728515625,-1.011734008789062,1,0.6
2020-05-20 01:10:17.769 -0400,1589951417.454496,41.35204213628388,-71.84498481685604,16.1681,0.8226673,306.7688682091127,12.4470346041592,20.12292078666887,-9999,16553.90250275,0.002899169921875,0.31573486328125,-0.9244384765625,1,0.6
2020-05-20 01:10:17.818 -0400,1589951417.454496,41.35204213628388,-71.84498481685604,16.1681,0.8226673,306.7688682091127,12.4470346041592,20.12292078666887,-9999,16553.95239275,-0.0027923583984375,0.3200836181640625,-0.9380035400390625,1,0.6
2020-05-20 01:10:17.868 -0400,1589951417.454496,41.35204213628388,-71.84498481685604,16.1681,0.8226673,306.7688682091127,12.4470346041592,20.12292078666887,-9999,16554.00228075,-0.03265380859375,0.310516357421875,-0.9603118896484375,1,0.6
2020-05-20 01:10:17.918 -0400,1589951417.454496,41.35204213628388,-71.84498481685604,16.1681,0.8226673,306.7688682091127,12.4470346041592,20.12292078666887,-9999,16554.05216875,-0.069183349609375,0.3306427001953125,-0.9375457763671875,1,0.6
2020-05-20 01:10:17.968 -0400,1589951417.454496,41.35204213628388,-71.84498481685604,16.1681,0.8226673,306.7688682091127,12.4470346041592,20.12292078666887,-9999,16554.10206075,-0.0727081298828125,0.3000335693359375,-0.967193603515625,1,0.6
2020-05-20 01:10:18.018 -0400,1589951417.454496,41.35204213628388,-71.84498481685604,16.1681,0.8226673,306.7688682091127,12.4470346041592,20.12292078666887,-9999,16554.15195475,-0.030731201171875,0.363616943359375,-0.9456329345703125,1,0.6
2020-05-20 01:10:18.068 -0400,1589951417.454496,41.35204213628388,-71.84498481685604,16.1681,0.8226673,306.7688682091127,12.4470346041592,20.12292078666887,-9999,16554.20184475,-0.11767578125,0.4314727783203125,-0.9479827880859375,1,0.6
2020-05-20 01:10:18.118 -0400,1589951417.454496,41.35204213628388,-71.84498481685604,16.1681,0.8226673,306.7688682091127,12.4470346041592,20.12292078666887,-9999,16554.25173375,-0.101654052734375,0.3958587646484375,-0.9541168212890625,1,0.6
2020-05-20 01:10:18.168 -0400,1589951417.454496,41.35204213628388,-71.84498481685604,16.1681,0.8226673,306.7688682091127,12.4470346041592,20.12292078666887,-9999,16554.30162375,0.014739990234375,0.3692779541015625,-0.884552001953125,1,0.6
2020-05-20 01:10:18.218 -0400,1589951417.454496,41.35204213628388,-71.84498481685604,16.1681,0.8226673,306.7688682091127,12.4470346041592,20.12292078666887,-9999,16554.35151575,0.0124664306640625,0.335845947265625,-0.765960693359375,1,0.6
2020-05-20 01:10:18.267 -0400,1589951417.454496,41.35204213628388,-71.84498481685604,16.1681,0.8226673,306.7688682091127,12.4470346041592,20.12292078666887,-9999,16554.40140475,-0.033203125,0.3948822021484375,-0.937225341796875,1,0.6
2020-05-20 01:10:18.317 -0400,1589951417.454496,41.35204213628388,-71.84498481685604,16.1681,0.8226673,306.7688682091127,12.4470346041592,20.12292078666887,-9999,16554.45129275,-0.0337677001953125,0.3479156494140625,-0.8990936279296875,1,0.6
2020-05-20 01:10:18.367 -0400,1589951417.454496,41.35204213628388,-71.84498481685604,16.1681,0.8226673,306.7688682091127,12.4470346041592,20.12292078666887,-9999,16554.50118475,0.0093536376953125,0.295989990234375,-0.90325927734375,1,0.6
2020-05-20 01:10:18.417 -0400,1589951417.454496,41.35204213628388,-71.84498481685604,16.1681,0.8226673,306.7688682091127,12.4470346041592,20.12292078666887,-9999,16554.55107575,-0.0210418701171875,0.2970428466796875,-1.020431518554688,1,0.6
2020-05-20 01:10:18.467 -0400,1589951417.454496,41.35204213628388,-71.84498481685604,16.1681,0.8226673,306.7688682091127,12.4470346041592,20.12292078666887,-9999,16554.60096675,-0.0482940673828125,0.3517303466796875,-1.082366943359375,1,0.6
2020-05-20 01:10:18.517 -0400,1589951417.454496,41.35204213628388,-71.84498481685604,16.1681,0.8226673,306.7688682091127,12.4470346041592,20.12292078666887,-9999,16554.65085675,0.0023651123046875,0.2810211181640625,-0.97607421875,1,0.6
2020-05-20 01:10:18.567 -0400,1589951417.454496,41.35204213628388,-71.84498481685604,16.1681,0.8226673,306.7688682091127,12.4470346041592,20.12292078666887,-9999,16554.70074475,0.0348052978515625,0.3835906982421875,-0.9815521240234375,1,0.6
2020-05-20 01:10:18.617 -0400,1589951417.454496,41.35204213628388,-71.84498481685604,16.1681,0.8226673,306.7688682091127,12.4470346041592,20.12292078666887,-9999,16554.75063475,0.031951904296875,0.34326171875,-0.9694976806640625,1,0.6
2020-05-20 01:10:18.667 -0400,1589951417.454496,41.35204213628388,-71.84498481685604,16.1681,0.8226673,306.7688682091127,12.4470346041592,20.12292078666887,-9999,16554.80052475,-0.0168609619140625,0.2737884521484375,-0.9278411865234375,1,0.6
2020-05-20 01:10:18.717 -0400,1589951418.453494,41.3520411731024,-71.84499114935015,16.23506,0.803091,212.6209813854895,12.22964563828638,17.7117289328008,-9999,16554.85041775,-0.0852203369140625,0.3378143310546875,-0.9086456298828125,1,0.6
2020-05-20 01:10:18.766 -0400,1589951418.453494,41.3520411731024,-71.84499114935015,16.23506,0.803091,212.6209813854895,12.22964563828638,17.7117289328008,-9999,16554.90031075,-0.053619384765625,0.333587646484375,-0.984527587890625,1,0.6
2020-05-20 01:10:18.817 -0400,1589951418.453494,41.3520411731024,-71.84499114935015,16.23506,0.803091,212.6209813854895,12.22964563828638,17.7117289328008,-9999,16554.95020275,-0.02783203125,0.33502197265625,-0.974578857421875,1,0.6
2020-05-20 01:10:18.866 -0400,1589951418.453494,41.3520411731024,-71.84499114935015,16.23506,0.803091,212.6209813854895,12.22964563828638,17.7117289328008,-9999,16555.00009275,-0.011993408203125,0.30706787109375,-0.931427001953125,1,0.6
2020-05-20 01:10:18.916 -0400,1589951418.453494,41.3520411731024,-71.84499114935015,16.23506,0.803091,212.6209813854895,12.22964563828638,17.7117289328008,-9999,16555.04998275,-0.026336669921875,0.2921905517578125,-0.9048614501953125,1,0.6
2020-05-20 01:10:18.966 -0400,1589951418.453494,41.3520411731024,-71.84499114935015,16.23506,0.803091,212.6209813854895,12.22964563828638,17.7117289328008,-9999,16555.09987075,-0.0624237060546875,0.3334808349609375,-0.9012451171875,1,0.6
2020-05-20 01:10:19.016 -0400,1589951418.453494,41.3520411731024,-71.84499114935015,16.23506,0.803091,212.6209813854895,12.22964563828638,17.7117289328008,-9999,16555.14976175,-0.05987548828125,0.3039093017578125,-0.9055328369140625,1,0.6
2020-05-20 01:10:19.066 -0400,1589951418.453494,41.3520411731024,-71.84499114935015,16.23506,0.803091,212.6209813854895,12.22964563828638,17.7117289328008,-9999,16555.19965375,-0.0404815673828125,0.3337249755859375,-0.886138916015625,1,0.6
2020-05-20 01:10:19.115 -0400,1589951418.453494,41.3520411731024,-71.84499114935015,16.23506,0.803091,212.6209813854895,12.22964563828638,17.7117289328008,-9999,16555.24954475,-0.0606231689453125,0.3644256591796875,-0.9145050048828125,1,0.6
2020-05-20 01:10:19.165 -0400,1589951418.453494,41.3520411731024,-71.84499114935015,16.23506,0.803091,212.6209813854895,12.22964563828638,17.7117289328008,-9999,16555.29943675,-0.0719757080078125,0.372711181640625,-0.947723388671875,1,0.6
2020-05-20 01:10:19.216 -0400,1589951418.453494,41.3520411731024,-71.84499114935015,16.23506,0.803091,212.6209813854895,12.22964563828638,17.7117289328008,-9999,16555.34932475,-0.07147216796875,0.3504638671875,-0.945648193359375,1,0.6
2020-05-20 01:10:19.265 -0400,1589951418.453494,41.3520411731024,-71.84499114935015,16.23506,0.803091,212.6209813854895,12.22964563828638,17.7117289328008,-9999,16555.39921175,-0.072967529296875,0.32965087890625,-0.9713287353515625,1,0.6
2020-05-20 01:10:19.315 -0400,1589951418.453494,41.3520411731024,-71.84499114935015,16.23506,0.803091,212.6209813854895,12.22964563828638,17.7117289328008,-9999,16555.44909975,-0.081451416015625,0.3520050048828125,-0.9468994140625,1,0.6
2020-05-20 01:10:19.365 -0400,1589951418.453494,41.3520411731024,-71.84499114935015,16.23506,0.803091,212.6209813854895,12.22964563828638,17.7117289328008,-9999,16555.49898975,-0.096405029296875,0.3511962890625,-0.927459716796875,1,0.6
2020-05-20 01:10:19.415 -0400,1589951418.453494,41.3520411731024,-71.84499114935015,16.23506,0.803091,212.6209813854895,12.22964563828638,17.7117289328008,-9999,16555.54887875,-0.0980987548828125,0.3769989013671875,-0.9196319580078125,1,0.6
2020-05-20 01:10:19.465 -0400,1589951418.453494,41.3520411731024,-71.84499114935015,16.23506,0.803091,212.6209813854895,12.22964563828638,17.7117289328008,-9999,16555.59876575,-0.0688934326171875,0.3682403564453125,-0.9063720703125,1,0.6
2020-05-20 01:10:19.515 -0400,1589951418.453494,41.3520411731024,-71.84499114935015,16.23506,0.803091,212.6209813854895,12.22964563828638,17.7117289328008,-9999,16555.64865475,-0.044677734375,0.4285888671875,-1.051925659179688,1,0.6
2020-05-20 01:10:19.565 -0400,1589951418.453494,41.3520411731024,-71.84499114935015,16.23506,0.803091,212.6209813854895,12.22964563828638,17.7117289328008,-9999,16555.69854175,-0.11676025390625,0.345611572265625,-0.98199462890625,1,0.6
2020-05-20 01:10:19.614 -0400,1589951418.453494,41.3520411731024,-71.84499114935015,16.23506,0.803091,212.6209813854895,12.22964563828638,17.7117289328008,-9999,16555.74842675,-0.0735626220703125,0.3506622314453125,-0.8759307861328125,1,0.6
2020-05-20 01:10:19.664 -0400,1589951418.453494,41.3520411731024,-71.84499114935015,16.23506,0.803091,212.6209813854895,12.22964563828638,17.7117289328008,-9999,16555.79831275,-0.0629425048828125,0.45074462890625,-0.985137939453125,1,0.6
2020-05-20 01:10:19.714 -0400,1589951418.453494,41.3520411731024,-71.84499114935015,16.23506,0.803091,212.6209813854895,12.22964563828638,17.7117289328008,-9999,16555.84819775,-0.0240325927734375,0.3411102294921875,-0.938140869140625,1,0.6
2020-05-20 01:10:19.764 -0400,1589951419.461491,41.35200889584798,-71.8449742417388,16.2629,0.5446467,172.137782636298,11.7542296657385,15.39282983729943,-9999,16555.89808675,0.060089111328125,0.302490234375,-1.06494140625,1,0.6
2020-05-20 01:10:19.814 -0400,1589951419.461491,41.35200889584798,-71.8449742417388,16.2629,0.5446467,172.137782636298,11.7542296657385,15.39282983729943,-9999,16555.94797475,-0.054443359375,0.370208740234375,-0.837921142578125,1,0.6
2020-05-20 01:10:19.864 -0400,1589951419.461491,41.35200889584798,-71.8449742417388,16.2629,0.5446467,172.137782636298,11.7542296657385,15.39282983729943,-9999,16555.99786575,-0.0485992431640625,0.3450927734375,-0.866729736328125,1,0.6
2020-05-20 01:10:19.914 -0400,1589951419.461491,41.35200889584798,-71.8449742417388,16.2629,0.5446467,172.137782636298,11.7542296657385,15.39282983729943,-9999,16556.04775175,-0.0817413330078125,0.223175048828125,-0.790283203125,1,0.6
2020-05-20 01:10:19.964 -0400,1589951419.461491,41.35200889584798,-71.8449742417388,16.2629,0.5446467,172.137782636298,11.7542296657385,15.39282983729943,-9999,16556.09763975,-0.0956573486328125,0.3954010009765625,-0.9756011962890625,1,0.6
2020-05-20 01:10:20.013 -0400,1589951419.461491,41.35200889584798,-71.8449742417388,16.2629,0.5446467,172.137782636298,11.7542296657385,15.39282983729943,-9999,16556.14752475,-0.1081695556640625,0.3688507080078125,-0.9754791259765625,1,0.6
2020-05-20 01:10:20.063 -0400,1589951419.461491,41.35200889584798,-71.8449742417388,16.2629,0.5446467,172.137782636298,11.7542296657385,15.39282983729943,-9999,16556.19740829167,-0.086639404296875,0.4410247802734375,-1.038665771484375,1,0.6
2020-05-20 01:10:20.114 -0400,1589951419.461491,41.35200889584798,-71.8449742417388,16.2629,0.5446467,172.137782636298,11.7542296657385,15.39282983729943,-9999,16556.24729629167,-0.1025238037109375,0.334808349609375,-1.008087158203125,1,0.6
2020-05-20 01:10:20.163 -0400,1589951419.461491,41.35200889584798,-71.8449742417388,16.2629,0.5446467,172.137782636298,11.7542296657385,15.39282983729943,-9999,16556.29718529167,-0.0504608154296875,0.3257598876953125,-0.841552734375,1,0.6
2020-05-20 01:10:20.213 -0400,1589951419.461491,41.35200889584798,-71.8449742417388,16.2629,0.5446467,172.137782636298,11.7542296657385,15.39282983729943,-9999,16556.34707329167,-0.10986328125,0.454925537109375,-0.876007080078125,1,0.6
2020-05-20 01:10:20.263 -0400,1589951419.461491,41.35200889584798,-71.8449742417388,16.2629,0.5446467,172.137782636298,11.7542296657385,15.39282983729943,-9999,16556.39696229167,-0.124267578125,0.29266357421875,-0.9198150634765625,1,0.6
2020-05-20 01:10:20.313 -0400,1589951419.461491,41.35200889584798,-71.8449742417388,16.2629,0.5446467,172.137782636298,11.7542296657385,15.39282983729943,-9999,16556.44685029167,-0.1167449951171875,0.4351959228515625,-1.024520874023438,1,0.6
2020-05-20 01:10:20.363 -0400,1589951419.461491,41.35200889584798,-71.8449742417388,16.2629,0.5446467,172.137782636298,11.7542296657385,15.39282983729943,-9999,16556.49674129167,-0.100341796875,0.20770263671875,-0.94232177734375,1,0.6
2020-05-20 01:10:20.413 -0400,1589951419.461491,41.35200889584798,-71.8449742417388,16.2629,0.5446467,172.137782636298,11.7542296657385,15.39282983729943,-9999,16556.54663229167,-0.0709991455078125,0.319183349609375,-0.9395294189453125,1,0.6
2020-05-20 01:10:20.462 -0400,1589951419.461491,41.35200889584798,-71.8449742417388,16.2629,0.5446467,172.137782636298,11.7542296657385,15.39282983729943,-9999,16556.59651929167,-0.043487548828125,0.333892822265625,-0.8450469970703125,1,0.6
2020-05-20 01:10:20.512 -0400,1589951419.461491,41.35200889584798,-71.8449742417388,16.2629,0.5446467,172.137782636298,11.7542296657385,15.39282983729943,-9999,16556.64640529167,0.0021209716796875,0.3147735595703125,-0.9244232177734375,1,0.6
2020-05-20 01:10:20.562 -0400,1589951419.461491,41.35200889584798,-71.8449742417388,16.2629,0.5446467,172.137782636298,11.7542296657385,15.39282983729943,-9999,16556.69629629167,-0.031341552734375,0.3561553955078125,-0.8804473876953125,1,0.6
2020-05-20 01:10:20.612 -0400,1589951419.461491,41.35200889584798,-71.8449742417388,16.2629,0.5446467,172.137782636298,11.7542296657385,15.39282983729943,-9999,16556.74618329167,-0.062957763671875,0.5137481689453125,-1.007766723632812,1,0.6
2020-05-20 01:10:20.662 -0400,1589951419.461491,41.35200889584798,-71.8449742417388,16.2629,0.5446467,172.137782636298,11.7542296657385,15.39282983729943,-9999,16556.79607329167,-0.115936279296875,0.3448486328125,-0.9248199462890625,1,0.6
2020-05-20 01:10:20.712 -0400,1589951419.461491,41.35200889584798,-71.8449742417388,16.2629,0.5446467,172.137782636298,11.7542296657385,15.39282983729943,-9999,16556.84596629167,-0.097320556640625,0.26715087890625,-0.9387664794921875,1,0.6
2020-05-20 01:10:20.762 -0400,1589951420.411491,41.35202117476823,-71.84496552512832,16.2286,0.1574034,246.1677201808749,11.73490127061868,14.261449666374,-9999,16556.89585729167,-0.0669403076171875,0.4031219482421875,-0.9971923828125,1,0.6
2020-05-20 01:10:20.812 -0400,1589951420.411491,41.35202117476823,-71.84496552512832,16.2286,0.1574034,246.1677201808749,11.73490127061868,14.261449666374,-9999,16556.94574629167,-0.0753173828125,0.47607421875,-0.924835205078125,1,0.6
2020-05-20 01:10:20.862 -0400,1589951420.411491,41.35202117476823,-71.84496552512832,16.2286,0.1574034,246.1677201808749,11.73490127061868,14.261449666374,-9999,16556.99563729167,-0.081451416015625,0.3631591796875,-0.959014892578125,1,0.6
2020-05-20 01:10:20.912 -0400,1589951420.411491,41.35202117476823,-71.84496552512832,16.2286,0.1574034,246.1677201808749,11.73490127061868,14.261449666374,-9999,16557.04552629167,-0.0934906005859375,0.2930145263671875,-0.8763885498046875,1,0.6
2020-05-20 01:10:20.961 -0400,1589951420.411491,41.35202117476823,-71.84496552512832,16.2286,0.1574034,246.1677201808749,11.73490127061868,14.261449666374,-9999,16557.09541429167,-0.045440673828125,0.3328857421875,-0.915802001953125,1,0.6
2020-05-20 01:10:21.011 -0400,1589951420.411491,41.35202117476823,-71.84496552512832,16.2286,0.1574034,246.1677201808749,11.73490127061868,14.261449666374,-9999,16557.14530629167,-0.05108642578125,0.3640899658203125,-0.992279052734375,1,0.6
2020-05-20 01:10:21.061 -0400,1589951420.411491,41.35202117476823,-71.84496552512832,16.2286,0.1574034,246.1677201808749,11.73490127061868,14.261449666374,-9999,16557.195197375,-0.0691375732421875,0.3283538818359375,-0.927459716796875,1,0.6
2020-05-20 01:10:21.111 -0400,1589951420.411491,41.35202117476823,-71.84496552512832,16.2286,0.1574034,246.1677201808749,11.73490127061868,14.261449666374,-9999,16557.245091375,-0.0501861572265625,0.3242340087890625,-0.95550537109375,1,0.6
2020-05-20 01:10:21.161 -0400,1589951420.411491,41.35202117476823,-71.84496552512832,16.2286,0.1574034,246.1677201808749,11.73490127061868,14.261449666374,-9999,16557.294980375,-0.07403564453125,0.3126678466796875,-0.9316558837890625,1,0.6
2020-05-20 01:10:21.211 -0400,1589951420.411491,41.35202117476823,-71.84496552512832,16.2286,0.1574034,246.1677201808749,11.73490127061868,14.261449666374,-9999,16557.344869375,-0.0659332275390625,0.327056884765625,-0.964141845703125,1,0.6
2020-05-20 01:10:21.261 -0400,1589951420.411491,41.35202117476823,-71.84496552512832,16.2286,0.1574034,246.1677201808749,11.73490127061868,14.261449666374,-9999,16557.394758375,-0.0551300048828125,0.3492279052734375,-0.988494873046875,1,0.6
2020-05-20 01:10:21.311 -0400,1589951420.411491,41.35202117476823,-71.84496552512832,16.2286,0.1574034,246.1677201808749,11.73490127061868,14.261449666374,-9999,16557.444647375,-0.067230224609375,0.249481201171875,-0.9998321533203125,1,0.6
2020-05-20 01:10:21.360 -0400,1589951420.411491,41.35202117476823,-71.84496552512832,16.2286,0.1574034,246.1677201808749,11.73490127061868,14.261449666374,-9999,16557.494539375,-0.04443359375,0.26055908203125,-0.9709930419921875,1,0.6
2020-05-20 01:10:21.410 -0400,1589951420.411491,41.35202117476823,-71.84496552512832,16.2286,0.1574034,246.1677201808749,11.73490127061868,14.261449666374,-9999,16557.544426375,-0.06304931640625,0.341094970703125,-0.89801025390625,1,0.6
2020-05-20 01:10:21.460 -0400,1589951420.411491,41.35202117476823,-71.84496552512832,16.2286,0.1574034,246.1677201808749,11.73490127061868,14.261449666374,-9999,16557.594312375,-0.0696258544921875,0.2530059814453125,-0.8323974609375,1,0.6
2020-05-20 01:10:21.510 -0400,1589951420.411491,41.35202117476823,-71.84496552512832,16.2286,0.1574034,246.1677201808749,11.73490127061868,14.261449666374,-9999,16557.644201375,-0.0146026611328125,0.451690673828125,-0.93865966796875,1,0.6
2020-05-20 01:10:21.560 -0400,1589951420.411491,41.35202117476823,-71.84496552512832,16.2286,0.1574034,246.1677201808749,11.73490127061868,14.261449666374,-9999,16557.694090375,-0.0532073974609375,0.3281402587890625,-0.9688720703125,1,0.6
2020-05-20 01:10:21.610 -0400,1589951421.361949,41.35201992682936,-71.84496536216626,16.19795,0.4606187,284.0181030885014,12.1808035260628,13.59121945901894,-9999,16557.743976375,-0.081268310546875,0.2936859130859375,-0.9831085205078125,1,0.6
2020-05-20 01:10:21.660 -0400,1589951421.361949,41.35201992682936,-71.84496536216626,16.19795,0.4606187,284.0181030885014,12.1808035260628,13.59121945901894,-9999,16557.793861375,-0.0732421875,0.282684326171875,-0.952362060546875,1,0.6
2020-05-20 01:10:21.710 -0400,1589951421.361949,41.35201992682936,-71.84496536216626,16.19795,0.4606187,284.0181030885014,12.1808035260628,13.59121945901894,-9999,16557.843749375,-0.0666046142578125,0.3266754150390625,-1.040328979492188,1,0.6
2020-05-20 01:10:21.760 -0400,1589951421.361949,41.35201992682936,-71.84496536216626,16.19795,0.4606187,284.0181030885014,12.1808035260628,13.59121945901894,-9999,16557.893636375,-0.0716552734375,0.3431243896484375,-0.9576263427734375,1,0.6
2020-05-20 01:10:21.810 -0400,1589951421.361949,41.35201992682936,-71.84496536216626,16.19795,0.4606187,284.0181030885014,12.1808035260628,13.59121945901894,-9999,16557.943528375,-0.0412445068359375,0.322052001953125,-0.9466552734375,1,0.6
2020-05-20 01:10:21.859 -0400,1589951421.361949,41.35201992682936,-71.84496536216626,16.19795,0.4606187,284.0181030885014,12.1808035260628,13.59121945901894,-9999,16557.993420375,-0.0614166259765625,0.3000946044921875,-0.9307403564453125,1,0.6
2020-05-20 01:10:21.909 -0400,1589951421.361949,41.35201992682936,-71.84496536216626,16.19795,0.4606187,284.0181030885014,12.1808035260628,13.59121945901894,-9999,16558.043312375,-0.0888824462890625,0.3705291748046875,-0.89324951171875,1,0.6
2020-05-20 01:10:21.959 -0400,1589951421.361949,41.35201992682936,-71.84496536216626,16.19795,0.4606187,284.0181030885014,12.1808035260628,13.59121945901894,-9999,16558.093206375,-0.0589599609375,0.317230224609375,-1.016159057617188,1,0.6
2020-05-20 01:10:22.009 -0400,1589951421.361949,41.35201992682936,-71.84496536216626,16.19795,0.4606187,284.0181030885014,12.1808035260628,13.59121945901894,-9999,16558.143099375,-0.0797882080078125,0.4176788330078125,-1.095443725585938,1,0.6
2020-05-20 01:10:22.059 -0400,1589951421.361949,41.35201992682936,-71.84496536216626,16.19795,0.4606187,284.0181030885014,12.1808035260628,13.59121945901894,-9999,16558.192990375,-0.10455322265625,0.289031982421875,-0.8000335693359375,1,0.6
2020-05-20 01:10:22.109 -0400,1589951421.361949,41.35201992682936,-71.84496536216626,16.19795,0.4606187,284.0181030885014,12.1808035260628,13.59121945901894,-9999,16558.24288091667,-0.0307464599609375,0.2330780029296875,-0.9318084716796875,1,0.6
2020-05-20 01:10:22.159 -0400,1589951421.361949,41.35201992682936,-71.84496536216626,16.19795,0.4606187,284.0181030885014,12.1808035260628,13.59121945901894,-9999,16558.29277391667,0.0016937255859375,0.39154052734375,-0.9331207275390625,1,0.6
2020-05-20 01:10:22.209 -0400,1589951421.361949,41.35201992682936,-71.84496536216626,16.19795,0.4606187,284.0181030885014,12.1808035260628,13.59121945901894,-9999,16558.34266591667,-0.004547119140625,0.4356842041015625,-1.023269653320312,1,0.6
2020-05-20 01:10:22.259 -0400,1589951421.361949,41.35201992682936,-71.84496536216626,16.19795,0.4606187,284.0181030885014,12.1808035260628,13.59121945901894,-9999,16558.39255891667,-0.05487060546875,0.31048583984375,-0.8213043212890625,1,0.6
2020-05-20 01:10:22.308 -0400,1589951421.361949,41.35201992682936,-71.84496536216626,16.19795,0.4606187,284.0181030885014,12.1808035260628,13.59121945901894,-9999,16558.44245091667,-0.064697265625,0.2861175537109375,-0.96075439453125,1,0.6
2020-05-20 01:10:22.358 -0400,1589951421.361949,41.35201992682936,-71.84496536216626,16.19795,0.4606187,284.0181030885014,12.1808035260628,13.59121945901894,-9999,16558.49234491667,-0.09857177734375,0.3606414794921875,-1.0240478515625,1,0.6
2020-05-20 01:10:22.408 -0400,1589951421.361949,41.35201992682936,-71.84496536216626,16.19795,0.4606187,284.0181030885014,12.1808035260628,13.59121945901894,-9999,16558.54223391667,-0.0683746337890625,0.330474853515625,-1.006637573242188,1,0.6
2020-05-20 01:10:22.458 -0400,1589951421.361949,41.35201992682936,-71.84496536216626,16.19795,0.4606187,284.0181030885014,12.1808035260628,13.59121945901894,-9999,16558.59212391667,-0.0874481201171875,0.3616180419921875,-0.929656982421875,1,0.6
2020-05-20 01:10:22.508 -0400,1589951421.361949,41.35201992682936,-71.84496536216626,16.19795,0.4606187,284.0181030885014,12.1808035260628,13.59121945901894,-9999,16558.64201291667,-0.107574462890625,0.268402099609375,-0.886505126953125,1,0.6
2020-05-20 01:10:22.558 -0400,1589951421.361949,41.35201992682936,-71.84496536216626,16.19795,0.4606187,284.0181030885014,12.1808035260628,13.59121945901894,-9999,16558.69190291667,-0.097991943359375,0.3411712646484375,-0.9117889404296875,1,0.6
2020-05-20 01:10:22.609 -0400,1589951422.311948,41.35202359067645,-71.84495564218119,16.16365,0.1749844,25.20526123015244,15.73833240638125,15.84632219327187,-9999,16558.74179291667,-0.0535888671875,0.342620849609375,-0.9245147705078125,1,0.6
2020-05-20 01:10:22.658 -0400,1589951422.311948,41.35202359067645,-71.84495564218119,16.16365,0.1749844,25.20526123015244,15.73833240638125,15.84632219327187,-9999,16558.79168191667,-0.0312347412109375,0.35064697265625,-0.9304656982421875,1,0.6
2020-05-20 01:10:22.708 -0400,1589951422.311948,41.35202359067645,-71.84495564218119,16.16365,0.1749844,25.20526123015244,15.73833240638125,15.84632219327187,-9999,16558.84156891667,-0.041351318359375,0.3400726318359375,-0.948638916015625,1,0.6
2020-05-20 01:10:22.757 -0400,1589951422.311948,41.35202359067645,-71.84495564218119,16.16365,0.1749844,25.20526123015244,15.73833240638125,15.84632219327187,-9999,16558.89145991667,-0.061859130859375,0.3240966796875,-0.9428558349609375,1,0.6
2020-05-20 01:10:22.807 -0400,1589951422.311948,41.35202359067645,-71.84495564218119,16.16365,0.1749844,25.20526123015244,15.73833240638125,15.84632219327187,-9999,16558.94134791667,-0.064544677734375,0.3124542236328125,-0.951416015625,1,0.6
2020-05-20 01:10:22.857 -0400,1589951422.311948,41.35202359067645,-71.84495564218119,16.16365,0.1749844,25.20526123015244,15.73833240638125,15.84632219327187,-9999,16558.99123391667,-0.074188232421875,0.3215179443359375,-0.9764251708984375,1,0.6
2020-05-20 01:10:22.907 -0400,1589951422.311948,41.35202359067645,-71.84495564218119,16.16365,0.1749844,25.20526123015244,15.73833240638125,15.84632219327187,-9999,16559.04112291667,-0.0593414306640625,0.3291015625,-0.9565582275390625,1,0.6
2020-05-20 01:10:22.957 -0400,1589951422.311948,41.35202359067645,-71.84495564218119,16.16365,0.1749844,25.20526123015244,15.73833240638125,15.84632219327187,-9999,16559.09101191667,-0.050537109375,0.3273773193359375,-0.952667236328125,1,0.6
2020-05-20 01:10:23.007 -0400,1589951422.311948,41.35202359067645,-71.84495564218119,16.16365,0.1749844,25.20526123015244,15.73833240638125,15.84632219327187,-9999,16559.14090091667,-0.065765380859375,0.314117431640625,-0.9330596923828125,1,0.6
2020-05-20 01:10:23.057 -0400,1589951422.311948,41.35202359067645,-71.84495564218119,16.16365,0.1749844,25.20526123015244,15.73833240638125,15.84632219327187,-9999,16559.19078991667,-0.0774993896484375,0.3304443359375,-0.944366455078125,1,0.6
2020-05-20 01:10:23.107 -0400,1589951422.311948,41.35202359067645,-71.84495564218119,16.16365,0.1749844,25.20526123015244,15.73833240638125,15.84632219327187,-9999,16559.24067929167,-0.06591796875,0.3286285400390625,-0.95684814453125,1,0.6
2020-05-20 01:10:23.157 -0400,1589951422.311948,41.35202359067645,-71.84495564218119,16.16365,0.1749844,25.20526123015244,15.73833240638125,15.84632219327187,-9999,16559.29056529167,-0.06890869140625,0.317047119140625,-0.9390106201171875,1,0.6
2020-05-20 01:10:23.207 -0400,1589951422.311948,41.35202359067645,-71.84495564218119,16.16365,0.1749844,25.20526123015244,15.73833240638125,15.84632219327187,-9999,16559.34045329167,-0.0490570068359375,0.300323486328125,-0.9658660888671875,1,0.6
2020-05-20 01:10:23.256 -0400,1589951422.311948,41.35202359067645,-71.84495564218119,16.16365,0.1749844,25.20526123015244,15.73833240638125,15.84632219327187,-9999,16559.39034029167,-0.068023681640625,0.301025390625,-0.92205810546875,1,0.6
2020-05-20 01:10:23.306 -0400,1589951422.311948,41.35202359067645,-71.84495564218119,16.16365,0.1749844,25.20526123015244,15.73833240638125,15.84632219327187,-9999,16559.44022829167,-0.0699920654296875,0.321044921875,-0.93206787109375,1,0.6
2020-05-20 01:10:23.356 -0400,1589951422.311948,41.35202359067645,-71.84495564218119,16.16365,0.1749844,25.20526123015244,15.73833240638125,15.84632219327187,-9999,16559.49011729167,-0.0684967041015625,0.31524658203125,-0.936370849609375,1,0.6
2020-05-20 01:10:23.406 -0400,1589951422.311948,41.35202359067645,-71.84495564218119,16.16365,0.1749844,25.20526123015244,15.73833240638125,15.84632219327187,-9999,16559.54000129167,-0.1141815185546875,0.3675537109375,-0.8654022216796875,1,0.6
2020-05-20 01:10:23.456 -0400,1589951422.311948,41.35202359067645,-71.84495564218119,16.16365,0.1749844,25.20526123015244,15.73833240638125,15.84632219327187,-9999,16559.58988929167,-0.1212005615234375,0.337249755859375,-0.880035400390625,1,0.6
2020-05-20 01:10:23.506 -0400,1589951422.311948,41.35202359067645,-71.84495564218119,16.16365,0.1749844,25.20526123015244,15.73833240638125,15.84632219327187,-9999,16559.63978029167,-0.0034637451171875,0.3456268310546875,-0.9112548828125,1,0.6
2020-05-20 01:10:23.564 -0400,1589951422.311948,41.35202359067645,-71.84495564218119,16.16365,0.1749844,25.20526123015244,15.73833240638125,15.84632219327187,-9999,16559.68967129167,-0.068359375,0.2116851806640625,-0.8853759765625,1,0.6
2020-05-20 01:10:23.606 -0400,1589951423.261943,41.3520267398902,-71.8449554139417,16.14001,0.1576022,227.5527376677205,12.58827006960747,12.48532859856562,-9999,16559.73956329167,-0.0998992919921875,0.287384033203125,-0.926727294921875,1,0.6
2020-05-20 01:10:23.656 -0400,1589951423.261943,41.3520267398902,-71.8449554139417,16.14001,0.1576022,227.5527376677205,12.58827006960747,12.48532859856562,-9999,16559.78945229167,-0.0861968994140625,0.3511810302734375,-0.9245452880859375,1,0.6
2020-05-20 01:10:23.705 -0400,1589951423.261943,41.3520267398902,-71.8449554139417,16.14001,0.1576022,227.5527376677205,12.58827006960747,12.48532859856562,-9999,16559.83934029167,-0.0886993408203125,0.477142333984375,-1.088348388671875,1,0.6
2020-05-20 01:10:23.755 -0400,1589951423.261943,41.3520267398902,-71.8449554139417,16.14001,0.1576022,227.5527376677205,12.58827006960747,12.48532859856562,-9999,16559.88922929167,-0.0860748291015625,0.27825927734375,-0.892608642578125,1,0.6
2020-05-20 01:10:23.805 -0400,1589951423.261943,41.3520267398902,-71.8449554139417,16.14001,0.1576022,227.5527376677205,12.58827006960747,12.48532859856562,-9999,16559.93911729167,-0.0597686767578125,0.2586822509765625,-0.911956787109375,1,0.6
2020-05-20 01:10:23.855 -0400,1589951423.261943,41.3520267398902,-71.8449554139417,16.14001,0.1576022,227.5527376677205,12.58827006960747,12.48532859856562,-9999,16559.98900329167,-0.0529632568359375,0.38031005859375,-0.9879150390625,1,0.6
2020-05-20 01:10:23.905 -0400,1589951423.261943,41.3520267398902,-71.8449554139417,16.14001,0.1576022,227.5527376677205,12.58827006960747,12.48532859856562,-9999,16560.03888729167,-0.1167755126953125,0.2461090087890625,-0.82623291015625,1,0.6
2020-05-20 01:10:23.955 -0400,1589951423.261943,41.3520267398902,-71.8449554139417,16.14001,0.1576022,227.5527376677205,12.58827006960747,12.48532859856562,-9999,16560.08877629167,-0.0537567138671875,0.3409423828125,-0.8667755126953125,1,0.6
2020-05-20 01:10:24.005 -0400,1589951423.261943,41.3520267398902,-71.8449554139417,16.14001,0.1576022,227.5527376677205,12.58827006960747,12.48532859856562,-9999,16560.13866229167,-0.0690460205078125,0.3336944580078125,-0.974212646484375,1,0.6
2020-05-20 01:10:24.055 -0400,1589951423.261943,41.3520267398902,-71.8449554139417,16.14001,0.1576022,227.5527376677205,12.58827006960747,12.48532859856562,-9999,16560.18854729167,-0.090606689453125,0.273193359375,-0.817474365234375,1,0.6
2020-05-20 01:10:24.104 -0400,1589951423.261943,41.3520267398902,-71.8449554139417,16.14001,0.1576022,227.5527376677205,12.58827006960747,12.48532859856562,-9999,16560.238431,-0.0742950439453125,0.387481689453125,-0.9731292724609375,1,0.6
2020-05-20 01:10:24.154 -0400,1589951423.261943,41.3520267398902,-71.8449554139417,16.14001,0.1576022,227.5527376677205,12.58827006960747,12.48532859856562,-9999,16560.288313,-0.08642578125,0.3597564697265625,-0.8614044189453125,1,0.6
2020-05-20 01:10:24.204 -0400,1589951423.261943,41.3520267398902,-71.8449554139417,16.14001,0.1576022,227.5527376677205,12.58827006960747,12.48532859856562,-9999,16560.338199,-0.076812744140625,0.4096832275390625,-0.963897705078125,1,0.6
2020-05-20 01:10:24.254 -0400,1589951423.261943,41.3520267398902,-71.8449554139417,16.14001,0.1576022,227.5527376677205,12.58827006960747,12.48532859856562,-9999,16560.388086,-0.092041015625,0.403228759765625,-0.9055938720703125,1,0.6
2020-05-20 01:10:24.304 -0400,1589951423.261943,41.3520267398902,-71.8449554139417,16.14001,0.1576022,227.5527376677205,12.58827006960747,12.48532859856562,-9999,16560.437971,-0.0624847412109375,0.43798828125,-0.973541259765625,1,0.6
2020-05-20 01:10:24.354 -0400,1589951423.261943,41.3520267398902,-71.8449554139417,16.14001,0.1576022,227.5527376677205,12.58827006960747,12.48532859856562,-9999,16560.487859,-0.0601043701171875,0.2634429931640625,-0.9299163818359375,1,0.6
2020-05-20 01:10:24.404 -0400,1589951423.261943,41.3520267398902,-71.8449554139417,16.14001,0.1576022,227.5527376677205,12.58827006960747,12.48532859856562,-9999,16560.537748,-0.0706329345703125,0.3353424072265625,-0.857269287109375,1,0.6
2020-05-20 01:10:24.454 -0400,1589951423.261943,41.3520267398902,-71.8449554139417,16.14001,0.1576022,227.5527376677205,12.58827006960747,12.48532859856562,-9999,16560.587639,-0.0490264892578125,0.46807861328125,-1.002471923828125,1,0.6
2020-05-20 01:10:24.504 -0400,1589951423.261943,41.3520267398902,-71.8449554139417,16.14001,0.1576022,227.5527376677205,12.58827006960747,12.48532859856562,-9999,16560.637531,-0.0717010498046875,0.040679931640625,-0.876678466796875,1,0.6
2020-05-20 01:10:24.553 -0400,1589951423.261943,41.3520267398902,-71.8449554139417,16.14001,0.1576022,227.5527376677205,12.58827006960747,12.48532859856562,-9999,16560.68742,-0.1002349853515625,0.4051055908203125,-0.816680908203125,1,0.6
2020-05-20 01:10:24.603 -0400,1589951424.211938,41.35202583003178,-71.84495673411811,16.14001,0.1576022,227.5527367955017,12.58827006960747,12.48532859856562,-9999,16560.737309,-0.066070556640625,0.2575531005859375,-0.9471282958984375,1,0.6
2020-05-20 01:10:24.653 -0400,1589951424.211938,41.35202583003178,-71.84495673411811,16.14001,0.1576022,227.5527367955017,12.58827006960747,12.48532859856562,-9999,16560.787201,-0.0579071044921875,0.319610595703125,-0.9855194091796875,1,0.6
2020-05-20 01:10:24.703 -0400,1589951424.211938,41.35202583003178,-71.84495673411811,16.14001,0.1576022,227.5527367955017,12.58827006960747,12.48532859856562,-9999,16560.837092,-0.0816497802734375,0.3444061279296875,-0.943450927734375,1,0.6
2020-05-20 01:10:24.753 -0400,1589951424.211938,41.35202583003178,-71.84495673411811,16.14001,0.1576022,227.5527367955017,12.58827006960747,12.48532859856562,-9999,16560.886986,-0.088623046875,0.351898193359375,-0.911041259765625,1,0.6
2020-05-20 01:10:24.803 -0400,1589951424.211938,41.35202583003178,-71.84495673411811,16.14001,0.1576022,227.5527367955017,12.58827006960747,12.48532859856562,-9999,16560.936879,-0.0843505859375,0.397491455078125,-0.9127044677734375,1,0.6
2020-05-20 01:10:24.853 -0400,1589951424.211938,41.35202583003178,-71.84495673411811,16.14001,0.1576022,227.5527367955017,12.58827006960747,12.48532859856562,-9999,16560.986768,-0.0877685546875,0.3912200927734375,-0.9169158935546875,1,0.6
2020-05-20 01:10:24.903 -0400,1589951424.211938,41.35202583003178,-71.84495673411811,16.14001,0.1576022,227.5527367955017,12.58827006960747,12.48532859856562,-9999,16561.036657,-0.0655364990234375,0.380218505859375,-0.929718017578125,1,0.6
2020-05-20 01:10:24.953 -0400,1589951424.211938,41.35202583003178,-71.84495673411811,16.14001,0.1576022,227.5527367955017,12.58827006960747,12.48532859856562,-9999,16561.086545,-0.0543212890625,0.329345703125,-0.913543701171875,1,0.6
2020-05-20 01:10:25.002 -0400,1589951424.211938,41.35202583003178,-71.84495673411811,16.14001,0.1576022,227.5527367955017,12.58827006960747,12.48532859856562,-9999,16561.136431,-0.0509796142578125,0.3195343017578125,-0.9245452880859375,1,0.6
2020-05-20 01:10:25.052 -0400,1589951424.211938,41.35202583003178,-71.84495673411811,16.14001,0.1576022,227.5527367955017,12.58827006960747,12.48532859856562,-9999,16561.186321,-0.05926513671875,0.338104248046875,-0.907440185546875,1,0.6
2020-05-20 01:10:25.102 -0400,1589951424.211938,41.35202583003178,-71.84495673411811,16.14001,0.1576022,227.5527367955017,12.58827006960747,12.48532859856562,-9999,16561.236212875,-0.0789337158203125,0.3649444580078125,-0.9649810791015625,1,0.6
2020-05-20 01:10:25.157 -0400,1589951424.211938,41.35202583003178,-71.84495673411811,16.14001,0.1576022,227.5527367955017,12.58827006960747,12.48532859856562,-9999,16561.286101875,-0.079254150390625,0.4062347412109375,-1.013824462890625,1,0.6
2020-05-20 01:10:25.202 -0400,1589951424.211938,41.35202583003178,-71.84495673411811,16.14001,0.1576022,227.5527367955017,12.58827006960747,12.48532859856562,-9999,16561.335993875,-0.073394775390625,0.3560791015625,-0.92974853515625,1,0.6
2020-05-20 01:10:25.252 -0400,1589951424.211938,41.35202583003178,-71.84495673411811,16.14001,0.1576022,227.5527367955017,12.58827006960747,12.48532859856562,-9999,16561.385882875,-0.0269927978515625,0.3736572265625,-0.912445068359375,1,0.6
2020-05-20 01:10:25.302 -0400,1589951424.211938,41.35202583003178,-71.84495673411811,16.14001,0.1576022,227.5527367955017,12.58827006960747,12.48532859856562,-9999,16561.435773875,-0.0355072021484375,0.3379058837890625,-0.889312744140625,1,0.6
2020-05-20 01:10:25.352 -0400,1589951424.211938,41.35202583003178,-71.84495673411811,16.14001,0.1576022,227.5527367955017,12.58827006960747,12.48532859856562,-9999,16561.485665875,-0.052001953125,0.438751220703125,-0.9973602294921875,1,0.6
2020-05-20 01:10:25.401 -0400,1589951424.211938,41.35202583003178,-71.84495673411811,16.14001,0.1576022,227.5527367955017,12.58827006960747,12.48532859856562,-9999,16561.535555875,-0.0720367431640625,0.35040283203125,-0.8981475830078125,1,0.6
2020-05-20 01:10:25.451 -0400,1589951424.211938,41.35202583003178,-71.84495673411811,16.14001,0.1576022,227.5527367955017,12.58827006960747,12.48532859856562,-9999,16561.585445875,-0.0775604248046875,0.323333740234375,-0.9098968505859375,1,0.6
2020-05-20 01:10:25.502 -0400,1589951424.211938,41.35202583003178,-71.84495673411811,16.14001,0.1576022,227.5527367955017,12.58827006960747,12.48532859856562,-9999,16561.635331875,-0.054840087890625,0.353179931640625,-0.95074462890625,1,0.6
2020-05-20 01:10:25.551 -0400,1589951425.161931,41.3520267398904,-71.8449554139417,16.14001,0,227.5527376677205,13.8813833892687,13.51985503788435,-9999,16561.685219875,-0.0774993896484375,0.37225341796875,-0.9446868896484375,1,0.6
2020-05-20 01:10:25.601 -0400,1589951425.161931,41.3520267398904,-71.8449554139417,16.14001,0,227.5527376677205,13.8813833892687,13.51985503788435,-9999,16561.735108875,-0.053192138671875,0.363128662109375,-0.96453857421875,1,0.6
2020-05-20 01:10:25.651 -0400,1589951425.161931,41.3520267398904,-71.8449554139417,16.14001,0,227.5527376677205,13.8813833892687,13.51985503788435,-9999,16561.784996875,-0.0630340576171875,0.3495330810546875,-0.90777587890625,1,0.6
2020-05-20 01:10:25.701 -0400,1589951425.161931,41.3520267398904,-71.8449554139417,16.14001,0,227.5527376677205,13.8813833892687,13.51985503788435,-9999,16561.834884875,-0.054840087890625,0.3361968994140625,-0.9575958251953125,1,0.6
2020-05-20 01:10:25.751 -0400,1589951425.161931,41.3520267398904,-71.8449554139417,16.14001,0,227.5527376677205,13.8813833892687,13.51985503788435,-9999,16561.884772875,-0.07049560546875,0.3421478271484375,-0.9388275146484375,1,0.6
2020-05-20 01:10:25.801 -0400,1589951425.161931,41.3520267398904,-71.8449554139417,16.14001,0,227.5527376677205,13.8813833892687,13.51985503788435,-9999,16561.934660875,-0.0537872314453125,0.3488006591796875,-0.92755126953125,1,0.6
2020-05-20 01:10:25.851 -0400,1589951425.161931,41.3520267398904,-71.8449554139417,16.14001,0,227.5527376677205,13.8813833892687,13.51985503788435,-9999,16561.984547875,-0.0538330078125,0.3583831787109375,-0.9364013671875,1,0.6
2020-05-20 01:10:25.900 -0400,1589951425.161931,41.3520267398904,-71.8449554139417,16.14001,0,227.5527376677205,13.8813833892687,13.51985503788435,-9999,16562.034433875,-0.0594329833984375,0.3443145751953125,-0.935272216796875,1,0.6
2020-05-20 01:10:25.950 -0400,1589951425.161931,41.3520267398904,-71.8449554139417,16.14001,0,227.5527376677205,13.8813833892687,13.51985503788435,-9999,16562.084320875,-0.0506134033203125,0.3347015380859375,-0.9456787109375,1,0.6
2020-05-20 01:10:26.000 -0400,1589951425.161931,41.3520267398904,-71.8449554139417,16.14001,0,227.5527376677205,13.8813833892687,13.51985503788435,-9999,16562.134205875,-0.0551605224609375,0.346435546875,-0.939483642578125,1,0.6
2020-05-20 01:10:26.050 -0400,1589951425.161931,41.3520267398904,-71.8449554139417,16.14001,0,227.5527376677205,13.8813833892687,13.51985503788435,-9999,16562.184092875,-0.062774658203125,0.359893798828125,-0.9422760009765625,1,0.6
2020-05-20 01:10:26.102 -0400,1589951425.161931,41.3520267398904,-71.8449554139417,16.14001,0,227.5527376677205,13.8813833892687,13.51985503788435,-9999,16562.23397804167,-0.0680999755859375,0.3574066162109375,-0.9293365478515625,1,0.6
2020-05-20 01:10:26.150 -0400,1589951425.161931,41.3520267398904,-71.8449554139417,16.14001,0,227.5527376677205,13.8813833892687,13.51985503788435,-9999,16562.28386204167,-0.0554656982421875,0.3502960205078125,-0.948394775390625,1,0.6
2020-05-20 01:10:26.200 -0400,1589951425.161931,41.3520267398904,-71.8449554139417,16.14001,0,227.5527376677205,13.8813833892687,13.51985503788435,-9999,16562.33374504167,-0.053955078125,0.3382110595703125,-0.9074859619140625,1,0.6
2020-05-20 01:10:26.250 -0400,1589951425.161931,41.3520267398904,-71.8449554139417,16.14001,0,227.5527376677205,13.8813833892687,13.51985503788435,-9999,16562.38362804167,-0.039764404296875,0.3413543701171875,-1.026519775390625,1,0.6
2020-05-20 01:10:26.300 -0400,1589951425.161931,41.3520267398904,-71.8449554139417,16.14001,0,227.5527376677205,13.8813833892687,13.51985503788435,-9999,16562.43351104167,-0.041015625,0.368316650390625,-1.03472900390625,1,0.6
2020-05-20 01:10:26.349 -0400,1589951425.161931,41.3520267398904,-71.8449554139417,16.14001,0,227.5527376677205,13.8813833892687,13.51985503788435,-9999,16562.48340004167,-0.1189727783203125,0.303955078125,-0.8588714599609375,1,0.6
2020-05-20 01:10:26.400 -0400,1589951425.161931,41.3520267398904,-71.8449554139417,16.14001,0,227.5527376677205,13.8813833892687,13.51985503788435,-9999,16562.53328604167,-0.142730712890625,0.297332763671875,-0.939361572265625,1,0.6
2020-05-20 01:10:26.449 -0400,1589951426.111924,41.3520267398904,-71.8449554139417,16.14001,0,227.5527376677205,12.25017310957713,11.62669128178669,-9999,16562.58317304167,-0.16094970703125,0.303741455078125,-0.8803863525390625,1,0.6
2020-05-20 01:10:26.499 -0400,1589951426.111924,41.3520267398904,-71.8449554139417,16.14001,0,227.5527376677205,12.25017310957713,11.62669128178669,-9999,16562.63305904167,-0.0779571533203125,0.3038787841796875,-1.039337158203125,1,0.6
2020-05-20 01:10:26.549 -0400,1589951426.111924,41.3520267398904,-71.8449554139417,16.14001,0,227.5527376677205,12.25017310957713,11.62669128178669,-9999,16562.68294504167,-0.097625732421875,0.50103759765625,-0.8340606689453125,1,0.6
2020-05-20 01:10:26.599 -0400,1589951426.111924,41.3520267398904,-71.8449554139417,16.14001,0,227.5527376677205,12.25017310957713,11.62669128178669,-9999,16562.73283204167,0.047821044921875,0.1408233642578125,-0.8485870361328125,1,0.6
2020-05-20 01:10:26.649 -0400,1589951426.111924,41.3520267398904,-71.8449554139417,16.14001,0,227.5527376677205,12.25017310957713,11.62669128178669,-9999,16562.78271904167,-0.0090789794921875,0.2909698486328125,-0.8186492919921875,1,0.6
2020-05-20 01:10:26.699 -0400,1589951426.111924,41.3520267398904,-71.8449554139417,16.14001,0,227.5527376677205,12.25017310957713,11.62669128178669,-9999,16562.83260604167,-0.0146331787109375,0.321746826171875,-0.8833465576171875,1,0.6
2020-05-20 01:10:26.748 -0400,1589951426.111924,41.3520267398904,-71.8449554139417,16.14001,0,227.5527376677205,12.25017310957713,11.62669128178669,-9999,16562.88249204167,-0.0701141357421875,0.339813232421875,-1.051025390625,1,0.6
2020-05-20 01:10:26.798 -0400,1589951426.111924,41.3520267398904,-71.8449554139417,16.14001,0,227.5527376677205,12.25017310957713,11.62669128178669,-9999,16562.93237604167,-0.196746826171875,0.218780517578125,-1.088821411132812,1,0.6
2020-05-20 01:10:26.848 -0400,1589951426.111924,41.3520267398904,-71.8449554139417,16.14001,0,227.5527376677205,12.25017310957713,11.62669128178669,-9999,16562.98226204167,-0.1852874755859375,0.3122711181640625,-0.9717254638671875,1,0.6
2020-05-20 01:10:26.898 -0400,1589951426.111924,41.3520267398904,-71.8449554139417,16.14001,0,227.5527376677205,12.25017310957713,11.62669128178669,-9999,16563.03214704167,-0.113800048828125,0.314483642578125,-1.038436889648438,1,0.6
2020-05-20 01:10:26.948 -0400,1589951426.111924,41.3520267398904,-71.8449554139417,16.14001,0,227.5527376677205,12.25017310957713,11.62669128178669,-9999,16563.08203504167,-0.0978240966796875,0.245330810546875,-0.935211181640625,1,0.6
2020-05-20 01:10:26.998 -0400,1589951426.111924,41.3520267398904,-71.8449554139417,16.14001,0,227.5527376677205,12.25017310957713,11.62669128178669,-9999,16563.13191904167,-0.02252197265625,0.2430419921875,-0.772003173828125,1,0.6
2020-05-20 01:10:27.048 -0400,1589951426.111924,41.3520267398904,-71.8449554139417,16.14001,0,227.5527376677205,12.25017310957713,11.62669128178669,-9999,16563.18180404167,-0.01177978515625,0.273223876953125,-1.009445190429688,1,0.6
2020-05-20 01:10:27.098 -0400,1589951426.111924,41.3520267398904,-71.8449554139417,16.14001,0,227.5527376677205,12.25017310957713,11.62669128178669,-9999,16563.231688375,-0.0464935302734375,0.525299072265625,-0.9112701416015625,1,0.6
2020-05-20 01:10:27.148 -0400,1589951426.111924,41.3520267398904,-71.8449554139417,16.14001,0,227.5527376677205,12.25017310957713,11.62669128178669,-9999,16563.281575375,-0.06915283203125,0.3788909912109375,-0.9456939697265625,1,0.6
2020-05-20 01:10:27.197 -0400,1589951426.111924,41.3520267398904,-71.8449554139417,16.14001,0,227.5527376677205,12.25017310957713,11.62669128178669,-9999,16563.331460375,-0.0537567138671875,0.2713775634765625,-1.0816650390625,1,0.6
2020-05-20 01:10:27.247 -0400,1589951426.111924,41.3520267398904,-71.8449554139417,16.14001,0,227.5527376677205,12.25017310957713,11.62669128178669,-9999,16563.381346375,-0.0672760009765625,0.358245849609375,-0.790802001953125,1,0.6
2020-05-20 01:10:27.297 -0400,1589951426.111924,41.3520267398904,-71.8449554139417,16.14001,0,227.5527376677205,12.25017310957713,11.62669128178669,-9999,16563.431231375,-0.0343475341796875,0.3017730712890625,-0.972625732421875,1,0.6
2020-05-20 01:10:27.347 -0400,1589951427.06192,41.3520324054265,-71.84493385209447,16.13576,0.4987986,81.41749004495838,12.34376633885111,11.22936381366029,-9999,16563.481117375,-0.0796966552734375,0.34130859375,-1.006027221679688,1,0.6
2020-05-20 01:10:27.397 -0400,1589951427.06192,41.3520324054265,-71.84493385209447,16.13576,0.4987986,81.41749004495838,12.34376633885111,11.22936381366029,-9999,16563.531001375,-0.1213226318359375,0.382720947265625,-1.02197265625,1,0.6
2020-05-20 01:10:27.447 -0400,1589951427.06192,41.3520324054265,-71.84493385209447,16.13576,0.4987986,81.41749004495838,12.34376633885111,11.22936381366029,-9999,16563.580887375,-0.0857696533203125,0.3032989501953125,-0.8701934814453125,1,0.6
2020-05-20 01:10:27.497 -0400,1589951427.06192,41.3520324054265,-71.84493385209447,16.13576,0.4987986,81.41749004495838,12.34376633885111,11.22936381366029,-9999,16563.630770375,-0.1126251220703125,0.328582763671875,-0.86419677734375,1,0.6
2020-05-20 01:10:27.547 -0400,1589951427.06192,41.3520324054265,-71.84493385209447,16.13576,0.4987986,81.41749004495838,12.34376633885111,11.22936381366029,-9999,16563.680654375,-0.084686279296875,0.3741455078125,-1.061691284179688,1,0.6
2020-05-20 01:10:27.597 -0400,1589951427.06192,41.3520324054265,-71.84493385209447,16.13576,0.4987986,81.41749004495838,12.34376633885111,11.22936381366029,-9999,16563.730542375,-0.1186676025390625,0.3525238037109375,-0.9282989501953125,1,0.6
2020-05-20 01:10:27.646 -0400,1589951427.06192,41.3520324054265,-71.84493385209447,16.13576,0.4987986,81.41749004495838,12.34376633885111,11.22936381366029,-9999,16563.780426375,-0.045013427734375,0.3577880859375,-1.0626220703125,1,0.6
2020-05-20 01:10:27.696 -0400,1589951427.06192,41.3520324054265,-71.84493385209447,16.13576,0.4987986,81.41749004495838,12.34376633885111,11.22936381366029,-9999,16563.830313375,-0.03826904296875,0.209197998046875,-0.8745574951171875,1,0.6
2020-05-20 01:10:27.746 -0400,1589951427.06192,41.3520324054265,-71.84493385209447,16.13576,0.4987986,81.41749004495838,12.34376633885111,11.22936381366029,-9999,16563.880198375,-0.0197296142578125,0.268157958984375,-1.114059448242188,1,0.6
2020-05-20 01:10:27.796 -0400,1589951427.06192,41.3520324054265,-71.84493385209447,16.13576,0.4987986,81.41749004495838,12.34376633885111,11.22936381366029,-9999,16563.930083375,-0.0839080810546875,0.3470458984375,-0.984100341796875,1,0.6
2020-05-20 01:10:27.846 -0400,1589951427.06192,41.3520324054265,-71.84493385209447,16.13576,0.4987986,81.41749004495838,12.34376633885111,11.22936381366029,-9999,16563.979970375,-0.056793212890625,0.1472625732421875,-0.97784423828125,1,0.6
2020-05-20 01:10:27.896 -0400,1589951427.06192,41.3520324054265,-71.84493385209447,16.13576,0.4987986,81.41749004495838,12.34376633885111,11.22936381366029,-9999,16564.029856375,-0.03814697265625,0.4937896728515625,-1.13885498046875,1,0.6
2020-05-20 01:10:27.946 -0400,1589951427.06192,41.3520324054265,-71.84493385209447,16.13576,0.4987986,81.41749004495838,12.34376633885111,11.22936381366029,-9999,16564.079741375,-0.1717071533203125,0.400726318359375,-1.16412353515625,1,0.6
2020-05-20 01:10:27.995 -0400,1589951427.06192,41.3520324054265,-71.84493385209447,16.13576,0.4987986,81.41749004495838,12.34376633885111,11.22936381366029,-9999,16564.129622375,-0.269012451171875,0.3532257080078125,-1.054473876953125,1,0.6
2020-05-20 01:10:28.046 -0400,1589951427.06192,41.3520324054265,-71.84493385209447,16.13576,0.4987986,81.41749004495838,12.34376633885111,11.22936381366029,-9999,16564.179502375,-0.2941436767578125,0.27813720703125,-0.781219482421875,1,0.6
2020-05-20 01:10:28.095 -0400,1589951427.06192,41.3520324054265,-71.84493385209447,16.13576,0.4987986,81.41749004495838,12.34376633885111,11.22936381366029,-9999,16564.22938516667,-0.2823333740234375,0.10980224609375,-0.63153076171875,1,0.6
2020-05-20 01:10:28.145 -0400,1589951427.06192,41.3520324054265,-71.84493385209447,16.13576,0.4987986,81.41749004495838,12.34376633885111,11.22936381366029,-9999,16564.27926816667,-0.2670440673828125,0.02630615234375,-0.4726715087890625,1,0.6
2020-05-20 01:10:28.195 -0400,1589951427.06192,41.3520324054265,-71.84493385209447,16.13576,0.4987986,81.41749004495838,12.34376633885111,11.22936381366029,-9999,16564.32915116667,-0.0386505126953125,0.3302459716796875,-0.846038818359375,1,0.6
2020-05-20 01:10:28.245 -0400,1589951427.06192,41.3520324054265,-71.84493385209447,16.13576,0.4987986,81.41749004495838,12.34376633885111,11.22936381366029,-9999,16564.37903716667,0.0316162109375,0.2663421630859375,-0.8685150146484375,1,0.6
2020-05-20 01:10:28.304 -0400,1589951427.06192,41.3520324054265,-71.84493385209447,16.13576,0.4987986,81.41749004495838,12.34376633885111,11.22936381366029,-9999,16564.42892416667,-0.0673065185546875,0.3890838623046875,-0.9900665283203125,1,0.6
2020-05-20 01:10:28.345 -0400,1589951428.011914,41.35203176869445,-71.8449394510568,16.13576,0,81.41748634581555,12.18599387341003,10.90758233989583,-9999,16564.47880916667,-0.0933837890625,0.3565521240234375,-0.9906005859375,1,0.6
2020-05-20 01:10:28.395 -0400,1589951428.011914,41.35203176869445,-71.8449394510568,16.13576,0,81.41748634581555,12.18599387341003,10.90758233989583,-9999,16564.52869516667,-0.0987548828125,0.3950042724609375,-1.050384521484375,1,0.6
2020-05-20 01:10:28.445 -0400,1589951428.011914,41.35203176869445,-71.8449394510568,16.13576,0,81.41748634581555,12.18599387341003,10.90758233989583,-9999,16564.57857916667,-0.1339569091796875,0.33782958984375,-0.9981689453125,1,0.6
2020-05-20 01:10:28.495 -0400,1589951428.011914,41.35203176869445,-71.8449394510568,16.13576,0,81.41748634581555,12.18599387341003,10.90758233989583,-9999,16564.62846416667,-0.142913818359375,0.3609466552734375,-1.0948486328125,1,0.6
2020-05-20 01:10:28.544 -0400,1589951428.011914,41.35203176869445,-71.8449394510568,16.13576,0,81.41748634581555,12.18599387341003,10.90758233989583,-9999,16564.67834616667,-0.11236572265625,0.2967681884765625,-0.962188720703125,1,0.6
2020-05-20 01:10:28.594 -0400,1589951428.011914,41.35203176869445,-71.8449394510568,16.13576,0,81.41748634581555,12.18599387341003,10.90758233989583,-9999,16564.72822816667,-0.088226318359375,0.294921875,-0.8347320556640625,1,0.6
2020-05-20 01:10:28.644 -0400,1589951428.011914,41.35203176869445,-71.8449394510568,16.13576,0,81.41748634581555,12.18599387341003,10.90758233989583,-9999,16564.77811416667,-0.1153564453125,0.4939422607421875,-0.9860992431640625,1,0.6
2020-05-20 01:10:28.694 -0400,1589951428.011914,41.35203176869445,-71.8449394510568,16.13576,0,81.41748634581555,12.18599387341003,10.90758233989583,-9999,16564.82799816667,-0.030975341796875,0.316619873046875,-1.008956909179688,1,0.6
2020-05-20 01:10:28.744 -0400,1589951428.011914,41.35203176869445,-71.8449394510568,16.13576,0,81.41748634581555,12.18599387341003,10.90758233989583,-9999,16564.87788316667,0.0688323974609375,0.3200225830078125,-0.94091796875,1,0.6
2020-05-20 01:10:28.794 -0400,1589951428.011914,41.35203176869445,-71.8449394510568,16.13576,0,81.41748634581555,12.18599387341003,10.90758233989583,-9999,16564.92777116667,-0.023590087890625,0.3300933837890625,-0.9774017333984375,1,0.6
2020-05-20 01:10:28.844 -0400,1589951428.011914,41.35203176869445,-71.8449394510568,16.13576,0,81.41748634581555,12.18599387341003,10.90758233989583,-9999,16564.97765816667,-0.04742431640625,0.3693389892578125,-0.9336395263671875,1,0.6
2020-05-20 01:10:28.894 -0400,1589951428.011914,41.35203176869445,-71.8449394510568,16.13576,0,81.41748634581555,12.18599387341003,10.90758233989583,-9999,16565.02754316667,-0.015167236328125,0.32421875,-0.9398956298828125,1,0.6
2020-05-20 01:10:28.944 -0400,1589951428.011914,41.35203176869445,-71.8449394510568,16.13576,0,81.41748634581555,12.18599387341003,10.90758233989583,-9999,16565.07742816667,0.01025390625,0.3386688232421875,-0.9554595947265625,1,0.6
2020-05-20 01:10:28.993 -0400,1589951428.011914,41.35203176869445,-71.8449394510568,16.13576,0,81.41748634581555,12.18599387341003,10.90758233989583,-9999,16565.12731216667,-0.0204620361328125,0.3426055908203125,-0.9441986083984375,1,0.6
2020-05-20 01:10:29.043 -0400,1589951428.011914,41.35203176869445,-71.8449394510568,16.13576,0,81.41748634581555,12.18599387341003,10.90758233989583,-9999,16565.17719616667,-0.0128936767578125,0.355010986328125,-0.943695068359375,1,0.6
2020-05-20 01:10:29.093 -0400,1589951428.011914,41.35203176869445,-71.8449394510568,16.13576,0,81.41748634581555,12.18599387341003,10.90758233989583,-9999,16565.227079125,-0.0105133056640625,0.3586273193359375,-0.9249267578125,1,0.6
2020-05-20 01:10:29.143 -0400,1589951428.011914,41.35203176869445,-71.8449394510568,16.13576,0,81.41748634581555,12.18599387341003,10.90758233989583,-9999,16565.276962125,-0.0055694580078125,0.3620147705078125,-0.9378814697265625,1,0.6
2020-05-20 01:10:29.193 -0400,1589951428.011914,41.35203176869445,-71.8449394510568,16.13576,0,81.41748634581555,12.18599387341003,10.90758233989583,-9999,16565.326845125,0.01593017578125,0.3416748046875,-0.928131103515625,1,0.6
2020-05-20 01:10:29.243 -0400,1589951428.99991,41.35203176869445,-71.8449394510568,16.13576,0,81.41748634581555,12.01259233964678,10.65716904334905,-9999,16565.376727125,-0.0007476806640625,0.35638427734375,-0.9334564208984375,1,0.6
2020-05-20 01:10:29.293 -0400,1589951428.99991,41.35203176869445,-71.8449394510568,16.13576,0,81.41748634581555,12.01259233964678,10.65716904334905,-9999,16565.426612125,0.00701904296875,0.3509063720703125,-0.9408416748046875,1,0.6
2020-05-20 01:10:29.342 -0400,1589951428.99991,41.35203176869445,-71.8449394510568,16.13576,0,81.41748634581555,12.01259233964678,10.65716904334905,-9999,16565.476496125,0.0219268798828125,0.3598785400390625,-0.9447784423828125,1,0.6
2020-05-20 01:10:29.392 -0400,1589951428.99991,41.35203176869445,-71.8449394510568,16.13576,0,81.41748634581555,12.01259233964678,10.65716904334905,-9999,16565.526377125,0.010101318359375,0.330596923828125,-0.9039764404296875,1,0.6
2020-05-20 01:10:29.442 -0400,1589951428.99991,41.35203176869445,-71.8449394510568,16.13576,0,81.41748634581555,12.01259233964678,10.65716904334905,-9999,16565.576259125,0.0059051513671875,0.3453826904296875,-0.931915283203125,1,0.6
2020-05-20 01:10:29.492 -0400,1589951428.99991,41.35203176869445,-71.8449394510568,16.13576,0,81.41748634581555,12.01259233964678,10.65716904334905,-9999,16565.626141125,-0.0398712158203125,0.3802337646484375,-0.9525299072265625,1,0.6
2020-05-20 01:10:29.542 -0400,1589951428.99991,41.35203176869445,-71.8449394510568,16.13576,0,81.41748634581555,12.01259233964678,10.65716904334905,-9999,16565.676024125,-0.020050048828125,0.3825225830078125,-0.92578125,1,0.6
2020-05-20 01:10:29.592 -0400,1589951428.99991,41.35203176869445,-71.8449394510568,16.13576,0,81.41748634581555,12.01259233964678,10.65716904334905,-9999,16565.725908125,0.0441131591796875,0.3592071533203125,-0.946533203125,1,0.6
2020-05-20 01:10:29.645 -0400,1589951428.99991,41.35203176869445,-71.8449394510568,16.13576,0,81.41748634581555,12.01259233964678,10.65716904334905,-9999,16565.775794125,-0.0196380615234375,0.3613433837890625,-0.931976318359375,1,0.6
2020-05-20 01:10:29.692 -0400,1589951428.99991,41.35203176869445,-71.8449394510568,16.13576,0,81.41748634581555,12.01259233964678,10.65716904334905,-9999,16565.825682125,-0.0053253173828125,0.3529205322265625,-0.9599761962890625,1,0.6
2020-05-20 01:10:29.742 -0400,1589951428.99991,41.35203176869445,-71.8449394510568,16.13576,0,81.41748634581555,12.01259233964678,10.65716904334905,-9999,16565.875569125,-0.0086822509765625,0.3375396728515625,-0.9526824951171875,1,0.6
2020-05-20 01:10:29.792 -0400,1589951428.99991,41.35203176869445,-71.8449394510568,16.13576,0,81.41748634581555,12.01259233964678,10.65716904334905,-9999,16565.925459125,0.0316619873046875,0.34344482421875,-0.945281982421875,1,0.6
2020-05-20 01:10:29.842 -0400,1589951428.99991,41.35203176869445,-71.8449394510568,16.13576,0,81.41748634581555,12.01259233964678,10.65716904334905,-9999,16565.975346125,0.0272674560546875,0.3388214111328125,-0.927337646484375,1,0.6
2020-05-20 01:10:29.891 -0400,1589951428.99991,41.35203176869445,-71.8449394510568,16.13576,0,81.41748634581555,12.01259233964678,10.65716904334905,-9999,16566.025232125,0.007476806640625,0.340057373046875,-0.9357452392578125,1,0.6
2020-05-20 01:10:29.941 -0400,1589951428.99991,41.35203176869445,-71.8449394510568,16.13576,0,81.41748634581555,12.01259233964678,10.65716904334905,-9999,16566.075120125,-0.029205322265625,0.3789825439453125,-0.9611053466796875,1,0.6
2020-05-20 01:10:29.991 -0400,1589951428.99991,41.35203176869445,-71.8449394510568,16.13576,0,81.41748634581555,12.01259233964678,10.65716904334905,-9999,16566.125007125,-0.00311279296875,0.3358154296875,-0.9291229248046875,1,0.6
2020-05-20 01:10:30.041 -0400,1589951428.99991,41.35203176869445,-71.8449394510568,16.13576,0,81.41748634581555,12.01259233964678,10.65716904334905,-9999,16566.174889125,0.0269317626953125,0.31719970703125,-0.9540252685546875,1,0.6
2020-05-20 01:10:30.091 -0400,1589951428.99991,41.35203176869445,-71.8449394510568,16.13576,0,81.41748634581555,12.01259233964678,10.65716904334905,-9999,16566.22477579167,0.0282745361328125,0.3247528076171875,-0.9530181884765625,1,0.6
2020-05-20 01:10:30.141 -0400,1589951428.99991,41.35203176869445,-71.8449394510568,16.13576,0,81.41748634581555,12.01259233964678,10.65716904334905,-9999,16566.27466179167,0.0260467529296875,0.3305206298828125,-0.9383392333984375,1,0.6
2020-05-20 01:10:30.191 -0400,1589951428.99991,41.35203176869445,-71.8449394510568,16.13576,0,81.41748634581555,12.01259233964678,10.65716904334905,-9999,16566.32454679167,0.020416259765625,0.3358612060546875,-0.9492950439453125,1,0.6
2020-05-20 01:10:30.240 -0400,1589951429.999897,41.35203760397901,-71.84494646927929,16.13794,0.3602253,17.95696990310598,12.01128536922844,10.51627689155446,-9999,16566.37442879167,0.0223388671875,0.328460693359375,-0.941986083984375,1,0.6
2020-05-20 01:10:30.290 -0400,1589951429.999897,41.35203760397901,-71.84494646927929,16.13794,0.3602253,17.95696990310598,12.01128536922844,10.51627689155446,-9999,16566.42431179167,0.0278167724609375,0.3408050537109375,-0.939483642578125,1,0.6
2020-05-20 01:10:30.340 -0400,1589951429.999897,41.35203760397901,-71.84494646927929,16.13794,0.3602253,17.95696990310598,12.01128536922844,10.51627689155446,-9999,16566.47419379167,0.02703857421875,0.3438720703125,-0.9464111328125,1,0.6
2020-05-20 01:10:30.390 -0400,1589951429.999897,41.35203760397901,-71.84494646927929,16.13794,0.3602253,17.95696990310598,12.01128536922844,10.51627689155446,-9999,16566.52407479167,0.0251312255859375,0.3299713134765625,-0.9469757080078125,1,0.6
2020-05-20 01:10:30.440 -0400,1589951429.999897,41.35203760397901,-71.84494646927929,16.13794,0.3602253,17.95696990310598,12.01128536922844,10.51627689155446,-9999,16566.57395679167,0.023590087890625,0.3405609130859375,-0.949310302734375,1,0.6
2020-05-20 01:10:30.490 -0400,1589951429.999897,41.35203760397901,-71.84494646927929,16.13794,0.3602253,17.95696990310598,12.01128536922844,10.51627689155446,-9999,16566.62383579167,0.0247802734375,0.3413238525390625,-0.9444427490234375,1,0.6
2020-05-20 01:10:30.540 -0400,1589951429.999897,41.35203760397901,-71.84494646927929,16.13794,0.3602253,17.95696990310598,12.01128536922844,10.51627689155446,-9999,16566.67372079167,0.0261077880859375,0.3379974365234375,-0.9339141845703125,1,0.6
2020-05-20 01:10:30.590 -0400,1589951429.999897,41.35203760397901,-71.84494646927929,16.13794,0.3602253,17.95696990310598,12.01128536922844,10.51627689155446,-9999,16566.72360279167,0.0283355712890625,0.34423828125,-0.939300537109375,1,0.6
2020-05-20 01:10:30.640 -0400,1589951429.999897,41.35203760397901,-71.84494646927929,16.13794,0.3602253,17.95696990310598,12.01128536922844,10.51627689155446,-9999,16566.77348479167,0.0304107666015625,0.3541717529296875,-0.93353271484375,1,0.6
2020-05-20 01:10:30.689 -0400,1589951429.999897,41.35203760397901,-71.84494646927929,16.13794,0.3602253,17.95696990310598,12.01128536922844,10.51627689155446,-9999,16566.82336879167,0.0320281982421875,0.363922119140625,-0.9365997314453125,1,0.6
2020-05-20 01:10:30.739 -0400,1589951429.999897,41.35203760397901,-71.84494646927929,16.13794,0.3602253,17.95696990310598,12.01128536922844,10.51627689155446,-9999,16566.87325179167,0.026519775390625,0.34967041015625,-0.9339447021484375,1,0.6
2020-05-20 01:10:30.789 -0400,1589951429.999897,41.35203760397901,-71.84494646927929,16.13794,0.3602253,17.95696990310598,12.01128536922844,10.51627689155446,-9999,16566.92313379167,0.02667236328125,0.360137939453125,-0.9338836669921875,1,0.6
2020-05-20 01:10:30.839 -0400,1589951429.999897,41.35203760397901,-71.84494646927929,16.13794,0.3602253,17.95696990310598,12.01128536922844,10.51627689155446,-9999,16566.97301479167,0.0293731689453125,0.36199951171875,-0.9320526123046875,1,0.6
2020-05-20 01:10:30.889 -0400,1589951429.999897,41.35203760397901,-71.84494646927929,16.13794,0.3602253,17.95696990310598,12.01128536922844,10.51627689155446,-9999,16567.02289479167,0.028778076171875,0.3580474853515625,-0.9324798583984375,1,0.6
2020-05-20 01:10:30.939 -0400,1589951429.999897,41.35203760397901,-71.84494646927929,16.13794,0.3602253,17.95696990310598,12.01128536922844,10.51627689155446,-9999,16567.07277679167,0.03070068359375,0.3607635498046875,-0.9369964599609375,1,0.6
2020-05-20 01:10:30.989 -0400,1589951429.999897,41.35203760397901,-71.84494646927929,16.13794,0.3602253,17.95696990310598,12.01128536922844,10.51627689155446,-9999,16567.12265779167,0.0300445556640625,0.364410400390625,-0.932647705078125,1,0.6
2020-05-20 01:10:31.039 -0400,1589951429.999897,41.35203760397901,-71.84494646927929,16.13794,0.3602253,17.95696990310598,12.01128536922844,10.51627689155446,-9999,16567.17253979167,0.0292205810546875,0.3683929443359375,-0.92919921875,1,0.6
2020-05-20 01:10:31.089 -0400,1589951429.999897,41.35203760397901,-71.84494646927929,16.13794,0.3602253,17.95696990310598,12.01128536922844,10.51627689155446,-9999,16567.22242241667,0.03302001953125,0.3563385009765625,-0.929901123046875,1,0.6
2020-05-20 01:10:31.138 -0400,1589951429.999897,41.35203760397901,-71.84494646927929,16.13794,0.3602253,17.95696990310598,12.01128536922844,10.51627689155446,-9999,16567.27230641667,0.0301666259765625,0.365875244140625,-0.931671142578125,1,0.6
2020-05-20 01:10:31.188 -0400,1589951429.999897,41.35203760397901,-71.84494646927929,16.13794,0.3602253,17.95696990310598,12.01128536922844,10.51627689155446,-9999,16567.32218841667,0.0297088623046875,0.3684234619140625,-0.9342498779296875,1,0.6
2020-05-20 01:10:31.238 -0400,1589951429.999897,41.35203760397901,-71.84494646927929,16.13794,0.3602253,17.95696990310598,12.01128536922844,10.51627689155446,-9999,16567.37207341667,0.0330352783203125,0.368743896484375,-0.935577392578125,1,0.6
2020-05-20 01:10:31.288 -0400,1589951429.999897,41.35203760397901,-71.84494646927929,16.13794,0.3602253,17.95696990310598,12.01128536922844,10.51627689155446,-9999,16567.42195941667,0.029388427734375,0.3651885986328125,-0.9320526123046875,1,0.6
2020-05-20 01:10:31.338 -0400,1589951430.999894,41.35203451847924,-71.84494779636378,16.13794,0,17.95696902632289,11.98390374321619,10.24965625457574,-9999,16567.47184541667,0.02557373046875,0.3652191162109375,-0.933563232421875,1,0.6
2020-05-20 01:10:31.388 -0400,1589951430.999894,41.35203451847924,-71.84494779636378,16.13794,0,17.95696902632289,11.98390374321619,10.24965625457574,-9999,16567.52173241667,0.0276641845703125,0.3636627197265625,-0.9303436279296875,1,0.6
2020-05-20 01:10:31.438 -0400,1589951430.999894,41.35203451847924,-71.84494779636378,16.13794,0,17.95696902632289,11.98390374321619,10.24965625457574,-9999,16567.57161841667,0.022552490234375,0.3645477294921875,-0.9313812255859375,1,0.6
2020-05-20 01:10:31.487 -0400,1589951430.999894,41.35203451847924,-71.84494779636378,16.13794,0,17.95696902632289,11.98390374321619,10.24965625457574,-9999,16567.62150141667,0.0254669189453125,0.3639373779296875,-0.933258056640625,1,0.6
2020-05-20 01:10:31.537 -0400,1589951430.999894,41.35203451847924,-71.84494779636378,16.13794,0,17.95696902632289,11.98390374321619,10.24965625457574,-9999,16567.67138641667,0.0232086181640625,0.3637542724609375,-0.93072509765625,1,0.6
2020-05-20 01:10:31.587 -0400,1589951430.999894,41.35203451847924,-71.84494779636378,16.13794,0,17.95696902632289,11.98390374321619,10.24965625457574,-9999,16567.72127041667,0.0302734375,0.3835906982421875,-0.943206787109375,1,0.6
2020-05-20 01:10:31.637 -0400,1589951430.999894,41.35203451847924,-71.84494779636378,16.13794,0,17.95696902632289,11.98390374321619,10.24965625457574,-9999,16567.77115341667,0.032379150390625,0.3706207275390625,-0.932708740234375,1,0.6
2020-05-20 01:10:31.687 -0400,1589951430.999894,41.35203451847924,-71.84494779636378,16.13794,0,17.95696902632289,11.98390374321619,10.24965625457574,-9999,16567.82103741667,0.0260009765625,0.372467041015625,-0.9324493408203125,1,0.6
2020-05-20 01:10:31.737 -0400,1589951430.999894,41.35203451847924,-71.84494779636378,16.13794,0,17.95696902632289,11.98390374321619,10.24965625457574,-9999,16567.87092141667,0.0284423828125,0.3675384521484375,-0.9317474365234375,1,0.6
2020-05-20 01:10:31.787 -0400,1589951430.999894,41.35203451847924,-71.84494779636378,16.13794,0,17.95696902632289,11.98390374321619,10.24965625457574,-9999,16567.92080341667,0.0294189453125,0.354400634765625,-0.93603515625,1,0.6
2020-05-20 01:10:31.837 -0400,1589951430.999894,41.35203451847924,-71.84494779636378,16.13794,0,17.95696902632289,11.98390374321619,10.24965625457574,-9999,16567.97068541667,0.0256195068359375,0.3634033203125,-0.9345703125,1,0.6
2020-05-20 01:10:31.887 -0400,1589951430.999894,41.35203451847924,-71.84494779636378,16.13794,0,17.95696902632289,11.98390374321619,10.24965625457574,-9999,16568.02056941667,0.031768798828125,0.3623809814453125,-0.9356536865234375,1,0.6
2020-05-20 01:10:31.937 -0400,1589951430.999894,41.35203451847924,-71.84494779636378,16.13794,0,17.95696902632289,11.98390374321619,10.24965625457574,-9999,16568.07045641667,0.0304107666015625,0.35955810546875,-0.9389495849609375,1,0.6
2020-05-20 01:10:31.986 -0400,1589951430.999894,41.35203451847924,-71.84494779636378,16.13794,0,17.95696902632289,11.98390374321619,10.24965625457574,-9999,16568.12033941667,0.0315704345703125,0.3679351806640625,-0.9260101318359375,1,0.6
2020-05-20 01:10:32.036 -0400,1589951430.999894,41.35203451847924,-71.84494779636378,16.13794,0,17.95696902632289,11.98390374321619,10.24965625457574,-9999,16568.17022541667,0.025970458984375,0.36248779296875,-0.92852783203125,1,0.6
2020-05-20 01:10:32.086 -0400,1589951430.999894,41.35203451847924,-71.84494779636378,16.13794,0,17.95696902632289,11.98390374321619,10.24965625457574,-9999,16568.220111625,0.0341949462890625,0.3619842529296875,-0.931304931640625,1,0.6
2020-05-20 01:10:32.137 -0400,1589951430.999894,41.35203451847924,-71.84494779636378,16.13794,0,17.95696902632289,11.98390374321619,10.24965625457574,-9999,16568.269995625,0.035247802734375,0.36822509765625,-0.9328155517578125,1,0.6
2020-05-20 01:10:32.186 -0400,1589951430.999894,41.35203451847924,-71.84494779636378,16.13794,0,17.95696902632289,11.98390374321619,10.24965625457574,-9999,16568.319882625,0.0291290283203125,0.3642425537109375,-0.9327239990234375,1,0.6
2020-05-20 01:10:32.236 -0400,1589951431.999886,41.35203451847924,-71.84494779636378,16.13794,0,17.95696902632289,13.44887711095533,11.21967064150999,-9999,16568.369766625,0.0260162353515625,0.358428955078125,-0.932769775390625,1,0.6
2020-05-20 01:10:32.286 -0400,1589951431.999886,41.35203451847924,-71.84494779636378,16.13794,0,17.95696902632289,13.44887711095533,11.21967064150999,-9999,16568.419650625,0.0319671630859375,0.36419677734375,-0.93450927734375,1,0.6
2020-05-20 01:10:32.335 -0400,1589951431.999886,41.35203451847924,-71.84494779636378,16.13794,0,17.95696902632289,13.44887711095533,11.21967064150999,-9999,16568.469533625,0.0278167724609375,0.363250732421875,-0.9374847412109375,1,0.6
2020-05-20 01:10:32.385 -0400,1589951431.999886,41.35203451847924,-71.84494779636378,16.13794,0,17.95696902632289,13.44887711095533,11.21967064150999,-9999,16568.519414625,0.0324554443359375,0.3622283935546875,-0.9297332763671875,1,0.6
2020-05-20 01:10:32.435 -0400,1589951431.999886,41.35203451847924,-71.84494779636378,16.13794,0,17.95696902632289,13.44887711095533,11.21967064150999,-9999,16568.569293625,0.02783203125,0.36395263671875,-0.92877197265625,1,0.6
2020-05-20 01:10:32.485 -0400,1589951431.999886,41.35203451847924,-71.84494779636378,16.13794,0,17.95696902632289,13.44887711095533,11.21967064150999,-9999,16568.619173625,0.0302886962890625,0.3651123046875,-0.933929443359375,1,0.6
2020-05-20 01:10:32.535 -0400,1589951431.999886,41.35203451847924,-71.84494779636378,16.13794,0,17.95696902632289,13.44887711095533,11.21967064150999,-9999,16568.669054625,0.0298309326171875,0.35955810546875,-0.9313812255859375,1,0.6
2020-05-20 01:10:32.585 -0400,1589951431.999886,41.35203451847924,-71.84494779636378,16.13794,0,17.95696902632289,13.44887711095533,11.21967064150999,-9999,16568.718937625,0.023162841796875,0.3711700439453125,-0.930145263671875,1,0.6
2020-05-20 01:10:32.635 -0400,1589951431.999886,41.35203451847924,-71.84494779636378,16.13794,0,17.95696902632289,13.44887711095533,11.21967064150999,-9999,16568.768822625,0.027740478515625,0.3641815185546875,-0.9269866943359375,1,0.6
2020-05-20 01:10:32.685 -0400,1589951431.999886,41.35203451847924,-71.84494779636378,16.13794,0,17.95696902632289,13.44887711095533,11.21967064150999,-9999,16568.818708625,0.0291595458984375,0.36566162109375,-0.9322662353515625,1,0.6
2020-05-20 01:10:32.735 -0400,1589951431.999886,41.35203451847924,-71.84494779636378,16.13794,0,17.95696902632289,13.44887711095533,11.21967064150999,-9999,16568.868593625,0.0256500244140625,0.3691253662109375,-0.9278411865234375,1,0.6
2020-05-20 01:10:32.784 -0400,1589951431.999886,41.35203451847924,-71.84494779636378,16.13794,0,17.95696902632289,13.44887711095533,11.21967064150999,-9999,16568.918475625,0.02850341796875,0.371490478515625,-0.9294281005859375,1,0.6
2020-05-20 01:10:32.835 -0400,1589951431.999886,41.35203451847924,-71.84494779636378,16.13794,0,17.95696902632289,13.44887711095533,11.21967064150999,-9999,16568.968360625,0.029205322265625,0.367523193359375,-0.9299468994140625,1,0.6
2020-05-20 01:10:32.884 -0400,1589951431.999886,41.35203451847924,-71.84494779636378,16.13794,0,17.95696902632289,13.44887711095533,11.21967064150999,-9999,16569.018244625,0.030792236328125,0.3729248046875,-0.9315643310546875,1,0.6
2020-05-20 01:10:32.934 -0400,1589951431.999886,41.35203451847924,-71.84494779636378,16.13794,0,17.95696902632289,13.44887711095533,11.21967064150999,-9999,16569.068126625,0.0254364013671875,0.374755859375,-0.9290008544921875,1,0.6
2020-05-20 01:10:32.984 -0400,1589951431.999886,41.35203451847924,-71.84494779636378,16.13794,0,17.95696902632289,13.44887711095533,11.21967064150999,-9999,16569.118009625,0.0296173095703125,0.369354248046875,-0.9301605224609375,1,0.6
2020-05-20 01:10:33.034 -0400,1589951431.999886,41.35203451847924,-71.84494779636378,16.13794,0,17.95696902632289,13.44887711095533,11.21967064150999,-9999,16569.167892625,0.025634765625,0.374664306640625,-0.93292236328125,1,0.6
2020-05-20 01:10:33.084 -0400,1589951431.999886,41.35203451847924,-71.84494779636378,16.13794,0,17.95696902632289,13.44887711095533,11.21967064150999,-9999,16569.217777125,0.027801513671875,0.377899169921875,-0.929412841796875,1,0.6
2020-05-20 01:10:33.134 -0400,1589951431.999886,41.35203451847924,-71.84494779636378,16.13794,0,17.95696902632289,13.44887711095533,11.21967064150999,-9999,16569.267661125,0.0317535400390625,0.3748626708984375,-0.9259033203125,1,0.6
2020-05-20 01:10:33.184 -0400,1589951431.999886,41.35203451847924,-71.84494779636378,16.13794,0,17.95696902632289,13.44887711095533,11.21967064150999,-9999,16569.317545125,0.0289306640625,0.3736114501953125,-0.9268341064453125,1,0.6
2020-05-20 01:10:33.233 -0400,1589951431.999886,41.35203451847924,-71.84494779636378,16.13794,0,17.95696902632289,13.44887711095533,11.21967064150999,-9999,16569.367432125,0.029937744140625,0.378387451171875,-0.9323272705078125,1,0.6
2020-05-20 01:10:33.283 -0400,1589951431.999886,41.35203451847924,-71.84494779636378,16.13794,0,17.95696902632289,13.44887711095533,11.21967064150999,-9999,16569.417317125,0.02813720703125,0.3719635009765625,-0.925872802734375,1,0.6
2020-05-20 01:10:33.344 -0400,1589951431.999886,41.35203451847924,-71.84494779636378,16.13794,0,17.95696902632289,13.44887711095533,11.21967064150999,-9999,16569.467203125,0.030487060546875,0.380279541015625,-0.9312896728515625,1,0.6
2020-05-20 01:10:33.383 -0400,1589951432.99989,41.35203451847924,-71.84494779636378,16.13794,0,17.95696902632289,14.48375448926284,11.51960514030744,-9999,16569.517089125,0.0322113037109375,0.3782958984375,-0.9271392822265625,1,0.6
2020-05-20 01:10:33.433 -0400,1589951432.99989,41.35203451847924,-71.84494779636378,16.13794,0,17.95696902632289,14.48375448926284,11.51960514030744,-9999,16569.566980125,0.028472900390625,0.3762969970703125,-0.9265594482421875,1,0.6
2020-05-20 01:10:33.483 -0400,1589951432.99989,41.35203451847924,-71.84494779636378,16.13794,0,17.95696902632289,14.48375448926284,11.51960514030744,-9999,16569.616867125,0.0317230224609375,0.378387451171875,-0.9254913330078125,1,0.6
2020-05-20 01:10:33.533 -0400,1589951432.99989,41.35203451847924,-71.84494779636378,16.13794,0,17.95696902632289,14.48375448926284,11.51960514030744,-9999,16569.666755125,0.0288848876953125,0.3707275390625,-0.924407958984375,1,0.6
2020-05-20 01:10:33.583 -0400,1589951432.99989,41.35203451847924,-71.84494779636378,16.13794,0,17.95696902632289,14.48375448926284,11.51960514030744,-9999,16569.716643125,0.03167724609375,0.376190185546875,-0.922882080078125,1,0.6
2020-05-20 01:10:33.633 -0400,1589951432.99989,41.35203451847924,-71.84494779636378,16.13794,0,17.95696902632289,14.48375448926284,11.51960514030744,-9999,16569.766530125,0.0317230224609375,0.3784332275390625,-0.9298553466796875,1,0.6
2020-05-20 01:10:33.682 -0400,1589951432.99989,41.35203451847924,-71.84494779636378,16.13794,0,17.95696902632289,14.48375448926284,11.51960514030744,-9999,16569.816418125,0.03021240234375,0.3774566650390625,-0.9308013916015625,1,0.6
2020-05-20 01:10:33.732 -0400,1589951432.99989,41.35203451847924,-71.84494779636378,16.13794,0,17.95696902632289,14.48375448926284,11.51960514030744,-9999,16569.866303125,0.0265655517578125,0.3792572021484375,-0.9281005859375,1,0.6
