loggingTime(txt),locationTimestamp_since1970(s),locationLatitude(WGS84),locationLongitude(WGS84),locationAltitude(m),locationSpeed(m/s),locationCourse(°),locationVerticalAccuracy(m),locationHorizontalAccuracy(m),locationFloor(Z),accelerometerTimestamp_sinceReboot(s),accelerometerAccelerationX(G),accelerometerAccelerationY(G),accelerometerAccelerationZ(G),batteryState,batteryLevel
2020-05-19 20:12:04.142 -0400,1589933523.606939,41.35204220017491,-71.84496818632941,16.14687,0.1229143,150.5667392629605,11.44082112841996,13.26157937480495,-9999,11705.1509555,-0.073638916015625,-0.14459228515625,-0.9915313720703125,1,0.76
2020-05-19 20:12:04.186 -0400,1589933523.606939,41.35204220017491,-71.84496818632941,16.14687,0.1229143,150.5667392629605,11.44082112841996,13.26157937480495,-9999,11705.2008375,-0.0947265625,-0.1366424560546875,-0.98333740234375,1,0.76
2020-05-19 20:12:04.236 -0400,1589933523.606939,41.35204220017491,-71.84496818632941,16.14687,0.1229143,150.5667392629605,11.44082112841996,13.26157937480495,-9999,11705.2507185,-0.080718994140625,-0.1280975341796875,-0.9927825927734375,1,0.76
2020-05-19 20:12:04.285 -0400,1589933523.606939,41.35204220017491,-71.84496818632941,16.14687,0.1229143,150.5667392629605,11.44082112841996,13.26157937480495,-9999,11705.3005965,-0.0772705078125,-0.1193084716796875,-0.9870758056640625,1,0.76
2020-05-19 20:12:04.336 -0400,1589933523.606939,41.35204220017491,-71.84496818632941,16.14687,0.1229143,150.5667392629605,11.44082112841996,13.26157937480495,-9999,11705.3504735,-0.0628814697265625,-0.111785888671875,-0.989776611328125,1,0.76
2020-05-19 20:12:04.386 -0400,1589933523.606939,41.35204220017491,-71.84496818632941,16.14687,0.1229143,150.5667392629605,11.44082112841996,13.26157937480495,-9999,11705.4003505,-0.038116455078125,-0.09820556640625,-0.9834747314453125,1,0.76
2020-05-19 20:12:04.435 -0400,1589933523.606939,41.35204220017491,-71.84496818632941,16.14687,0.1229143,150.5667392629605,11.44082112841996,13.26157937480495,-9999,11705.4502265,-0.010284423828125,-0.1235809326171875,-0.9357147216796875,1,0.76
2020-05-19 20:12:04.485 -0400,1589933523.606939,41.35204220017491,-71.84496818632941,16.14687,0.1229143,150.5667392629605,11.44082112841996,13.26157937480495,-9999,11705.5001045,-0.0350799560546875,-0.1586456298828125,-0.933929443359375,1,0.76
2020-05-19 20:12:04.535 -0400,1589933523.606939,41.35204220017491,-71.84496818632941,16.14687,0.1229143,150.5667392629605,11.44082112841996,13.26157937480495,-9999,11705.5499855,-0.069854736328125,-0.1482391357421875,-0.988922119140625,1,0.76
2020-05-19 20:12:04.585 -0400,1589933523.606939,41.35204220017491,-71.84496818632941,16.14687,0.1229143,150.5667392629605,11.44082112841996,13.26157937480495,-9999,11705.5998625,-0.06158447265625,-0.0909271240234375,-1.078033447265625,1,0.76
2020-05-19 20:12:04.635 -0400,1589933523.606939,41.35204220017491,-71.84496818632941,16.14687,0.1229143,150.5667392629605,11.44082112841996,13.26157937480495,-9999,11705.6497405,-0.1275787353515625,0.04071044921875,-1.097381591796875,1,0.76
2020-05-19 20:12:04.685 -0400,1589933523.606939,41.35204220017491,-71.84496818632941,16.14687,0.1229143,150.5667392629605,11.44082112841996,13.26157937480495,-9999,11705.6996215,-0.2264862060546875,0.1114959716796875,-1.05413818359375,1,0.76
2020-05-19 20:12:04.735 -0400,1589933523.606939,41.35204220017491,-71.84496818632941,16.14687,0.1229143,150.5667392629605,11.44082112841996,13.26157937480495,-9999,11705.7495015,-0.184478759765625,0.1507720947265625,-0.9607086181640625,1,0.76
2020-05-19 20:12:04.785 -0400,1589933523.606939,41.35204220017491,-71.84496818632941,16.14687,0.1229143,150.5667392629605,11.44082112841996,13.26157937480495,-9999,11705.7993815,-0.1611175537109375,0.0840606689453125,-0.85040283203125,1,0.76
2020-05-19 20:12:04.839 -0400,1589933524.555205,41.35205384411022,-71.84497656935463,15.95148,0.1312151,202.6298098488346,10.27785836852762,11.39094277877767,-9999,11705.84926066667,-0.0827178955078125,0.2180938720703125,-0.8826141357421875,1,0.76
2020-05-19 20:12:04.884 -0400,1589933524.555205,41.35205384411022,-71.84497656935463,15.95148,0.1312151,202.6298098488346,10.27785836852762,11.39094277877767,-9999,11705.89914166667,-0.0923614501953125,0.27178955078125,-1.002685546875,1,0.76
2020-05-19 20:12:04.934 -0400,1589933524.555205,41.35205384411022,-71.84497656935463,15.95148,0.1312151,202.6298098488346,10.27785836852762,11.39094277877767,-9999,11705.94902466667,-0.2036285400390625,0.4170379638671875,-1.067703247070312,1,0.76
2020-05-19 20:12:04.984 -0400,1589933524.555205,41.35205384411022,-71.84497656935463,15.95148,0.1312151,202.6298098488346,10.27785836852762,11.39094277877767,-9999,11705.99890366667,-0.1357879638671875,0.2415618896484375,-1.0091552734375,1,0.76
2020-05-19 20:12:05.034 -0400,1589933524.555205,41.35205384411022,-71.84497656935463,15.95148,0.1312151,202.6298098488346,10.27785836852762,11.39094277877767,-9999,11706.04878566667,-0.077301025390625,0.198638916015625,-0.9553985595703125,1,0.76
2020-05-19 20:12:05.084 -0400,1589933524.555205,41.35205384411022,-71.84497656935463,15.95148,0.1312151,202.6298098488346,10.27785836852762,11.39094277877767,-9999,11706.09866766667,-0.017730712890625,0.1634368896484375,-0.9565582275390625,1,0.76
2020-05-19 20:12:05.134 -0400,1589933524.555205,41.35205384411022,-71.84497656935463,15.95148,0.1312151,202.6298098488346,10.27785836852762,11.39094277877767,-9999,11706.14854866667,-0.01153564453125,0.179962158203125,-0.95062255859375,1,0.76
2020-05-19 20:12:05.184 -0400,1589933524.555205,41.35205384411022,-71.84497656935463,15.95148,0.1312151,202.6298098488346,10.27785836852762,11.39094277877767,-9999,11706.19842966667,-0.0283203125,0.21197509765625,-0.9076385498046875,1,0.76
2020-05-19 20:12:05.233 -0400,1589933524.555205,41.35205384411022,-71.84497656935463,15.95148,0.1312151,202.6298098488346,10.27785836852762,11.39094277877767,-9999,11706.24830966667,-0.166534423828125,0.288330078125,-0.9462432861328125,1,0.76
2020-05-19 20:12:05.283 -0400,1589933524.555205,41.35205384411022,-71.84497656935463,15.95148,0.1312151,202.6298098488346,10.27785836852762,11.39094277877767,-9999,11706.29818666667,-0.0712738037109375,0.175262451171875,-1.041961669921875,1,0.76
2020-05-19 20:12:05.337 -0400,1589933524.555205,41.35205384411022,-71.84497656935463,15.95148,0.1312151,202.6298098488346,10.27785836852762,11.39094277877767,-9999,11706.34806366667,-0.044342041015625,0.15533447265625,-1.006271362304688,1,0.76
2020-05-19 20:12:05.383 -0400,1589933524.555205,41.35205384411022,-71.84497656935463,15.95148,0.1312151,202.6298098488346,10.27785836852762,11.39094277877767,-9999,11706.39794166667,-0.0250396728515625,0.1607513427734375,-0.99078369140625,1,0.76
2020-05-19 20:12:05.433 -0400,1589933524.555205,41.35205384411022,-71.84497656935463,15.95148,0.1312151,202.6298098488346,10.27785836852762,11.39094277877767,-9999,11706.44782266667,-0.0229339599609375,0.227325439453125,-0.93853759765625,1,0.76
2020-05-19 20:12:05.483 -0400,1589933524.555205,41.35205384411022,-71.84497656935463,15.95148,0.1312151,202.6298098488346,10.27785836852762,11.39094277877767,-9999,11706.49770466667,-0.1066436767578125,0.220458984375,-0.966583251953125,1,0.76
2020-05-19 20:12:05.533 -0400,1589933524.555205,41.35205384411022,-71.84497656935463,15.95148,0.1312151,202.6298098488346,10.27785836852762,11.39094277877767,-9999,11706.54758566667,-0.222991943359375,0.2101593017578125,-1.015090942382812,1,0.76
2020-05-19 20:12:05.583 -0400,1589933524.555205,41.35205384411022,-71.84497656935463,15.95148,0.1312151,202.6298098488346,10.27785836852762,11.39094277877767,-9999,11706.59746466667,-0.0610198974609375,0.234893798828125,-1.007415771484375,1,0.76
2020-05-19 20:12:05.633 -0400,1589933524.555205,41.35205384411022,-71.84497656935463,15.95148,0.1312151,202.6298098488346,10.27785836852762,11.39094277877767,-9999,11706.64734766667,-0.0180816650390625,0.226531982421875,-0.9741668701171875,1,0.76
2020-05-19 20:12:05.682 -0400,1589933524.555205,41.35205384411022,-71.84497656935463,15.95148,0.1312151,202.6298098488346,10.27785836852762,11.39094277877767,-9999,11706.69723066667,-0.086090087890625,0.259735107421875,-0.9834747314453125,1,0.76
2020-05-19 20:12:05.733 -0400,1589933524.555205,41.35205384411022,-71.84497656935463,15.95148,0.1312151,202.6298098488346,10.27785836852762,11.39094277877767,-9999,11706.74711666667,-0.0927276611328125,0.2576141357421875,-0.962249755859375,1,0.76
2020-05-19 20:12:05.782 -0400,1589933524.555205,41.35205384411022,-71.84497656935463,15.95148,0.1312151,202.6298098488346,10.27785836852762,11.39094277877767,-9999,11706.79700066667,-0.086944580078125,0.2417755126953125,-0.9623565673828125,1,0.76
2020-05-19 20:12:05.837 -0400,1589933524.555205,41.35205384411022,-71.84497656935463,15.95148,0.1312151,202.6298098488346,10.27785836852762,11.39094277877767,-9999,11706.84688491667,-0.0942230224609375,0.2389984130859375,-0.9744720458984375,1,0.76
2020-05-19 20:12:05.882 -0400,1589933524.555205,41.35205384411022,-71.84497656935463,15.95148,0.1312151,202.6298098488346,10.27785836852762,11.39094277877767,-9999,11706.89677091667,-0.0850830078125,0.253875732421875,-0.9555206298828125,1,0.76
2020-05-19 20:12:05.932 -0400,1589933524.555205,41.35205384411022,-71.84497656935463,15.95148,0.1312151,202.6298098488346,10.27785836852762,11.39094277877767,-9999,11706.94665891667,-0.069366455078125,0.2480010986328125,-0.9798126220703125,1,0.76
2020-05-19 20:12:05.982 -0400,1589933525.504099,41.35205645991216,-71.84496997278232,15.93691,0.08013343,202.4261407724699,10.1557875861308,10.31327801254559,-9999,11706.99654591667,-0.0950927734375,0.2040252685546875,-0.971038818359375,1,0.76
2020-05-19 20:12:06.032 -0400,1589933525.504099,41.35205645991216,-71.84496997278232,15.93691,0.08013343,202.4261407724699,10.1557875861308,10.31327801254559,-9999,11707.04643191667,-0.0790863037109375,0.2062225341796875,-0.9757232666015625,1,0.76
2020-05-19 20:12:06.082 -0400,1589933525.504099,41.35205645991216,-71.84496997278232,15.93691,0.08013343,202.4261407724699,10.1557875861308,10.31327801254559,-9999,11707.09631991667,-0.0683135986328125,0.2149810791015625,-0.97662353515625,1,0.76
2020-05-19 20:12:06.131 -0400,1589933525.504099,41.35205645991216,-71.84496997278232,15.93691,0.08013343,202.4261407724699,10.1557875861308,10.31327801254559,-9999,11707.14620791667,-0.0724639892578125,0.181884765625,-0.9698486328125,1,0.76
2020-05-19 20:12:06.181 -0400,1589933525.504099,41.35205645991216,-71.84496997278232,15.93691,0.08013343,202.4261407724699,10.1557875861308,10.31327801254559,-9999,11707.19609591667,-0.069000244140625,0.124176025390625,-0.9798431396484375,1,0.76
2020-05-19 20:12:06.231 -0400,1589933525.504099,41.35205645991216,-71.84496997278232,15.93691,0.08013343,202.4261407724699,10.1557875861308,10.31327801254559,-9999,11707.24597991667,-0.0669403076171875,0.1737518310546875,-0.9958648681640625,1,0.76
2020-05-19 20:12:06.281 -0400,1589933525.504099,41.35205645991216,-71.84496997278232,15.93691,0.08013343,202.4261407724699,10.1557875861308,10.31327801254559,-9999,11707.29586591667,-0.066680908203125,0.1437835693359375,-0.997039794921875,1,0.76
2020-05-19 20:12:06.337 -0400,1589933525.504099,41.35205645991216,-71.84496997278232,15.93691,0.08013343,202.4261407724699,10.1557875861308,10.31327801254559,-9999,11707.34575291667,-0.0535125732421875,0.1112518310546875,-1.012054443359375,1,0.76
2020-05-19 20:12:06.381 -0400,1589933525.504099,41.35205645991216,-71.84496997278232,15.93691,0.08013343,202.4261407724699,10.1557875861308,10.31327801254559,-9999,11707.39563791667,-0.0622406005859375,0.149658203125,-0.9911041259765625,1,0.76
2020-05-19 20:12:06.431 -0400,1589933525.504099,41.35205645991216,-71.84496997278232,15.93691,0.08013343,202.4261407724699,10.1557875861308,10.31327801254559,-9999,11707.44552491667,-0.06689453125,0.1434783935546875,-0.9901580810546875,1,0.76
2020-05-19 20:12:06.481 -0400,1589933525.504099,41.35205645991216,-71.84496997278232,15.93691,0.08013343,202.4261407724699,10.1557875861308,10.31327801254559,-9999,11707.49540891667,-0.06842041015625,0.1454925537109375,-1.017959594726562,1,0.76
2020-05-19 20:12:06.531 -0400,1589933525.504099,41.35205645991216,-71.84496997278232,15.93691,0.08013343,202.4261407724699,10.1557875861308,10.31327801254559,-9999,11707.54529291667,-0.0672149658203125,0.1393890380859375,-0.9936370849609375,1,0.76
2020-05-19 20:12:06.580 -0400,1589933525.504099,41.35205645991216,-71.84496997278232,15.93691,0.08013343,202.4261407724699,10.1557875861308,10.31327801254559,-9999,11707.59517591667,-0.0864105224609375,0.151397705078125,-0.9430999755859375,1,0.76
2020-05-19 20:12:06.630 -0400,1589933525.504099,41.35205645991216,-71.84496997278232,15.93691,0.08013343,202.4261407724699,10.1557875861308,10.31327801254559,-9999,11707.64505591667,-0.0690765380859375,0.1196136474609375,-0.9899749755859375,1,0.76
2020-05-19 20:12:06.680 -0400,1589933525.504099,41.35205645991216,-71.84496997278232,15.93691,0.08013343,202.4261407724699,10.1557875861308,10.31327801254559,-9999,11707.69493891667,-0.075958251953125,0.1137237548828125,-0.9907073974609375,1,0.76
2020-05-19 20:12:06.730 -0400,1589933525.504099,41.35205645991216,-71.84496997278232,15.93691,0.08013343,202.4261407724699,10.1557875861308,10.31327801254559,-9999,11707.74482191667,-0.0859222412109375,0.1422882080078125,-0.98333740234375,1,0.76
2020-05-19 20:12:06.780 -0400,1589933526.453043,41.35205645991216,-71.84496997278232,15.93691,0,202.4261407724699,10.09193266462538,9.510672095879722,-9999,11707.79470491667,-0.084564208984375,0.160888671875,-0.982086181640625,1,0.76
2020-05-19 20:12:06.837 -0400,1589933526.453043,41.35205645991216,-71.84496997278232,15.93691,0,202.4261407724699,10.09193266462538,9.510672095879722,-9999,11707.84458716667,-0.0868072509765625,0.2074432373046875,-0.988128662109375,1,0.76
2020-05-19 20:12:06.880 -0400,1589933526.453043,41.35205645991216,-71.84496997278232,15.93691,0,202.4261407724699,10.09193266462538,9.510672095879722,-9999,11707.89446716667,-0.0822296142578125,0.2134246826171875,-0.989898681640625,1,0.76
2020-05-19 20:12:06.930 -0400,1589933526.453043,41.35205645991216,-71.84496997278232,15.93691,0,202.4261407724699,10.09193266462538,9.510672095879722,-9999,11707.94434916667,-0.070892333984375,0.210235595703125,-0.9858551025390625,1,0.76
2020-05-19 20:12:06.979 -0400,1589933526.453043,41.35205645991216,-71.84496997278232,15.93691,0,202.4261407724699,10.09193266462538,9.510672095879722,-9999,11707.99422916667,-0.075775146484375,0.2006072998046875,-0.9871826171875,1,0.76
2020-05-19 20:12:07.029 -0400,1589933526.453043,41.35205645991216,-71.84496997278232,15.93691,0,202.4261407724699,10.09193266462538,9.510672095879722,-9999,11708.04411116667,-0.08038330078125,0.171539306640625,-0.9817657470703125,1,0.76
2020-05-19 20:12:07.079 -0400,1589933526.453043,41.35205645991216,-71.84496997278232,15.93691,0,202.4261407724699,10.09193266462538,9.510672095879722,-9999,11708.09399516667,-0.081573486328125,0.2252349853515625,-0.9692535400390625,1,0.76
2020-05-19 20:12:07.129 -0400,1589933526.453043,41.35205645991216,-71.84496997278232,15.93691,0,202.4261407724699,10.09193266462538,9.510672095879722,-9999,11708.14387716667,-0.078857421875,0.1927642822265625,-0.980133056640625,1,0.76
2020-05-19 20:12:07.179 -0400,1589933526.453043,41.35205645991216,-71.84496997278232,15.93691,0,202.4261407724699,10.09193266462538,9.510672095879722,-9999,11708.19376116667,-0.0736846923828125,0.2102203369140625,-0.9750823974609375,1,0.76
2020-05-19 20:12:07.229 -0400,1589933526.453043,41.35205645991216,-71.84496997278232,15.93691,0,202.4261407724699,10.09193266462538,9.510672095879722,-9999,11708.24364216667,-0.07989501953125,0.202362060546875,-0.9829864501953125,1,0.76
2020-05-19 20:12:07.279 -0400,1589933526.453043,41.35205645991216,-71.84496997278232,15.93691,0,202.4261407724699,10.09193266462538,9.510672095879722,-9999,11708.29351916667,-0.078887939453125,0.202850341796875,-0.970611572265625,1,0.76
2020-05-19 20:12:07.338 -0400,1589933526.453043,41.35205645991216,-71.84496997278232,15.93691,0,202.4261407724699,10.09193266462538,9.510672095879722,-9999,11708.34340016667,-0.0802459716796875,0.200714111328125,-0.9771270751953125,1,0.76
2020-05-19 20:12:07.378 -0400,1589933526.453043,41.35205645991216,-71.84496997278232,15.93691,0,202.4261407724699,10.09193266462538,9.510672095879722,-9999,11708.39328416667,-0.0746917724609375,0.2034149169921875,-0.9843902587890625,1,0.76
2020-05-19 20:12:07.428 -0400,1589933526.453043,41.35205645991216,-71.84496997278232,15.93691,0,202.4261407724699,10.09193266462538,9.510672095879722,-9999,11708.44316316667,-0.080230712890625,0.205841064453125,-0.9785308837890625,1,0.76
2020-05-19 20:12:07.478 -0400,1589933526.453043,41.35205645991216,-71.84496997278232,15.93691,0,202.4261407724699,10.09193266462538,9.510672095879722,-9999,11708.49304616667,-0.0724945068359375,0.220062255859375,-0.9777374267578125,1,0.76
2020-05-19 20:12:07.528 -0400,1589933526.453043,41.35205645991216,-71.84496997278232,15.93691,0,202.4261407724699,10.09193266462538,9.510672095879722,-9999,11708.54292516667,-0.075164794921875,0.217926025390625,-0.976348876953125,1,0.76
2020-05-19 20:12:07.578 -0400,1589933526.453043,41.35205645991216,-71.84496997278232,15.93691,0,202.4261407724699,10.09193266462538,9.510672095879722,-9999,11708.59280516667,-0.08099365234375,0.2186737060546875,-0.974517822265625,1,0.76
2020-05-19 20:12:07.628 -0400,1589933526.453043,41.35205645991216,-71.84496997278232,15.93691,0,202.4261407724699,10.09193266462538,9.510672095879722,-9999,11708.64268616667,-0.0681304931640625,0.220855712890625,-0.9791412353515625,1,0.76
2020-05-19 20:12:07.678 -0400,1589933527.402045,41.35205645991216,-71.84496997278232,15.93691,0,202.4261407724699,10.05232602763315,8.908491561329516,-9999,11708.69256916667,-0.0717620849609375,0.2184600830078125,-0.9724578857421875,1,0.76
2020-05-19 20:12:07.728 -0400,1589933527.402045,41.35205645991216,-71.84496997278232,15.93691,0,202.4261407724699,10.05232602763315,8.908491561329516,-9999,11708.74245216667,-0.0755615234375,0.2164764404296875,-0.970733642578125,1,0.76
2020-05-19 20:12:07.777 -0400,1589933527.402045,41.35205645991216,-71.84496997278232,15.93691,0,202.4261407724699,10.05232602763315,8.908491561329516,-9999,11708.79233316667,-0.0769500732421875,0.2277679443359375,-0.9727325439453125,1,0.76
2020-05-19 20:12:07.840 -0400,1589933527.402045,41.35205645991216,-71.84496997278232,15.93691,0,202.4261407724699,10.05232602763315,8.908491561329516,-9999,11708.84221591667,-0.0731658935546875,0.213409423828125,-0.9768218994140625,1,0.76
2020-05-19 20:12:07.877 -0400,1589933527.402045,41.35205645991216,-71.84496997278232,15.93691,0,202.4261407724699,10.05232602763315,8.908491561329516,-9999,11708.89210191667,-0.0790252685546875,0.2160797119140625,-0.9708709716796875,1,0.76
2020-05-19 20:12:07.927 -0400,1589933527.402045,41.35205645991216,-71.84496997278232,15.93691,0,202.4261407724699,10.05232602763315,8.908491561329516,-9999,11708.94198791667,-0.08135986328125,0.20928955078125,-0.978515625,1,0.76
2020-05-19 20:12:07.977 -0400,1589933527.402045,41.35205645991216,-71.84496997278232,15.93691,0,202.4261407724699,10.05232602763315,8.908491561329516,-9999,11708.99187291667,-0.06982421875,0.2103271484375,-0.9722900390625,1,0.76
2020-05-19 20:12:08.027 -0400,1589933527.402045,41.35205645991216,-71.84496997278232,15.93691,0,202.4261407724699,10.05232602763315,8.908491561329516,-9999,11709.04175591667,-0.0757293701171875,0.214508056640625,-0.97479248046875,1,0.76
2020-05-19 20:12:08.077 -0400,1589933527.402045,41.35205645991216,-71.84496997278232,15.93691,0,202.4261407724699,10.05232602763315,8.908491561329516,-9999,11709.09163991667,-0.0861663818359375,0.210052490234375,-0.9736480712890625,1,0.76
2020-05-19 20:12:08.127 -0400,1589933527.402045,41.35205645991216,-71.84496997278232,15.93691,0,202.4261407724699,10.05232602763315,8.908491561329516,-9999,11709.14152391667,-0.0810546875,0.216888427734375,-0.9813385009765625,1,0.76
2020-05-19 20:12:08.177 -0400,1589933527.402045,41.35205645991216,-71.84496997278232,15.93691,0,202.4261407724699,10.05232602763315,8.908491561329516,-9999,11709.19140791667,-0.0701141357421875,0.215057373046875,-0.9736480712890625,1,0.76
2020-05-19 20:12:08.227 -0400,1589933527.402045,41.35205645991216,-71.84496997278232,15.93691,0,202.4261407724699,10.05232602763315,8.908491561329516,-9999,11709.24128591667,-0.0811920166015625,0.219024658203125,-0.9738616943359375,1,0.76
2020-05-19 20:12:08.276 -0400,1589933527.402045,41.35205645991216,-71.84496997278232,15.93691,0,202.4261407724699,10.05232602763315,8.908491561329516,-9999,11709.29116891667,-0.0768890380859375,0.221710205078125,-0.973175048828125,1,0.76
2020-05-19 20:12:08.337 -0400,1589933527.402045,41.35205645991216,-71.84496997278232,15.93691,0,202.4261407724699,10.05232602763315,8.908491561329516,-9999,11709.34105091667,-0.080841064453125,0.2183074951171875,-0.97705078125,1,0.76
2020-05-19 20:12:08.376 -0400,1589933527.402045,41.35205645991216,-71.84496997278232,15.93691,0,202.4261407724699,10.05232602763315,8.908491561329516,-9999,11709.39093291667,-0.0754241943359375,0.22137451171875,-0.9722747802734375,1,0.76
2020-05-19 20:12:08.426 -0400,1589933527.402045,41.35205645991216,-71.84496997278232,15.93691,0,202.4261407724699,10.05232602763315,8.908491561329516,-9999,11709.44081291667,-0.0823822021484375,0.2172393798828125,-0.973297119140625,1,0.76
2020-05-19 20:12:08.476 -0400,1589933527.402045,41.35205645991216,-71.84496997278232,15.93691,0,202.4261407724699,10.05232602763315,8.908491561329516,-9999,11709.49069691667,-0.0774383544921875,0.218231201171875,-0.974212646484375,1,0.76
2020-05-19 20:12:08.526 -0400,1589933527.402045,41.35205645991216,-71.84496997278232,15.93691,0,202.4261407724699,10.05232602763315,8.908491561329516,-9999,11709.54058091667,-0.0760498046875,0.2175750732421875,-0.9709320068359375,1,0.76
2020-05-19 20:12:08.576 -0400,1589933527.402045,41.35205645991216,-71.84496997278232,15.93691,0,202.4261407724699,10.05232602763315,8.908491561329516,-9999,11709.59046491667,-0.0768890380859375,0.21917724609375,-0.97637939453125,1,0.76
2020-05-19 20:12:08.626 -0400,1589933527.402045,41.35205645991216,-71.84496997278232,15.93691,0,202.4261407724699,10.05232602763315,8.908491561329516,-9999,11709.64034791667,-0.07281494140625,0.2209320068359375,-0.9765472412109375,1,0.76
2020-05-19 20:12:08.675 -0400,1589933527.402045,41.35205645991216,-71.84496997278232,15.93691,0,202.4261407724699,10.05232602763315,8.908491561329516,-9999,11709.69023291667,-0.080963134765625,0.2127532958984375,-0.974639892578125,1,0.76
2020-05-19 20:12:08.725 -0400,1589933527.402045,41.35205645991216,-71.84496997278232,15.93691,0,202.4261407724699,10.05232602763315,8.908491561329516,-9999,11709.74011591667,-0.079986572265625,0.2237396240234375,-0.977264404296875,1,0.76
2020-05-19 20:12:08.775 -0400,1589933527.402045,41.35205645991216,-71.84496997278232,15.93691,0,202.4261407724699,10.05232602763315,8.908491561329516,-9999,11709.79000491667,-0.072418212890625,0.2180938720703125,-0.975433349609375,1,0.76
2020-05-19 20:12:08.826 -0400,1589933527.402045,41.35205645991216,-71.84496997278232,15.93691,0,202.4261407724699,10.05232602763315,8.908491561329516,-9999,11709.83989241667,-0.0800323486328125,0.2145843505859375,-0.968994140625,1,0.76
2020-05-19 20:12:08.875 -0400,1589933527.402045,41.35205645991216,-71.84496997278232,15.93691,0,202.4261407724699,10.05232602763315,8.908491561329516,-9999,11709.88977441667,-0.08270263671875,0.2223358154296875,-0.9737548828125,1,0.76
2020-05-19 20:12:08.925 -0400,1589933528.351105,41.35205645991216,-71.84496997278232,15.93691,0,202.4261407724699,10.66736293875182,8.989594529496003,-9999,11709.93965741667,-0.0768585205078125,0.2174835205078125,-0.9749298095703125,1,0.76
2020-05-19 20:12:08.975 -0400,1589933528.351105,41.35205645991216,-71.84496997278232,15.93691,0,202.4261407724699,10.66736293875182,8.989594529496003,-9999,11709.98954141667,-0.077667236328125,0.225799560546875,-0.975433349609375,1,0.76
2020-05-19 20:12:09.024 -0400,1589933528.351105,41.35205645991216,-71.84496997278232,15.93691,0,202.4261407724699,10.66736293875182,8.989594529496003,-9999,11710.03942841667,-0.079925537109375,0.2099761962890625,-0.976104736328125,1,0.76
2020-05-19 20:12:09.074 -0400,1589933528.351105,41.35205645991216,-71.84496997278232,15.93691,0,202.4261407724699,10.66736293875182,8.989594529496003,-9999,11710.08931341667,-0.0822296142578125,0.2202301025390625,-0.97332763671875,1,0.76
2020-05-19 20:12:09.124 -0400,1589933528.351105,41.35205645991216,-71.84496997278232,15.93691,0,202.4261407724699,10.66736293875182,8.989594529496003,-9999,11710.13919241667,-0.0805511474609375,0.2140045166015625,-0.9730224609375,1,0.76
2020-05-19 20:12:09.174 -0400,1589933528.351105,41.35205645991216,-71.84496997278232,15.93691,0,202.4261407724699,10.66736293875182,8.989594529496003,-9999,11710.18907441667,-0.0791778564453125,0.212554931640625,-0.976837158203125,1,0.76
2020-05-19 20:12:09.224 -0400,1589933528.351105,41.35205645991216,-71.84496997278232,15.93691,0,202.4261407724699,10.66736293875182,8.989594529496003,-9999,11710.23895341667,-0.076416015625,0.2157440185546875,-0.9760284423828125,1,0.76
2020-05-19 20:12:09.274 -0400,1589933528.351105,41.35205645991216,-71.84496997278232,15.93691,0,202.4261407724699,10.66736293875182,8.989594529496003,-9999,11710.28883441667,-0.0840606689453125,0.2192230224609375,-0.9752349853515625,1,0.76
2020-05-19 20:12:09.324 -0400,1589933528.351105,41.35205645991216,-71.84496997278232,15.93691,0,202.4261407724699,10.66736293875182,8.989594529496003,-9999,11710.33871641667,-0.0808258056640625,0.2183990478515625,-0.9795074462890625,1,0.76
2020-05-19 20:12:09.374 -0400,1589933528.351105,41.35205645991216,-71.84496997278232,15.93691,0,202.4261407724699,10.66736293875182,8.989594529496003,-9999,11710.38859841667,-0.073760986328125,0.218475341796875,-0.973785400390625,1,0.76
2020-05-19 20:12:09.423 -0400,1589933528.351105,41.35205645991216,-71.84496997278232,15.93691,0,202.4261407724699,10.66736293875182,8.989594529496003,-9999,11710.43847841667,-0.082733154296875,0.21807861328125,-0.9720611572265625,1,0.76
2020-05-19 20:12:09.473 -0400,1589933528.351105,41.35205645991216,-71.84496997278232,15.93691,0,202.4261407724699,10.66736293875182,8.989594529496003,-9999,11710.48836241667,-0.0784759521484375,0.2235870361328125,-0.97113037109375,1,0.76
2020-05-19 20:12:09.523 -0400,1589933528.351105,41.35205645991216,-71.84496997278232,15.93691,0,202.4261407724699,10.66736293875182,8.989594529496003,-9999,11710.53824441667,-0.080413818359375,0.2163543701171875,-0.97662353515625,1,0.76
2020-05-19 20:12:09.573 -0400,1589933528.351105,41.35205645991216,-71.84496997278232,15.93691,0,202.4261407724699,10.66736293875182,8.989594529496003,-9999,11710.58812641667,-0.0823974609375,0.2289276123046875,-0.9713592529296875,1,0.76
2020-05-19 20:12:09.623 -0400,1589933529.300221,41.35205645991235,-71.84496997278232,15.93691,0,202.4261407724699,10.66736293875182,8.989594529496003,-9999,11710.63800541667,-0.0758514404296875,0.2147064208984375,-0.97625732421875,1,0.76
2020-05-19 20:12:09.673 -0400,1589933529.300221,41.35205645991235,-71.84496997278232,15.93691,0,202.4261407724699,10.66736293875182,8.989594529496003,-9999,11710.68788541667,-0.0841522216796875,0.22247314453125,-0.9737091064453125,1,0.76
2020-05-19 20:12:09.723 -0400,1589933529.300221,41.35205645991235,-71.84496997278232,15.93691,0,202.4261407724699,10.66736293875182,8.989594529496003,-9999,11710.73776441667,-0.0796661376953125,0.2183990478515625,-0.97222900390625,1,0.76
2020-05-19 20:12:09.773 -0400,1589933529.300221,41.35205645991235,-71.84496997278232,15.93691,0,202.4261407724699,10.66736293875182,8.989594529496003,-9999,11710.78764441667,-0.077972412109375,0.217498779296875,-0.9749908447265625,1,0.76
2020-05-19 20:12:09.830 -0400,1589933529.300221,41.35205645991235,-71.84496997278232,15.93691,0,202.4261407724699,10.66736293875182,8.989594529496003,-9999,11710.83752475,-0.0792694091796875,0.223297119140625,-0.971527099609375,1,0.76
2020-05-19 20:12:09.873 -0400,1589933529.300221,41.35205645991235,-71.84496997278232,15.93691,0,202.4261407724699,10.66736293875182,8.989594529496003,-9999,11710.88740475,-0.077880859375,0.215545654296875,-0.9719390869140625,1,0.76
2020-05-19 20:12:09.922 -0400,1589933529.300221,41.35205645991235,-71.84496997278232,15.93691,0,202.4261407724699,10.66736293875182,8.989594529496003,-9999,11710.93728475,-0.0786285400390625,0.222869873046875,-0.97955322265625,1,0.76
2020-05-19 20:12:09.972 -0400,1589933529.300221,41.35205645991235,-71.84496997278232,15.93691,0,202.4261407724699,10.66736293875182,8.989594529496003,-9999,11710.98716575,-0.077362060546875,0.225372314453125,-0.97216796875,1,0.76
2020-05-19 20:12:10.022 -0400,1589933529.300221,41.35205645991235,-71.84496997278232,15.93691,0,202.4261407724699,10.66736293875182,8.989594529496003,-9999,11711.03704575,-0.08135986328125,0.219970703125,-0.9753875732421875,1,0.76
2020-05-19 20:12:10.072 -0400,1589933529.300221,41.35205645991235,-71.84496997278232,15.93691,0,202.4261407724699,10.66736293875182,8.989594529496003,-9999,11711.08692675,-0.0788726806640625,0.2241668701171875,-0.9737091064453125,1,0.76
2020-05-19 20:12:10.122 -0400,1589933529.300221,41.35205645991235,-71.84496997278232,15.93691,0,202.4261407724699,10.66736293875182,8.989594529496003,-9999,11711.13680575,-0.08160400390625,0.2203521728515625,-0.975433349609375,1,0.76
2020-05-19 20:12:10.172 -0400,1589933529.300221,41.35205645991235,-71.84496997278232,15.93691,0,202.4261407724699,10.66736293875182,8.989594529496003,-9999,11711.18668775,-0.0772552490234375,0.2283172607421875,-0.9738616943359375,1,0.76
2020-05-19 20:12:10.222 -0400,1589933529.300221,41.35205645991235,-71.84496997278232,15.93691,0,202.4261407724699,10.66736293875182,8.989594529496003,-9999,11711.23656975,-0.079498291015625,0.218963623046875,-0.9772186279296875,1,0.76
2020-05-19 20:12:10.272 -0400,1589933529.300221,41.35205645991235,-71.84496997278232,15.93691,0,202.4261407724699,10.66736293875182,8.989594529496003,-9999,11711.28644975,-0.07574462890625,0.220550537109375,-0.97216796875,1,0.76
2020-05-19 20:12:10.326 -0400,1589933529.300221,41.35205645991235,-71.84496997278232,15.93691,0,202.4261407724699,10.66736293875182,8.989594529496003,-9999,11711.33632875,-0.0835113525390625,0.2183074951171875,-0.97357177734375,1,0.76
2020-05-19 20:12:10.371 -0400,1589933529.300221,41.35205645991235,-71.84496997278232,15.93691,0,202.4261407724699,10.66736293875182,8.989594529496003,-9999,11711.38620775,-0.0738372802734375,0.21832275390625,-0.97259521484375,1,0.76
2020-05-19 20:12:10.421 -0400,1589933529.300221,41.35205645991235,-71.84496997278232,15.93691,0,202.4261407724699,10.66736293875182,8.989594529496003,-9999,11711.43608775,-0.08013916015625,0.2215576171875,-0.9748382568359375,1,0.76
2020-05-19 20:12:10.471 -0400,1589933529.300221,41.35205645991235,-71.84496997278232,15.93691,0,202.4261407724699,10.66736293875182,8.989594529496003,-9999,11711.48596775,-0.0813446044921875,0.2195587158203125,-0.9720611572265625,1,0.76
2020-05-19 20:12:10.521 -0400,1589933529.300221,41.35205645991235,-71.84496997278232,15.93691,0,202.4261407724699,10.66736293875182,8.989594529496003,-9999,11711.53584975,-0.078643798828125,0.223602294921875,-0.9765625,1,0.76
2020-05-19 20:12:10.571 -0400,1589933530.249398,41.35205645991235,-71.84496997278232,15.93691,0,202.4261407724699,17.83310189722306,14.51958024587474,-9999,11711.58573175,-0.0758056640625,0.2213134765625,-0.9760589599609375,1,0.76
2020-05-19 20:12:10.621 -0400,1589933530.249398,41.35205645991235,-71.84496997278232,15.93691,0,202.4261407724699,17.83310189722306,14.51958024587474,-9999,11711.63561075,-0.08502197265625,0.2234039306640625,-0.9728240966796875,1,0.76
2020-05-19 20:12:10.671 -0400,1589933530.249398,41.35205645991235,-71.84496997278232,15.93691,0,202.4261407724699,17.83310189722306,14.51958024587474,-9999,11711.68548975,-0.0728302001953125,0.2249298095703125,-0.9741973876953125,1,0.76
2020-05-19 20:12:10.721 -0400,1589933530.249398,41.35205645991235,-71.84496997278232,15.93691,0,202.4261407724699,17.83310189722306,14.51958024587474,-9999,11711.73536675,-0.0819244384765625,0.2194671630859375,-0.97296142578125,1,0.76
2020-05-19 20:12:10.771 -0400,1589933530.249398,41.35205645991235,-71.84496997278232,15.93691,0,202.4261407724699,17.83310189722306,14.51958024587474,-9999,11711.78524375,-0.0843505859375,0.2235260009765625,-0.974761962890625,1,0.76
2020-05-19 20:12:10.826 -0400,1589933530.249398,41.35205645991235,-71.84496997278232,15.93691,0,202.4261407724699,17.83310189722306,14.51958024587474,-9999,11711.83512604167,-0.0784149169921875,0.2183685302734375,-0.973968505859375,1,0.76
2020-05-19 20:12:10.870 -0400,1589933530.249398,41.35205645991235,-71.84496997278232,15.93691,0,202.4261407724699,17.83310189722306,14.51958024587474,-9999,11711.88500504167,-0.0801544189453125,0.2184906005859375,-0.9729461669921875,1,0.76
2020-05-19 20:12:10.920 -0400,1589933530.249398,41.35205645991235,-71.84496997278232,15.93691,0,202.4261407724699,17.83310189722306,14.51958024587474,-9999,11711.93488504167,-0.078033447265625,0.220703125,-0.9742584228515625,1,0.76
2020-05-19 20:12:10.970 -0400,1589933530.249398,41.35205645991235,-71.84496997278232,15.93691,0,202.4261407724699,17.83310189722306,14.51958024587474,-9999,11711.98476804167,-0.0775604248046875,0.218597412109375,-0.976898193359375,1,0.76
2020-05-19 20:12:11.020 -0400,1589933530.249398,41.35205645991235,-71.84496997278232,15.93691,0,202.4261407724699,17.83310189722306,14.51958024587474,-9999,11712.03464904167,-0.07916259765625,0.221099853515625,-0.9761810302734375,1,0.76
2020-05-19 20:12:11.070 -0400,1589933530.249398,41.35205645991235,-71.84496997278232,15.93691,0,202.4261407724699,17.83310189722306,14.51958024587474,-9999,11712.08453004167,-0.0807342529296875,0.2262420654296875,-0.9727935791015625,1,0.76
2020-05-19 20:12:11.120 -0400,1589933530.249398,41.35205645991235,-71.84496997278232,15.93691,0,202.4261407724699,17.83310189722306,14.51958024587474,-9999,11712.13440904167,-0.0812225341796875,0.2206878662109375,-0.976470947265625,1,0.76
2020-05-19 20:12:11.169 -0400,1589933530.249398,41.35205645991235,-71.84496997278232,15.93691,0,202.4261407724699,17.83310189722306,14.51958024587474,-9999,11712.18428804167,-0.080108642578125,0.2213287353515625,-0.97711181640625,1,0.76
2020-05-19 20:12:11.219 -0400,1589933530.249398,41.35205645991235,-71.84496997278232,15.93691,0,202.4261407724699,17.83310189722306,14.51958024587474,-9999,11712.23416704167,-0.08447265625,0.2271575927734375,-0.972137451171875,1,0.76
2020-05-19 20:12:11.269 -0400,1589933530.249398,41.35205645991235,-71.84496997278232,15.93691,0,202.4261407724699,17.83310189722306,14.51958024587474,-9999,11712.28404904167,-0.080718994140625,0.2207183837890625,-0.9747772216796875,1,0.76
2020-05-19 20:12:11.326 -0400,1589933530.249398,41.35205645991235,-71.84496997278232,15.93691,0,202.4261407724699,17.83310189722306,14.51958024587474,-9999,11712.33392904167,-0.0761566162109375,0.2247467041015625,-0.973846435546875,1,0.76
2020-05-19 20:12:11.369 -0400,1589933530.249398,41.35205645991235,-71.84496997278232,15.93691,0,202.4261407724699,17.83310189722306,14.51958024587474,-9999,11712.38381504167,-0.0721282958984375,0.2192840576171875,-0.970977783203125,1,0.76
2020-05-19 20:12:11.419 -0400,1589933530.249398,41.35205645991235,-71.84496997278232,15.93691,0,202.4261407724699,17.83310189722306,14.51958024587474,-9999,11712.43369704167,-0.077850341796875,0.2172698974609375,-0.9703521728515625,1,0.76
2020-05-19 20:12:11.469 -0400,1589933531.198625,41.35205645991235,-71.84496997278232,15.93691,0,202.4261407724699,13.69968160657401,10.64922081877664,-9999,11712.48357804167,-0.08203125,0.2229461669921875,-0.9715423583984375,1,0.76
2020-05-19 20:12:11.519 -0400,1589933531.198625,41.35205645991235,-71.84496997278232,15.93691,0,202.4261407724699,13.69968160657401,10.64922081877664,-9999,11712.53346204167,-0.07672119140625,0.2185211181640625,-0.97369384765625,1,0.76
2020-05-19 20:12:11.569 -0400,1589933531.198625,41.35205645991235,-71.84496997278232,15.93691,0,202.4261407724699,13.69968160657401,10.64922081877664,-9999,11712.58334604167,-0.0778656005859375,0.2223663330078125,-0.9744720458984375,1,0.76
2020-05-19 20:12:11.618 -0400,1589933531.198625,41.35205645991235,-71.84496997278232,15.93691,0,202.4261407724699,13.69968160657401,10.64922081877664,-9999,11712.63322604167,-0.0787200927734375,0.22100830078125,-0.9710235595703125,1,0.76
2020-05-19 20:12:11.668 -0400,1589933531.198625,41.35205645991235,-71.84496997278232,15.93691,0,202.4261407724699,13.69968160657401,10.64922081877664,-9999,11712.68310304167,-0.08087158203125,0.22515869140625,-0.9735107421875,1,0.76
2020-05-19 20:12:11.718 -0400,1589933531.198625,41.35205645991235,-71.84496997278232,15.93691,0,202.4261407724699,13.69968160657401,10.64922081877664,-9999,11712.73298204167,-0.07977294921875,0.219818115234375,-0.9735870361328125,1,0.76
2020-05-19 20:12:11.768 -0400,1589933531.198625,41.35205645991235,-71.84496997278232,15.93691,0,202.4261407724699,13.69968160657401,10.64922081877664,-9999,11712.78286104167,-0.0809173583984375,0.2187652587890625,-0.9749298095703125,1,0.76
2020-05-19 20:12:11.826 -0400,1589933531.198625,41.35205645991235,-71.84496997278232,15.93691,0,202.4261407724699,13.69968160657401,10.64922081877664,-9999,11712.832739125,-0.0826873779296875,0.2237091064453125,-0.9733123779296875,1,0.76
2020-05-19 20:12:11.868 -0400,1589933531.198625,41.35205645991235,-71.84496997278232,15.93691,0,202.4261407724699,13.69968160657401,10.64922081877664,-9999,11712.882619125,-0.078948974609375,0.22259521484375,-0.973297119140625,1,0.76
2020-05-19 20:12:11.918 -0400,1589933531.198625,41.35205645991235,-71.84496997278232,15.93691,0,202.4261407724699,13.69968160657401,10.64922081877664,-9999,11712.932496125,-0.079559326171875,0.222198486328125,-0.97552490234375,1,0.76
2020-05-19 20:12:11.968 -0400,1589933531.198625,41.35205645991235,-71.84496997278232,15.93691,0,202.4261407724699,13.69968160657401,10.64922081877664,-9999,11712.982377125,-0.0808563232421875,0.2247772216796875,-0.9733428955078125,1,0.76
2020-05-19 20:12:12.017 -0400,1589933531.198625,41.35205645991235,-71.84496997278232,15.93691,0,202.4261407724699,13.69968160657401,10.64922081877664,-9999,11713.032258125,-0.07989501953125,0.2196502685546875,-0.9726409912109375,1,0.76
2020-05-19 20:12:12.067 -0400,1589933531.198625,41.35205645991235,-71.84496997278232,15.93691,0,202.4261407724699,13.69968160657401,10.64922081877664,-9999,11713.082141125,-0.0802764892578125,0.2224884033203125,-0.9733734130859375,1,0.76
2020-05-19 20:12:12.117 -0400,1589933531.198625,41.35205645991235,-71.84496997278232,15.93691,0,202.4261407724699,13.69968160657401,10.64922081877664,-9999,11713.132023125,-0.0769500732421875,0.225738525390625,-0.97552490234375,1,0.76
2020-05-19 20:12:12.167 -0400,1589933531.198625,41.35205645991235,-71.84496997278232,15.93691,0,202.4261407724699,13.69968160657401,10.64922081877664,-9999,11713.181905125,-0.0812530517578125,0.225067138671875,-0.972503662109375,1,0.76
2020-05-19 20:12:12.217 -0400,1589933531.198625,41.35205645991235,-71.84496997278232,15.93691,0,202.4261407724699,13.69968160657401,10.64922081877664,-9999,11713.231786125,-0.08123779296875,0.2200927734375,-0.974334716796875,1,0.76
2020-05-19 20:12:12.267 -0400,1589933531.198625,41.35205645991235,-71.84496997278232,15.93691,0,202.4261407724699,13.69968160657401,10.64922081877664,-9999,11713.281670125,-0.0804290771484375,0.2231597900390625,-0.9749603271484375,1,0.76
2020-05-19 20:12:12.326 -0400,1589933531.198625,41.35205645991235,-71.84496997278232,15.93691,0,202.4261407724699,13.69968160657401,10.64922081877664,-9999,11713.331553125,-0.07989501953125,0.224456787109375,-0.970977783203125,1,0.76
2020-05-19 20:12:12.367 -0400,1589933531.198625,41.35205645991235,-71.84496997278232,15.93691,0,202.4261407724699,13.69968160657401,10.64922081877664,-9999,11713.381434125,-0.0793304443359375,0.2216033935546875,-0.9744873046875,1,0.76
2020-05-19 20:12:12.416 -0400,1589933531.198625,41.35205645991235,-71.84496997278232,15.93691,0,202.4261407724699,13.69968160657401,10.64922081877664,-9999,11713.431316125,-0.0775909423828125,0.2245635986328125,-0.9710540771484375,1,0.76
2020-05-19 20:12:12.466 -0400,1589933531.198625,41.35205645991235,-71.84496997278232,15.93691,0,202.4261407724699,13.69968160657401,10.64922081877664,-9999,11713.481193125,-0.0772552490234375,0.2218475341796875,-0.975341796875,1,0.76
2020-05-19 20:12:12.516 -0400,1589933531.198625,41.35205645991235,-71.84496997278232,15.93691,0,202.4261407724699,13.69968160657401,10.64922081877664,-9999,11713.531075125,-0.0786590576171875,0.2270660400390625,-0.973358154296875,1,0.76
2020-05-19 20:12:12.566 -0400,1589933532.147901,41.35205645991235,-71.84496997278232,15.93691,0,202.4261407724699,20.61241423212988,14.97952427665552,-9999,11713.580955125,-0.0769500732421875,0.22381591796875,-0.9755859375,1,0.76
2020-05-19 20:12:12.616 -0400,1589933532.147901,41.35205645991235,-71.84496997278232,15.93691,0,202.4261407724699,20.61241423212988,14.97952427665552,-9999,11713.630836125,-0.0812530517578125,0.2207183837890625,-0.973968505859375,1,0.76
2020-05-19 20:12:12.666 -0400,1589933532.147901,41.35205645991235,-71.84496997278232,15.93691,0,202.4261407724699,20.61241423212988,14.97952427665552,-9999,11713.680713125,-0.0787506103515625,0.2216033935546875,-0.97119140625,1,0.76
2020-05-19 20:12:12.716 -0400,1589933532.147901,41.35205645991235,-71.84496997278232,15.93691,0,202.4261407724699,20.61241423212988,14.97952427665552,-9999,11713.730591125,-0.0770263671875,0.2196502685546875,-0.9736480712890625,1,0.76
2020-05-19 20:12:12.766 -0400,1589933532.147901,41.35205645991235,-71.84496997278232,15.93691,0,202.4261407724699,20.61241423212988,14.97952427665552,-9999,11713.780468125,-0.0814361572265625,0.2238922119140625,-0.9732818603515625,1,0.76
2020-05-19 20:12:12.825 -0400,1589933532.147901,41.35205645991235,-71.84496997278232,15.93691,0,202.4261407724699,20.61241423212988,14.97952427665552,-9999,11713.83034866667,-0.0800323486328125,0.224334716796875,-0.9706268310546875,1,0.76
2020-05-19 20:12:12.866 -0400,1589933532.147901,41.35205645991235,-71.84496997278232,15.93691,0,202.4261407724699,20.61241423212988,14.97952427665552,-9999,11713.88022466667,-0.07940673828125,0.2215728759765625,-0.9785308837890625,1,0.76
2020-05-19 20:12:12.915 -0400,1589933532.147901,41.35205645991235,-71.84496997278232,15.93691,0,202.4261407724699,20.61241423212988,14.97952427665552,-9999,11713.93010166667,-0.0791473388671875,0.2257843017578125,-0.97344970703125,1,0.76
2020-05-19 20:12:12.965 -0400,1589933532.147901,41.35205645991235,-71.84496997278232,15.93691,0,202.4261407724699,20.61241423212988,14.97952427665552,-9999,11713.97997866667,-0.0808258056640625,0.226715087890625,-0.9738311767578125,1,0.76
2020-05-19 20:12:13.015 -0400,1589933532.147901,41.35205645991235,-71.84496997278232,15.93691,0,202.4261407724699,20.61241423212988,14.97952427665552,-9999,11714.02985666667,-0.07879638671875,0.2247467041015625,-0.9733428955078125,1,0.76
2020-05-19 20:12:13.065 -0400,1589933532.147901,41.35205645991235,-71.84496997278232,15.93691,0,202.4261407724699,20.61241423212988,14.97952427665552,-9999,11714.07973866667,-0.076568603515625,0.2214202880859375,-0.97320556640625,1,0.76
2020-05-19 20:12:13.115 -0400,1589933532.147901,41.35205645991235,-71.84496997278232,15.93691,0,202.4261407724699,20.61241423212988,14.97952427665552,-9999,11714.12962066667,-0.07891845703125,0.223968505859375,-0.97357177734375,1,0.76
2020-05-19 20:12:13.165 -0400,1589933532.147901,41.35205645991235,-71.84496997278232,15.93691,0,202.4261407724699,20.61241423212988,14.97952427665552,-9999,11714.17950566667,-0.078216552734375,0.2228240966796875,-0.974609375,1,0.76
2020-05-19 20:12:13.214 -0400,1589933532.147901,41.35205645991235,-71.84496997278232,15.93691,0,202.4261407724699,20.61241423212988,14.97952427665552,-9999,11714.22938766667,-0.08154296875,0.22039794921875,-0.9752197265625,1,0.76
2020-05-19 20:12:13.264 -0400,1589933532.147901,41.35205645991235,-71.84496997278232,15.93691,0,202.4261407724699,20.61241423212988,14.97952427665552,-9999,11714.27927166667,-0.0780181884765625,0.2230987548828125,-0.9736480712890625,1,0.76
2020-05-19 20:12:13.325 -0400,1589933532.147901,41.35205645991235,-71.84496997278232,15.93691,0,202.4261407724699,20.61241423212988,14.97952427665552,-9999,11714.32915766667,-0.077972412109375,0.220184326171875,-0.975799560546875,1,0.76
2020-05-19 20:12:13.364 -0400,1589933532.147901,41.35205645991235,-71.84496997278232,15.93691,0,202.4261407724699,20.61241423212988,14.97952427665552,-9999,11714.37904166667,-0.077728271484375,0.2255706787109375,-0.975341796875,1,0.76
2020-05-19 20:12:13.414 -0400,1589933533.097218,41.35205645991235,-71.84496997278232,15.93691,0,202.4261407724699,17.14739416908229,12.39280124376018,-9999,11714.42892766667,-0.0788116455078125,0.2211456298828125,-0.9757080078125,1,0.76
2020-05-19 20:12:13.464 -0400,1589933533.097218,41.35205645991235,-71.84496997278232,15.93691,0,202.4261407724699,17.14739416908229,12.39280124376018,-9999,11714.47881266667,-0.080841064453125,0.224456787109375,-0.977020263671875,1,0.76
2020-05-19 20:12:13.514 -0400,1589933533.097218,41.35205645991235,-71.84496997278232,15.93691,0,202.4261407724699,17.14739416908229,12.39280124376018,-9999,11714.52869866667,-0.079345703125,0.2254486083984375,-0.9737396240234375,1,0.76
2020-05-19 20:12:13.564 -0400,1589933533.097218,41.35205645991235,-71.84496997278232,15.93691,0,202.4261407724699,17.14739416908229,12.39280124376018,-9999,11714.57858566667,-0.076416015625,0.2230072021484375,-0.9724273681640625,1,0.76
2020-05-19 20:12:13.614 -0400,1589933533.097218,41.35205645991235,-71.84496997278232,15.93691,0,202.4261407724699,17.14739416908229,12.39280124376018,-9999,11714.62846566667,-0.0807647705078125,0.2248687744140625,-0.9733428955078125,1,0.76
2020-05-19 20:12:13.663 -0400,1589933533.097218,41.35205645991235,-71.84496997278232,15.93691,0,202.4261407724699,17.14739416908229,12.39280124376018,-9999,11714.67834466667,-0.0740509033203125,0.221343994140625,-0.9745635986328125,1,0.76
2020-05-19 20:12:13.713 -0400,1589933533.097218,41.35205645991235,-71.84496997278232,15.93691,0,202.4261407724699,17.14739416908229,12.39280124376018,-9999,11714.72822466667,-0.0813140869140625,0.2255401611328125,-0.97491455078125,1,0.76
2020-05-19 20:12:13.763 -0400,1589933533.097218,41.35205645991235,-71.84496997278232,15.93691,0,202.4261407724699,17.14739416908229,12.39280124376018,-9999,11714.77810666667,-0.0793914794921875,0.2194671630859375,-0.9738311767578125,1,0.76
2020-05-19 20:12:13.825 -0400,1589933533.097218,41.35205645991235,-71.84496997278232,15.93691,0,202.4261407724699,17.14739416908229,12.39280124376018,-9999,11714.8279835,-0.079437255859375,0.223175048828125,-0.9744110107421875,1,0.76
2020-05-19 20:12:13.863 -0400,1589933533.097218,41.35205645991235,-71.84496997278232,15.93691,0,202.4261407724699,17.14739416908229,12.39280124376018,-9999,11714.8778605,-0.0779266357421875,0.218170166015625,-0.972015380859375,1,0.76
2020-05-19 20:12:13.913 -0400,1589933533.097218,41.35205645991235,-71.84496997278232,15.93691,0,202.4261407724699,17.14739416908229,12.39280124376018,-9999,11714.9277395,-0.070037841796875,0.223968505859375,-0.975830078125,1,0.76
2020-05-19 20:12:13.963 -0400,1589933533.097218,41.35205645991235,-71.84496997278232,15.93691,0,202.4261407724699,17.14739416908229,12.39280124376018,-9999,11714.9776195,-0.0808258056640625,0.2325286865234375,-0.9707183837890625,1,0.76
2020-05-19 20:12:14.013 -0400,1589933533.097218,41.35205645991235,-71.84496997278232,15.93691,0,202.4261407724699,17.14739416908229,12.39280124376018,-9999,11715.0274985,-0.0746917724609375,0.2200775146484375,-0.9774169921875,1,0.76
2020-05-19 20:12:14.062 -0400,1589933533.097218,41.35205645991235,-71.84496997278232,15.93691,0,202.4261407724699,17.14739416908229,12.39280124376018,-9999,11715.0773795,-0.08197021484375,0.225555419921875,-0.9713134765625,1,0.76
2020-05-19 20:12:14.112 -0400,1589933533.097218,41.35205645991235,-71.84496997278232,15.93691,0,202.4261407724699,17.14739416908229,12.39280124376018,-9999,11715.1272625,-0.075469970703125,0.2200927734375,-0.9761810302734375,1,0.76
2020-05-19 20:12:14.162 -0400,1589933533.097218,41.35205645991235,-71.84496997278232,15.93691,0,202.4261407724699,17.14739416908229,12.39280124376018,-9999,11715.1771455,-0.0752105712890625,0.2275238037109375,-0.97021484375,1,0.76
2020-05-19 20:12:14.212 -0400,1589933533.097218,41.35205645991235,-71.84496997278232,15.93691,0,202.4261407724699,17.14739416908229,12.39280124376018,-9999,11715.2270275,-0.08038330078125,0.22784423828125,-0.979949951171875,1,0.76
2020-05-19 20:12:14.262 -0400,1589933533.097218,41.35205645991235,-71.84496997278232,15.93691,0,202.4261407724699,17.14739416908229,12.39280124376018,-9999,11715.2769075,-0.075592041015625,0.2481231689453125,-0.9813079833984375,1,0.76
2020-05-19 20:12:14.325 -0400,1589933533.097218,41.35205645991235,-71.84496997278232,15.93691,0,202.4261407724699,17.14739416908229,12.39280124376018,-9999,11715.3267865,-0.0768890380859375,0.227386474609375,-0.97503662109375,1,0.76
2020-05-19 20:12:14.362 -0400,1589933533.097218,41.35205645991235,-71.84496997278232,15.93691,0,202.4261407724699,17.14739416908229,12.39280124376018,-9999,11715.3766665,-0.072479248046875,0.226165771484375,-0.9735870361328125,1,0.76
2020-05-19 20:12:14.412 -0400,1589933533.097218,41.35205645991235,-71.84496997278232,15.93691,0,202.4261407724699,17.14739416908229,12.39280124376018,-9999,11715.4265465,-0.07373046875,0.22821044921875,-0.97052001953125,1,0.76
2020-05-19 20:12:14.461 -0400,1589933533.097218,41.35205645991235,-71.84496997278232,15.93691,0,202.4261407724699,17.14739416908229,12.39280124376018,-9999,11715.4764265,-0.079193115234375,0.2194976806640625,-0.97235107421875,1,0.76
2020-05-19 20:12:14.511 -0400,1589933534.046576,41.35205645991235,-71.84496997278232,15.93691,0,202.4261407724699,17.34001220378566,12.29161601242914,-9999,11715.5263085,-0.0747833251953125,0.2256622314453125,-0.97564697265625,1,0.76
2020-05-19 20:12:14.561 -0400,1589933534.046576,41.35205645991235,-71.84496997278232,15.93691,0,202.4261407724699,17.34001220378566,12.29161601242914,-9999,11715.5761845,-0.079010009765625,0.2266998291015625,-0.974517822265625,1,0.76
2020-05-19 20:12:14.611 -0400,1589933534.046576,41.35205645991235,-71.84496997278232,15.93691,0,202.4261407724699,17.34001220378566,12.29161601242914,-9999,11715.6260635,-0.07794189453125,0.22479248046875,-0.9717864990234375,1,0.76
2020-05-19 20:12:14.661 -0400,1589933534.046576,41.35205645991235,-71.84496997278232,15.93691,0,202.4261407724699,17.34001220378566,12.29161601242914,-9999,11715.6759425,-0.079559326171875,0.22821044921875,-0.9735107421875,1,0.76
2020-05-19 20:12:14.711 -0400,1589933534.046576,41.35205645991235,-71.84496997278232,15.93691,0,202.4261407724699,17.34001220378566,12.29161601242914,-9999,11715.7258205,-0.0790557861328125,0.227752685546875,-0.9737091064453125,1,0.76
2020-05-19 20:12:14.761 -0400,1589933534.046576,41.35205645991235,-71.84496997278232,15.93691,0,202.4261407724699,17.34001220378566,12.29161601242914,-9999,11715.7757005,-0.0771484375,0.22662353515625,-0.9753570556640625,1,0.76
2020-05-19 20:12:14.825 -0400,1589933534.046576,41.35205645991235,-71.84496997278232,15.93691,0,202.4261407724699,17.34001220378566,12.29161601242914,-9999,11715.825582875,-0.08013916015625,0.22601318359375,-0.9719696044921875,1,0.76
2020-05-19 20:12:14.860 -0400,1589933534.046576,41.35205645991235,-71.84496997278232,15.93691,0,202.4261407724699,17.34001220378566,12.29161601242914,-9999,11715.875465875,-0.076446533203125,0.2257537841796875,-0.972442626953125,1,0.76
2020-05-19 20:12:14.910 -0400,1589933534.046576,41.35205645991235,-71.84496997278232,15.93691,0,202.4261407724699,17.34001220378566,12.29161601242914,-9999,11715.925348875,-0.0797882080078125,0.2240753173828125,-0.97296142578125,1,0.76
2020-05-19 20:12:14.960 -0400,1589933534.046576,41.35205645991235,-71.84496997278232,15.93691,0,202.4261407724699,17.34001220378566,12.29161601242914,-9999,11715.975231875,-0.0774078369140625,0.2245635986328125,-0.9749298095703125,1,0.76
2020-05-19 20:12:15.010 -0400,1589933534.046576,41.35205645991235,-71.84496997278232,15.93691,0,202.4261407724699,17.34001220378566,12.29161601242914,-9999,11716.025112875,-0.0758056640625,0.226959228515625,-0.972442626953125,1,0.76
2020-05-19 20:12:15.060 -0400,1589933534.046576,41.35205645991235,-71.84496997278232,15.93691,0,202.4261407724699,17.34001220378566,12.29161601242914,-9999,11716.074992875,-0.0797271728515625,0.220611572265625,-0.9725494384765625,1,0.76
2020-05-19 20:12:15.110 -0400,1589933534.046576,41.35205645991235,-71.84496997278232,15.93691,0,202.4261407724699,17.34001220378566,12.29161601242914,-9999,11716.124872875,-0.0787353515625,0.224884033203125,-0.973846435546875,1,0.76
2020-05-19 20:12:15.160 -0400,1589933534.046576,41.35205645991235,-71.84496997278232,15.93691,0,202.4261407724699,17.34001220378566,12.29161601242914,-9999,11716.174755875,-0.0728759765625,0.225860595703125,-0.9745025634765625,1,0.76
2020-05-19 20:12:15.209 -0400,1589933534.046576,41.35205645991235,-71.84496997278232,15.93691,0,202.4261407724699,17.34001220378566,12.29161601242914,-9999,11716.224637875,-0.0796661376953125,0.225311279296875,-0.9732208251953125,1,0.76
2020-05-19 20:12:15.259 -0400,1589933534.046576,41.35205645991235,-71.84496997278232,15.93691,0,202.4261407724699,17.34001220378566,12.29161601242914,-9999,11716.274519875,-0.0752410888671875,0.2225799560546875,-0.973358154296875,1,0.76
2020-05-19 20:12:15.309 -0400,1589933534.046576,41.35205645991235,-71.84496997278232,15.93691,0,202.4261407724699,17.34001220378566,12.29161601242914,-9999,11716.324400875,-0.0778350830078125,0.2269439697265625,-0.9720458984375,1,0.76
2020-05-19 20:12:15.359 -0400,1589933534.046576,41.35205645991235,-71.84496997278232,15.93691,0,202.4261407724699,17.34001220378566,12.29161601242914,-9999,11716.374281875,-0.08013916015625,0.2229766845703125,-0.9701690673828125,1,0.76
2020-05-19 20:12:15.409 -0400,1589933534.046576,41.35205645991235,-71.84496997278232,15.93691,0,202.4261407724699,17.34001220378566,12.29161601242914,-9999,11716.424163875,-0.0779876708984375,0.2220916748046875,-0.97314453125,1,0.76
2020-05-19 20:12:15.459 -0400,1589933535.008975,41.35205645991235,-71.84496997278232,15.93691,0,202.4261407724699,13.31160243289593,9.09767333638289,-9999,11716.474045875,-0.083953857421875,0.2283172607421875,-0.97265625,1,0.76
2020-05-19 20:12:15.509 -0400,1589933535.008975,41.35205645991235,-71.84496997278232,15.93691,0,202.4261407724699,13.31160243289593,9.09767333638289,-9999,11716.523927875,-0.07623291015625,0.2204742431640625,-0.9732513427734375,1,0.76
2020-05-19 20:12:15.559 -0400,1589933535.008975,41.35205645991235,-71.84496997278232,15.93691,0,202.4261407724699,13.31160243289593,9.09767333638289,-9999,11716.573811875,-0.0799407958984375,0.225555419921875,-0.9733734130859375,1,0.76
2020-05-19 20:12:15.608 -0400,1589933535.008975,41.35205645991235,-71.84496997278232,15.93691,0,202.4261407724699,13.31160243289593,9.09767333638289,-9999,11716.623695875,-0.077850341796875,0.2214202880859375,-0.972320556640625,1,0.76
2020-05-19 20:12:15.658 -0400,1589933535.008975,41.35205645991235,-71.84496997278232,15.93691,0,202.4261407724699,13.31160243289593,9.09767333638289,-9999,11716.673577875,-0.0742340087890625,0.219024658203125,-0.9731292724609375,1,0.76
2020-05-19 20:12:15.708 -0400,1589933535.008975,41.35205645991235,-71.84496997278232,15.93691,0,202.4261407724699,13.31160243289593,9.09767333638289,-9999,11716.723458875,-0.0814056396484375,0.223175048828125,-0.9700775146484375,1,0.76
2020-05-19 20:12:15.758 -0400,1589933535.008975,41.35205645991235,-71.84496997278232,15.93691,0,202.4261407724699,13.31160243289593,9.09767333638289,-9999,11716.773339875,-0.0784759521484375,0.2225494384765625,-0.9743804931640625,1,0.76
2020-05-19 20:12:15.808 -0400,1589933535.008975,41.35205645991235,-71.84496997278232,15.93691,0,202.4261407724699,13.31160243289593,9.09767333638289,-9999,11716.82322166667,-0.0772552490234375,0.2234039306640625,-0.9723968505859375,1,0.76
2020-05-19 20:12:15.858 -0400,1589933535.008975,41.35205645991235,-71.84496997278232,15.93691,0,202.4261407724699,13.31160243289593,9.09767333638289,-9999,11716.87310166667,-0.0795135498046875,0.2257080078125,-0.9735870361328125,1,0.76
2020-05-19 20:12:15.908 -0400,1589933535.008975,41.35205645991235,-71.84496997278232,15.93691,0,202.4261407724699,13.31160243289593,9.09767333638289,-9999,11716.92298066667,-0.0782012939453125,0.22235107421875,-0.974700927734375,1,0.76
2020-05-19 20:12:15.958 -0400,1589933535.008975,41.35205645991235,-71.84496997278232,15.93691,0,202.4261407724699,13.31160243289593,9.09767333638289,-9999,11716.97285866667,-0.0780792236328125,0.225006103515625,-0.9762725830078125,1,0.76
2020-05-19 20:12:16.007 -0400,1589933535.008975,41.35205645991235,-71.84496997278232,15.93691,0,202.4261407724699,13.31160243289593,9.09767333638289,-9999,11717.02273966667,-0.076690673828125,0.2290191650390625,-0.9700775146484375,1,0.76
2020-05-19 20:12:16.057 -0400,1589933535.008975,41.35205645991235,-71.84496997278232,15.93691,0,202.4261407724699,13.31160243289593,9.09767333638289,-9999,11717.07261966667,-0.0780029296875,0.2220611572265625,-0.97406005859375,1,0.76
2020-05-19 20:12:16.108 -0400,1589933535.008975,41.35205645991235,-71.84496997278232,15.93691,0,202.4261407724699,13.31160243289593,9.09767333638289,-9999,11717.12249866667,-0.07989501953125,0.224700927734375,-0.9721832275390625,1,0.76
2020-05-19 20:12:16.157 -0400,1589933535.008975,41.35205645991235,-71.84496997278232,15.93691,0,202.4261407724699,13.31160243289593,9.09767333638289,-9999,11717.17237966667,-0.0790863037109375,0.2209625244140625,-0.97442626953125,1,0.76
2020-05-19 20:12:16.207 -0400,1589933535.008975,41.35205645991235,-71.84496997278232,15.93691,0,202.4261407724699,13.31160243289593,9.09767333638289,-9999,11717.22225866667,-0.0773162841796875,0.2238616943359375,-0.9738311767578125,1,0.76
2020-05-19 20:12:16.257 -0400,1589933535.008975,41.35205645991235,-71.84496997278232,15.93691,0,202.4261407724699,13.31160243289593,9.09767333638289,-9999,11717.27214066667,-0.0798187255859375,0.2213134765625,-0.973968505859375,1,0.76
2020-05-19 20:12:16.307 -0400,1589933535.008975,41.35205645991235,-71.84496997278232,15.93691,0,202.4261407724699,13.31160243289593,9.09767333638289,-9999,11717.32201966667,-0.0787506103515625,0.2214813232421875,-0.9727020263671875,1,0.76
2020-05-19 20:12:16.357 -0400,1589933535.008975,41.35205645991235,-71.84496997278232,15.93691,0,202.4261407724699,13.31160243289593,9.09767333638289,-9999,11717.37190266667,-0.0803070068359375,0.2237396240234375,-0.97222900390625,1,0.76
2020-05-19 20:12:16.407 -0400,1589933536.008382,41.35205645991235,-71.84496997278232,15.93691,0,202.4261407724699,13.26088207336163,9.07023444126043,-9999,11717.42178266667,-0.07623291015625,0.224700927734375,-0.9762725830078125,1,0.76
2020-05-19 20:12:16.457 -0400,1589933536.008382,41.35205645991235,-71.84496997278232,15.93691,0,202.4261407724699,13.26088207336163,9.07023444126043,-9999,11717.47166266667,-0.0784149169921875,0.2251434326171875,-0.9737548828125,1,0.76
2020-05-19 20:12:16.507 -0400,1589933536.008382,41.35205645991235,-71.84496997278232,15.93691,0,202.4261407724699,13.26088207336163,9.07023444126043,-9999,11717.52154266667,-0.083099365234375,0.2272186279296875,-0.9731597900390625,1,0.76
2020-05-19 20:12:16.556 -0400,1589933536.008382,41.35205645991235,-71.84496997278232,15.93691,0,202.4261407724699,13.26088207336163,9.07023444126043,-9999,11717.57142566667,-0.076934814453125,0.2232818603515625,-0.973968505859375,1,0.76
2020-05-19 20:12:16.606 -0400,1589933536.008382,41.35205645991235,-71.84496997278232,15.93691,0,202.4261407724699,13.26088207336163,9.07023444126043,-9999,11717.62130766667,-0.0779876708984375,0.22259521484375,-0.978515625,1,0.76
2020-05-19 20:12:16.656 -0400,1589933536.008382,41.35205645991235,-71.84496997278232,15.93691,0,202.4261407724699,13.26088207336163,9.07023444126043,-9999,11717.67118966667,-0.0771331787109375,0.2257080078125,-0.97088623046875,1,0.76
2020-05-19 20:12:16.706 -0400,1589933536.008382,41.35205645991235,-71.84496997278232,15.93691,0,202.4261407724699,13.26088207336163,9.07023444126043,-9999,11717.72106966667,-0.082122802734375,0.2245941162109375,-0.974456787109375,1,0.76
2020-05-19 20:12:16.756 -0400,1589933536.008382,41.35205645991235,-71.84496997278232,15.93691,0,202.4261407724699,13.26088207336163,9.07023444126043,-9999,11717.77095066667,-0.0821533203125,0.2236785888671875,-0.9702911376953125,1,0.76
2020-05-19 20:12:16.805 -0400,1589933536.008382,41.35205645991235,-71.84496997278232,15.93691,0,202.4261407724699,13.26088207336163,9.07023444126043,-9999,11717.820829625,-0.081329345703125,0.22119140625,-0.9754180908203125,1,0.76
2020-05-19 20:12:16.856 -0400,1589933536.008382,41.35205645991235,-71.84496997278232,15.93691,0,202.4261407724699,13.26088207336163,9.07023444126043,-9999,11717.870711625,-0.0760345458984375,0.2255096435546875,-0.9749298095703125,1,0.76
2020-05-19 20:12:16.905 -0400,1589933536.008382,41.35205645991235,-71.84496997278232,15.93691,0,202.4261407724699,13.26088207336163,9.07023444126043,-9999,11717.920591625,-0.0788116455078125,0.2220306396484375,-0.975067138671875,1,0.76
2020-05-19 20:12:16.955 -0400,1589933536.008382,41.35205645991235,-71.84496997278232,15.93691,0,202.4261407724699,13.26088207336163,9.07023444126043,-9999,11717.970470625,-0.0853118896484375,0.223175048828125,-0.971099853515625,1,0.76
2020-05-19 20:12:17.005 -0400,1589933536.008382,41.35205645991235,-71.84496997278232,15.93691,0,202.4261407724699,13.26088207336163,9.07023444126043,-9999,11718.020348625,-0.0765838623046875,0.2208709716796875,-0.971893310546875,1,0.76
2020-05-19 20:12:17.055 -0400,1589933536.008382,41.35205645991235,-71.84496997278232,15.93691,0,202.4261407724699,13.26088207336163,9.07023444126043,-9999,11718.070226625,-0.07891845703125,0.2270660400390625,-0.973724365234375,1,0.76
2020-05-19 20:12:17.105 -0400,1589933536.008382,41.35205645991235,-71.84496997278232,15.93691,0,202.4261407724699,13.26088207336163,9.07023444126043,-9999,11718.120103625,-0.078643798828125,0.2257232666015625,-0.9730224609375,1,0.76
2020-05-19 20:12:17.155 -0400,1589933536.008382,41.35205645991235,-71.84496997278232,15.93691,0,202.4261407724699,13.26088207336163,9.07023444126043,-9999,11718.169982625,-0.0772247314453125,0.2251739501953125,-0.97503662109375,1,0.76
2020-05-19 20:12:17.205 -0400,1589933536.008382,41.35205645991235,-71.84496997278232,15.93691,0,202.4261407724699,13.26088207336163,9.07023444126043,-9999,11718.219862625,-0.07867431640625,0.2261962890625,-0.9725799560546875,1,0.76
2020-05-19 20:12:17.255 -0400,1589933536.008382,41.35205645991235,-71.84496997278232,15.93691,0,202.4261407724699,13.26088207336163,9.07023444126043,-9999,11718.269744625,-0.078887939453125,0.2256011962890625,-0.974945068359375,1,0.76
2020-05-19 20:12:17.304 -0400,1589933536.008382,41.35205645991235,-71.84496997278232,15.93691,0,202.4261407724699,13.26088207336163,9.07023444126043,-9999,11718.319623625,-0.0783843994140625,0.227752685546875,-0.972381591796875,1,0.76
2020-05-19 20:12:17.355 -0400,1589933537.007839,41.35205645991235,-71.84496997278232,15.93691,0,202.4261407724699,11.79729498444522,7.958255731108853,-9999,11718.369503625,-0.0803375244140625,0.2248382568359375,-0.973388671875,1,0.76
2020-05-19 20:12:17.404 -0400,1589933537.007839,41.35205645991235,-71.84496997278232,15.93691,0,202.4261407724699,11.79729498444522,7.958255731108853,-9999,11718.419381625,-0.0811920166015625,0.2254791259765625,-0.9732513427734375,1,0.76
2020-05-19 20:12:17.454 -0400,1589933537.007839,41.35205645991235,-71.84496997278232,15.93691,0,202.4261407724699,11.79729498444522,7.958255731108853,-9999,11718.469259625,-0.075775146484375,0.2223968505859375,-0.9720458984375,1,0.76
2020-05-19 20:12:17.504 -0400,1589933537.007839,41.35205645991235,-71.84496997278232,15.93691,0,202.4261407724699,11.79729498444522,7.958255731108853,-9999,11718.519139625,-0.0809478759765625,0.2233123779296875,-0.9748992919921875,1,0.76
2020-05-19 20:12:17.554 -0400,1589933537.007839,41.35205645991235,-71.84496997278232,15.93691,0,202.4261407724699,11.79729498444522,7.958255731108853,-9999,11718.569023625,-0.0803985595703125,0.224609375,-0.9734039306640625,1,0.76
2020-05-19 20:12:17.604 -0400,1589933537.007839,41.35205645991235,-71.84496997278232,15.93691,0,202.4261407724699,11.79729498444522,7.958255731108853,-9999,11718.618906625,-0.0812225341796875,0.2236785888671875,-0.9735870361328125,1,0.76
2020-05-19 20:12:17.654 -0400,1589933537.007839,41.35205645991235,-71.84496997278232,15.93691,0,202.4261407724699,11.79729498444522,7.958255731108853,-9999,11718.668789625,-0.07781982421875,0.2225341796875,-0.9728851318359375,1,0.76
2020-05-19 20:12:17.703 -0400,1589933537.007839,41.35205645991235,-71.84496997278232,15.93691,0,202.4261407724699,11.79729498444522,7.958255731108853,-9999,11718.718670625,-0.0797119140625,0.2277984619140625,-0.973175048828125,1,0.76
2020-05-19 20:12:17.753 -0400,1589933537.007839,41.35205645991235,-71.84496997278232,15.93691,0,202.4261407724699,11.79729498444522,7.958255731108853,-9999,11718.768554625,-0.0803680419921875,0.2277069091796875,-0.9748077392578125,1,0.76
2020-05-19 20:12:17.803 -0400,1589933537.007839,41.35205645991235,-71.84496997278232,15.93691,0,202.4261407724699,11.79729498444522,7.958255731108853,-9999,11718.818436625,-0.0781402587890625,0.2232818603515625,-0.9746246337890625,1,0.76
2020-05-19 20:12:17.853 -0400,1589933537.007839,41.35205645991235,-71.84496997278232,15.93691,0,202.4261407724699,11.79729498444522,7.958255731108853,-9999,11718.868316875,-0.0828857421875,0.2256622314453125,-0.9729461669921875,1,0.76
2020-05-19 20:12:17.903 -0400,1589933537.007839,41.35205645991235,-71.84496997278232,15.93691,0,202.4261407724699,11.79729498444522,7.958255731108853,-9999,11718.918199875,-0.077728271484375,0.227996826171875,-0.976318359375,1,0.76
2020-05-19 20:12:17.953 -0400,1589933537.007839,41.35205645991235,-71.84496997278232,15.93691,0,202.4261407724699,11.79729498444522,7.958255731108853,-9999,11718.968080875,-0.0821990966796875,0.2248382568359375,-0.9731597900390625,1,0.76
2020-05-19 20:12:18.003 -0400,1589933537.007839,41.35205645991235,-71.84496997278232,15.93691,0,202.4261407724699,11.79729498444522,7.958255731108853,-9999,11719.017961875,-0.0740814208984375,0.2212982177734375,-0.97967529296875,1,0.76
2020-05-19 20:12:18.053 -0400,1589933537.007839,41.35205645991235,-71.84496997278232,15.93691,0,202.4261407724699,11.79729498444522,7.958255731108853,-9999,11719.067843875,-0.08013916015625,0.2238616943359375,-0.9738311767578125,1,0.76
2020-05-19 20:12:18.102 -0400,1589933537.007839,41.35205645991235,-71.84496997278232,15.93691,0,202.4261407724699,11.79729498444522,7.958255731108853,-9999,11719.117725875,-0.07611083984375,0.2197265625,-0.9693450927734375,1,0.76
2020-05-19 20:12:18.152 -0400,1589933537.007839,41.35205645991235,-71.84496997278232,15.93691,0,202.4261407724699,11.79729498444522,7.958255731108853,-9999,11719.167606875,-0.079925537109375,0.2234039306640625,-0.9720916748046875,1,0.76
2020-05-19 20:12:18.202 -0400,1589933537.007839,41.35205645991235,-71.84496997278232,15.93691,0,202.4261407724699,11.79729498444522,7.958255731108853,-9999,11719.217489875,-0.0822296142578125,0.2427825927734375,-0.973541259765625,1,0.76
2020-05-19 20:12:18.252 -0400,1589933537.007839,41.35205645991235,-71.84496997278232,15.93691,0,202.4261407724699,11.79729498444522,7.958255731108853,-9999,11719.267376875,-0.087432861328125,0.246124267578125,-0.9742889404296875,1,0.76
2020-05-19 20:12:18.302 -0400,1589933537.007839,41.35205645991235,-71.84496997278232,15.93691,0,202.4261407724699,11.79729498444522,7.958255731108853,-9999,11719.317260875,-0.089385986328125,0.2367401123046875,-0.9690704345703125,1,0.76
2020-05-19 20:12:18.352 -0400,1589933538.007323,41.35205645991235,-71.84496997278232,15.93691,0,202.4261407724699,11.0269496239139,7.225178656235031,-9999,11719.367142875,-0.08245849609375,0.2363128662109375,-0.9721527099609375,1,0.76
2020-05-19 20:12:18.402 -0400,1589933538.007323,41.35205645991235,-71.84496997278232,15.93691,0,202.4261407724699,11.0269496239139,7.225178656235031,-9999,11719.417023875,-0.08868408203125,0.235015869140625,-0.963531494140625,1,0.76
2020-05-19 20:12:18.451 -0400,1589933538.007323,41.35205645991235,-71.84496997278232,15.93691,0,202.4261407724699,11.0269496239139,7.225178656235031,-9999,11719.466907875,-0.084228515625,0.2440185546875,-0.9735260009765625,1,0.76
2020-05-19 20:12:18.501 -0400,1589933538.007323,41.35205645991235,-71.84496997278232,15.93691,0,202.4261407724699,11.0269496239139,7.225178656235031,-9999,11719.516791875,-0.0818328857421875,0.236083984375,-0.974212646484375,1,0.76
2020-05-19 20:12:18.551 -0400,1589933538.007323,41.35205645991235,-71.84496997278232,15.93691,0,202.4261407724699,11.0269496239139,7.225178656235031,-9999,11719.566677875,-0.084503173828125,0.23260498046875,-0.988006591796875,1,0.76
2020-05-19 20:12:18.601 -0400,1589933538.007323,41.35205645991235,-71.84496997278232,15.93691,0,202.4261407724699,11.0269496239139,7.225178656235031,-9999,11719.616559875,-0.0880279541015625,0.2551422119140625,-0.956298828125,1,0.76
2020-05-19 20:12:18.651 -0400,1589933538.007323,41.35205645991235,-71.84496997278232,15.93691,0,202.4261407724699,11.0269496239139,7.225178656235031,-9999,11719.666441875,-0.100738525390625,0.1482086181640625,-1.007247924804688,1,0.76
2020-05-19 20:12:18.701 -0400,1589933538.007323,41.35205645991235,-71.84496997278232,15.93691,0,202.4261407724699,11.0269496239139,7.225178656235031,-9999,11719.716322875,-0.088409423828125,0.1080322265625,-1.03564453125,1,0.76
2020-05-19 20:12:18.751 -0400,1589933538.007323,41.35205645991235,-71.84496997278232,15.93691,0,202.4261407724699,11.0269496239139,7.225178656235031,-9999,11719.766203875,-0.0990142822265625,0.2393646240234375,-1.010177612304688,1,0.76
2020-05-19 20:12:18.801 -0400,1589933538.007323,41.35205645991235,-71.84496997278232,15.93691,0,202.4261407724699,11.0269496239139,7.225178656235031,-9999,11719.816083875,-0.1197509765625,0.21917724609375,-0.9782867431640625,1,0.76
2020-05-19 20:12:18.851 -0400,1589933538.007323,41.35205645991235,-71.84496997278232,15.93691,0,202.4261407724699,11.0269496239139,7.225178656235031,-9999,11719.865966125,-0.160614013671875,0.2215423583984375,-0.9724578857421875,1,0.76
2020-05-19 20:12:18.900 -0400,1589933538.007323,41.35205645991235,-71.84496997278232,15.93691,0,202.4261407724699,11.0269496239139,7.225178656235031,-9999,11719.915849125,-0.18682861328125,0.2630615234375,-0.9270172119140625,1,0.76
2020-05-19 20:12:18.950 -0400,1589933538.007323,41.35205645991235,-71.84496997278232,15.93691,0,202.4261407724699,11.0269496239139,7.225178656235031,-9999,11719.965730125,-0.1452789306640625,0.2399444580078125,-0.923675537109375,1,0.76
2020-05-19 20:12:19.000 -0400,1589933538.007323,41.35205645991235,-71.84496997278232,15.93691,0,202.4261407724699,11.0269496239139,7.225178656235031,-9999,11720.015611125,-0.186920166015625,0.1917266845703125,-0.9440765380859375,1,0.76
2020-05-19 20:12:19.050 -0400,1589933538.007323,41.35205645991235,-71.84496997278232,15.93691,0,202.4261407724699,11.0269496239139,7.225178656235031,-9999,11720.065496125,-0.178558349609375,0.2034912109375,-0.9222869873046875,1,0.76
2020-05-19 20:12:19.100 -0400,1589933538.007323,41.35205645991235,-71.84496997278232,15.93691,0,202.4261407724699,11.0269496239139,7.225178656235031,-9999,11720.115377125,-0.1641082763671875,0.24822998046875,-0.9654693603515625,1,0.76
2020-05-19 20:12:19.150 -0400,1589933538.007323,41.35205645991235,-71.84496997278232,15.93691,0,202.4261407724699,11.0269496239139,7.225178656235031,-9999,11720.165259125,-0.1527862548828125,0.2716217041015625,-0.9495849609375,1,0.76
2020-05-19 20:12:19.200 -0400,1589933538.007323,41.35205645991235,-71.84496997278232,15.93691,0,202.4261407724699,11.0269496239139,7.225178656235031,-9999,11720.215141125,-0.1420135498046875,0.2679901123046875,-0.9622650146484375,1,0.76
2020-05-19 20:12:19.250 -0400,1589933538.007323,41.35205645991235,-71.84496997278232,15.93691,0,202.4261407724699,11.0269496239139,7.225178656235031,-9999,11720.265023125,-0.1718597412109375,0.249053955078125,-0.9347076416015625,1,0.76
2020-05-19 20:12:19.299 -0400,1589933538.007323,41.35205645991235,-71.84496997278232,15.93691,0,202.4261407724699,11.0269496239139,7.225178656235031,-9999,11720.314907125,-0.1601104736328125,0.2561492919921875,-0.95684814453125,1,0.76
2020-05-19 20:12:19.350 -0400,1589933538.007323,41.35205645991235,-71.84496997278232,15.93691,0,202.4261407724699,11.0269496239139,7.225178656235031,-9999,11720.364791125,-0.173187255859375,0.246551513671875,-0.9644927978515625,1,0.76
2020-05-19 20:12:19.399 -0400,1589933539.006845,41.35205645991235,-71.84496997278232,15.93691,0,202.4261407724699,20.89698806910758,13.62859052172504,-9999,11720.414677125,-0.160919189453125,0.256439208984375,-0.9698333740234375,1,0.76
2020-05-19 20:12:19.449 -0400,1589933539.006845,41.35205645991235,-71.84496997278232,15.93691,0,202.4261407724699,20.89698806910758,13.62859052172504,-9999,11720.464560125,-0.1469879150390625,0.282928466796875,-0.9593658447265625,1,0.76
2020-05-19 20:12:19.499 -0400,1589933539.006845,41.35205645991235,-71.84496997278232,15.93691,0,202.4261407724699,20.89698806910758,13.62859052172504,-9999,11720.514442125,-0.1551666259765625,0.2542266845703125,-0.952850341796875,1,0.76
2020-05-19 20:12:19.549 -0400,1589933539.006845,41.35205645991235,-71.84496997278232,15.93691,0,202.4261407724699,20.89698806910758,13.62859052172504,-9999,11720.564325125,-0.1649169921875,0.27105712890625,-0.955169677734375,1,0.76
2020-05-19 20:12:19.599 -0400,1589933539.006845,41.35205645991235,-71.84496997278232,15.93691,0,202.4261407724699,20.89698806910758,13.62859052172504,-9999,11720.614209125,-0.1495361328125,0.26556396484375,-0.9482574462890625,1,0.76
2020-05-19 20:12:19.649 -0400,1589933539.006845,41.35205645991235,-71.84496997278232,15.93691,0,202.4261407724699,20.89698806910758,13.62859052172504,-9999,11720.664091125,-0.1612091064453125,0.238983154296875,-0.953094482421875,1,0.76
2020-05-19 20:12:19.698 -0400,1589933539.006845,41.35205645991235,-71.84496997278232,15.93691,0,202.4261407724699,20.89698806910758,13.62859052172504,-9999,11720.713972125,-0.149322509765625,0.2533111572265625,-0.9740447998046875,1,0.76
2020-05-19 20:12:19.748 -0400,1589933539.006845,41.35205645991235,-71.84496997278232,15.93691,0,202.4261407724699,20.89698806910758,13.62859052172504,-9999,11720.763854125,-0.156341552734375,0.2342681884765625,-0.9765167236328125,1,0.76
2020-05-19 20:12:19.798 -0400,1589933539.006845,41.35205645991235,-71.84496997278232,15.93691,0,202.4261407724699,20.89698806910758,13.62859052172504,-9999,11720.813737125,-0.1544952392578125,0.2445068359375,-0.943023681640625,1,0.76
2020-05-19 20:12:19.848 -0400,1589933539.006845,41.35205645991235,-71.84496997278232,15.93691,0,202.4261407724699,20.89698806910758,13.62859052172504,-9999,11720.86361816667,-0.14691162109375,0.238128662109375,-0.9551544189453125,1,0.76
2020-05-19 20:12:19.898 -0400,1589933539.006845,41.35205645991235,-71.84496997278232,15.93691,0,202.4261407724699,20.89698806910758,13.62859052172504,-9999,11720.91349916667,-0.142791748046875,0.2166748046875,-0.968902587890625,1,0.76
2020-05-19 20:12:19.948 -0400,1589933539.006845,41.35205645991235,-71.84496997278232,15.93691,0,202.4261407724699,20.89698806910758,13.62859052172504,-9999,11720.96337916667,-0.125335693359375,0.2408599853515625,-0.9934844970703125,1,0.76
2020-05-19 20:12:19.998 -0400,1589933539.006845,41.35205645991235,-71.84496997278232,15.93691,0,202.4261407724699,20.89698806910758,13.62859052172504,-9999,11721.01326016667,-0.13427734375,0.2488555908203125,-0.934600830078125,1,0.76
2020-05-19 20:12:20.048 -0400,1589933539.006845,41.35205645991235,-71.84496997278232,15.93691,0,202.4261407724699,20.89698806910758,13.62859052172504,-9999,11721.06314016667,-0.132232666015625,0.2031402587890625,-0.9626617431640625,1,0.76
2020-05-19 20:12:20.097 -0400,1589933539.006845,41.35205645991235,-71.84496997278232,15.93691,0,202.4261407724699,20.89698806910758,13.62859052172504,-9999,11721.11301916667,-0.1408233642578125,0.214630126953125,-0.942413330078125,1,0.76
2020-05-19 20:12:20.147 -0400,1589933539.006845,41.35205645991235,-71.84496997278232,15.93691,0,202.4261407724699,20.89698806910758,13.62859052172504,-9999,11721.16290016667,-0.15081787109375,0.1901702880859375,-0.9102935791015625,1,0.76
2020-05-19 20:12:20.197 -0400,1589933539.006845,41.35205645991235,-71.84496997278232,15.93691,0,202.4261407724699,20.89698806910758,13.62859052172504,-9999,11721.21277916667,-0.15478515625,0.24749755859375,-1.097122192382812,1,0.76
2020-05-19 20:12:20.247 -0400,1589933539.006845,41.35205645991235,-71.84496997278232,15.93691,0,202.4261407724699,20.89698806910758,13.62859052172504,-9999,11721.26266116667,-0.1825714111328125,0.1716461181640625,-0.8926849365234375,1,0.76
2020-05-19 20:12:20.297 -0400,1589933539.006845,41.35205645991235,-71.84496997278232,15.93691,0,202.4261407724699,20.89698806910758,13.62859052172504,-9999,11721.31254216667,-0.138580322265625,0.30059814453125,-0.9351806640625,1,0.76
2020-05-19 20:12:20.347 -0400,1589933539.006845,41.35205645991235,-71.84496997278232,15.93691,0,202.4261407724699,20.89698806910758,13.62859052172504,-9999,11721.36242516667,-0.1323394775390625,0.3073272705078125,-0.9331207275390625,1,0.76
2020-05-19 20:12:20.397 -0400,1589933540.006398,41.35205645991235,-71.84496997278232,15.93691,0,202.4261407724699,22.76289745419312,14.33893170640547,-9999,11721.41230716667,-0.110931396484375,0.4411163330078125,-0.9120025634765625,1,0.76
2020-05-19 20:12:20.447 -0400,1589933540.006398,41.35205645991235,-71.84496997278232,15.93691,0,202.4261407724699,22.76289745419312,14.33893170640547,-9999,11721.46218716667,-0.1127471923828125,0.310455322265625,-0.8352813720703125,1,0.76
2020-05-19 20:12:20.497 -0400,1589933540.006398,41.35205645991235,-71.84496997278232,15.93691,0,202.4261407724699,22.76289745419312,14.33893170640547,-9999,11721.51206816667,-0.110809326171875,0.34490966796875,-0.8955230712890625,1,0.76
2020-05-19 20:12:20.546 -0400,1589933540.006398,41.35205645991235,-71.84496997278232,15.93691,0,202.4261407724699,22.76289745419312,14.33893170640547,-9999,11721.56194916667,-0.134246826171875,0.393829345703125,-0.9757843017578125,1,0.76
2020-05-19 20:12:20.596 -0400,1589933540.006398,41.35205645991235,-71.84496997278232,15.93691,0,202.4261407724699,22.76289745419312,14.33893170640547,-9999,11721.61183016667,-0.140472412109375,0.273895263671875,-1.056137084960938,1,0.76
2020-05-19 20:12:20.646 -0400,1589933540.006398,41.35205645991235,-71.84496997278232,15.93691,0,202.4261407724699,22.76289745419312,14.33893170640547,-9999,11721.66171316667,-0.1187591552734375,0.3306884765625,-0.89666748046875,1,0.76
2020-05-19 20:12:20.696 -0400,1589933540.006398,41.35205645991235,-71.84496997278232,15.93691,0,202.4261407724699,22.76289745419312,14.33893170640547,-9999,11721.71159716667,-0.153900146484375,0.369842529296875,-0.9306488037109375,1,0.76
2020-05-19 20:12:20.746 -0400,1589933540.006398,41.35205645991235,-71.84496997278232,15.93691,0,202.4261407724699,22.76289745419312,14.33893170640547,-9999,11721.76147916667,-0.1064910888671875,0.1748046875,-0.97760009765625,1,0.76
2020-05-19 20:12:20.796 -0400,1589933540.006398,41.35205645991235,-71.84496997278232,15.93691,0,202.4261407724699,22.76289745419312,14.33893170640547,-9999,11721.81136416667,-0.1259307861328125,0.37384033203125,-0.9851531982421875,1,0.76
2020-05-19 20:12:20.846 -0400,1589933540.006398,41.35205645991235,-71.84496997278232,15.93691,0,202.4261407724699,22.76289745419312,14.33893170640547,-9999,11721.861253375,-0.18927001953125,0.2282257080078125,-0.938995361328125,1,0.76
2020-05-19 20:12:20.895 -0400,1589933540.006398,41.35205645991235,-71.84496997278232,15.93691,0,202.4261407724699,22.76289745419312,14.33893170640547,-9999,11721.911136375,-0.1156005859375,0.2640228271484375,-0.8170928955078125,1,0.76
2020-05-19 20:12:20.946 -0400,1589933540.006398,41.35205645991235,-71.84496997278232,15.93691,0,202.4261407724699,22.76289745419312,14.33893170640547,-9999,11721.961018375,-0.14056396484375,0.1630401611328125,-1.127792358398438,1,0.76
2020-05-19 20:12:20.995 -0400,1589933540.006398,41.35205645991235,-71.84496997278232,15.93691,0,202.4261407724699,22.76289745419312,14.33893170640547,-9999,11722.010901375,-0.264923095703125,0.2588958740234375,-0.9828948974609375,1,0.76
2020-05-19 20:12:21.045 -0400,1589933540.006398,41.35205645991235,-71.84496997278232,15.93691,0,202.4261407724699,22.76289745419312,14.33893170640547,-9999,11722.060783375,-0.190460205078125,0.118194580078125,-0.9592132568359375,1,0.76
2020-05-19 20:12:21.095 -0400,1589933540.006398,41.35205645991235,-71.84496997278232,15.93691,0,202.4261407724699,22.76289745419312,14.33893170640547,-9999,11722.110666375,0.0247344970703125,0.214752197265625,-0.938690185546875,1,0.76
2020-05-19 20:12:21.145 -0400,1589933540.006398,41.35205645991235,-71.84496997278232,15.93691,0,202.4261407724699,22.76289745419312,14.33893170640547,-9999,11722.160548375,0.0045318603515625,0.15234375,-0.8349151611328125,1,0.76
2020-05-19 20:12:21.195 -0400,1589933540.006398,41.35205645991235,-71.84496997278232,15.93691,0,202.4261407724699,22.76289745419312,14.33893170640547,-9999,11722.210430375,0.0586395263671875,0.3041229248046875,-1.133209228515625,1,0.76
2020-05-19 20:12:21.245 -0400,1589933540.006398,41.35205645991235,-71.84496997278232,15.93691,0,202.4261407724699,22.76289745419312,14.33893170640547,-9999,11722.260309375,-0.2243499755859375,0.126708984375,-1.11822509765625,1,0.76
2020-05-19 20:12:21.295 -0400,1589933540.006398,41.35205645991235,-71.84496997278232,15.93691,0,202.4261407724699,22.76289745419312,14.33893170640547,-9999,11722.310188375,-0.2722930908203125,0.172149658203125,-0.9348907470703125,1,0.76
2020-05-19 20:12:21.346 -0400,1589933540.006398,41.35205645991235,-71.84496997278232,15.93691,0,202.4261407724699,22.76289745419312,14.33893170640547,-9999,11722.360066375,-0.08172607421875,0.2612457275390625,-0.9064178466796875,1,0.76
2020-05-19 20:12:21.395 -0400,1589933541.005988,41.35205645991235,-71.84496997278232,15.93691,0,202.4261407724699,21.52253796623383,13.20403853924567,-9999,11722.409947375,-0.108978271484375,0.2214508056640625,-1.018463134765625,1,0.76
2020-05-19 20:12:21.444 -0400,1589933541.005988,41.35205645991235,-71.84496997278232,15.93691,0,202.4261407724699,21.52253796623383,13.20403853924567,-9999,11722.459826375,-0.135711669921875,0.335479736328125,-0.97528076171875,1,0.76
2020-05-19 20:12:21.494 -0400,1589933541.005988,41.35205645991235,-71.84496997278232,15.93691,0,202.4261407724699,21.52253796623383,13.20403853924567,-9999,11722.509706375,-0.0964508056640625,0.278411865234375,-0.998779296875,1,0.76
2020-05-19 20:12:21.544 -0400,1589933541.005988,41.35205645991235,-71.84496997278232,15.93691,0,202.4261407724699,21.52253796623383,13.20403853924567,-9999,11722.559588375,-0.0589599609375,0.3692779541015625,-0.927154541015625,1,0.76
2020-05-19 20:12:21.598 -0400,1589933541.005988,41.35205645991235,-71.84496997278232,15.93691,0,202.4261407724699,21.52253796623383,13.20403853924567,-9999,11722.609469375,-0.1100921630859375,0.25537109375,-0.93988037109375,1,0.76
2020-05-19 20:12:21.644 -0400,1589933541.005988,41.35205645991235,-71.84496997278232,15.93691,0,202.4261407724699,21.52253796623383,13.20403853924567,-9999,11722.659348375,-0.0880279541015625,0.2215118408203125,-0.957733154296875,1,0.76
2020-05-19 20:12:21.694 -0400,1589933541.005988,41.35205645991235,-71.84496997278232,15.93691,0,202.4261407724699,21.52253796623383,13.20403853924567,-9999,11722.709230375,-0.0797576904296875,0.3382568359375,-0.927764892578125,1,0.76
2020-05-19 20:12:21.743 -0400,1589933541.005988,41.35205645991235,-71.84496997278232,15.93691,0,202.4261407724699,21.52253796623383,13.20403853924567,-9999,11722.759113375,-0.116607666015625,0.222686767578125,-1.01922607421875,1,0.76
2020-05-19 20:12:21.793 -0400,1589933541.005988,41.35205645991235,-71.84496997278232,15.93691,0,202.4261407724699,21.52253796623383,13.20403853924567,-9999,11722.808992375,-0.1281280517578125,0.2500762939453125,-0.9499359130859375,1,0.76
2020-05-19 20:12:21.843 -0400,1589933541.005988,41.35205645991235,-71.84496997278232,15.93691,0,202.4261407724699,21.52253796623383,13.20403853924567,-9999,11722.8588735,-0.0907745361328125,0.3359222412109375,-0.9037933349609375,1,0.76
2020-05-19 20:12:21.893 -0400,1589933541.005988,41.35205645991235,-71.84496997278232,15.93691,0,202.4261407724699,21.52253796623383,13.20403853924567,-9999,11722.9087545,-0.050323486328125,0.1663818359375,-0.9965362548828125,1,0.76
2020-05-19 20:12:21.943 -0400,1589933541.005988,41.35205645991235,-71.84496997278232,15.93691,0,202.4261407724699,21.52253796623383,13.20403853924567,-9999,11722.9586365,-0.1044464111328125,0.3076019287109375,-0.9208221435546875,1,0.76
2020-05-19 20:12:21.993 -0400,1589933541.005988,41.35205645991235,-71.84496997278232,15.93691,0,202.4261407724699,21.52253796623383,13.20403853924567,-9999,11723.0085165,-0.123138427734375,0.332427978515625,-0.91546630859375,1,0.76
2020-05-19 20:12:22.043 -0400,1589933541.005988,41.35205645991235,-71.84496997278232,15.93691,0,202.4261407724699,21.52253796623383,13.20403853924567,-9999,11723.0583995,-0.1291351318359375,0.23797607421875,-0.9941558837890625,1,0.76
2020-05-19 20:12:22.093 -0400,1589933541.005988,41.35205645991235,-71.84496997278232,15.93691,0,202.4261407724699,21.52253796623383,13.20403853924567,-9999,11723.1082815,-0.1162872314453125,0.2824249267578125,-0.9783477783203125,1,0.76
2020-05-19 20:12:22.143 -0400,1589933541.005988,41.35205645991235,-71.84496997278232,15.93691,0,202.4261407724699,21.52253796623383,13.20403853924567,-9999,11723.1581635,-0.0834808349609375,0.330657958984375,-0.9538421630859375,1,0.76
2020-05-19 20:12:22.192 -0400,1589933541.005988,41.35205645991235,-71.84496997278232,15.93691,0,202.4261407724699,21.52253796623383,13.20403853924567,-9999,11723.2080455,-0.091339111328125,0.261077880859375,-0.9682769775390625,1,0.76
2020-05-19 20:12:22.242 -0400,1589933541.005988,41.35205645991235,-71.84496997278232,15.93691,0,202.4261407724699,21.52253796623383,13.20403853924567,-9999,11723.2579265,-0.1128997802734375,0.268218994140625,-0.9649810791015625,1,0.76
2020-05-19 20:12:22.292 -0400,1589933541.005988,41.35205645991235,-71.84496997278232,15.93691,0,202.4261407724699,21.52253796623383,13.20403853924567,-9999,11723.3078085,-0.1015777587890625,0.2473602294921875,-0.97796630859375,1,0.76
2020-05-19 20:12:22.342 -0400,1589933541.005988,41.35205645991235,-71.84496997278232,15.93691,0,202.4261407724699,21.52253796623383,13.20403853924567,-9999,11723.3576915,-0.11480712890625,0.2855377197265625,-0.9604339599609375,1,0.76
2020-05-19 20:12:22.392 -0400,1589933541.005988,41.35205645991235,-71.84496997278232,15.93691,0,202.4261407724699,21.52253796623383,13.20403853924567,-9999,11723.4075735,-0.089569091796875,0.2655029296875,-0.9545745849609375,1,0.76
2020-05-19 20:12:22.442 -0400,1589933542.005599,41.35205645991235,-71.84496997278232,15.93691,0,202.4261407724699,24.55383468120041,14.88081597426985,-9999,11723.4574555,-0.1060943603515625,0.287261962890625,-0.964599609375,1,0.76
2020-05-19 20:12:22.492 -0400,1589933542.005599,41.35205645991235,-71.84496997278232,15.93691,0,202.4261407724699,24.55383468120041,14.88081597426985,-9999,11723.5073385,-0.1074371337890625,0.28997802734375,-0.9570159912109375,1,0.76
2020-05-19 20:12:22.542 -0400,1589933542.005599,41.35205645991235,-71.84496997278232,15.93691,0,202.4261407724699,24.55383468120041,14.88081597426985,-9999,11723.5572165,-0.100616455078125,0.269073486328125,-0.9609832763671875,1,0.76
2020-05-19 20:12:22.592 -0400,1589933542.005599,41.35205645991235,-71.84496997278232,15.93691,0,202.4261407724699,24.55383468120041,14.88081597426985,-9999,11723.6070945,-0.0992279052734375,0.29217529296875,-0.9606781005859375,1,0.76
2020-05-19 20:12:22.641 -0400,1589933542.005599,41.35205645991235,-71.84496997278232,15.93691,0,202.4261407724699,24.55383468120041,14.88081597426985,-9999,11723.6569725,-0.09808349609375,0.2652435302734375,-0.96697998046875,1,0.76
2020-05-19 20:12:22.691 -0400,1589933542.005599,41.35205645991235,-71.84496997278232,15.93691,0,202.4261407724699,24.55383468120041,14.88081597426985,-9999,11723.7068475,-0.0961761474609375,0.2589874267578125,-0.955780029296875,1,0.76
2020-05-19 20:12:22.741 -0400,1589933542.005599,41.35205645991235,-71.84496997278232,15.93691,0,202.4261407724699,24.55383468120041,14.88081597426985,-9999,11723.7567255,-0.111053466796875,0.2796478271484375,-0.974700927734375,1,0.76
2020-05-19 20:12:22.791 -0400,1589933542.005599,41.35205645991235,-71.84496997278232,15.93691,0,202.4261407724699,24.55383468120041,14.88081597426985,-9999,11723.8066055,-0.0895538330078125,0.349884033203125,-0.9247589111328125,1,0.76
2020-05-19 20:12:22.841 -0400,1589933542.005599,41.35205645991235,-71.84496997278232,15.93691,0,202.4261407724699,24.55383468120041,14.88081597426985,-9999,11723.856485875,-0.059356689453125,0.2786407470703125,-0.9529571533203125,1,0.76
2020-05-19 20:12:22.891 -0400,1589933542.005599,41.35205645991235,-71.84496997278232,15.93691,0,202.4261407724699,24.55383468120041,14.88081597426985,-9999,11723.906364875,-0.0866546630859375,0.1968231201171875,-0.9696807861328125,1,0.76
2020-05-19 20:12:22.941 -0400,1589933542.005599,41.35205645991235,-71.84496997278232,15.93691,0,202.4261407724699,24.55383468120041,14.88081597426985,-9999,11723.956242875,-0.132568359375,0.3559112548828125,-0.943450927734375,1,0.76
2020-05-19 20:12:22.990 -0400,1589933542.005599,41.35205645991235,-71.84496997278232,15.93691,0,202.4261407724699,24.55383468120041,14.88081597426985,-9999,11724.006122875,-0.140228271484375,0.2354278564453125,-1.003067016601562,1,0.76
2020-05-19 20:12:23.040 -0400,1589933542.005599,41.35205645991235,-71.84496997278232,15.93691,0,202.4261407724699,24.55383468120041,14.88081597426985,-9999,11724.056003875,-0.082611083984375,0.2235565185546875,-0.951995849609375,1,0.76
2020-05-19 20:12:23.090 -0400,1589933542.005599,41.35205645991235,-71.84496997278232,15.93691,0,202.4261407724699,24.55383468120041,14.88081597426985,-9999,11724.105885875,-0.0791778564453125,0.31475830078125,-0.9209136962890625,1,0.76
2020-05-19 20:12:23.140 -0400,1589933542.005599,41.35205645991235,-71.84496997278232,15.93691,0,202.4261407724699,24.55383468120041,14.88081597426985,-9999,11724.155765875,-0.1207122802734375,0.2664947509765625,-0.9836883544921875,1,0.76
2020-05-19 20:12:23.190 -0400,1589933542.005599,41.35205645991235,-71.84496997278232,15.93691,0,202.4261407724699,24.55383468120041,14.88081597426985,-9999,11724.205646875,-0.135009765625,0.2894134521484375,-0.9605712890625,1,0.76
2020-05-19 20:12:23.247 -0400,1589933542.005599,41.35205645991235,-71.84496997278232,15.93691,0,202.4261407724699,24.55383468120041,14.88081597426985,-9999,11724.255526875,-0.1192779541015625,0.2635345458984375,-0.9591522216796875,1,0.76
2020-05-19 20:12:23.290 -0400,1589933543.005235,41.35205645991235,-71.84496997278232,15.93691,0,202.4261407724699,15.06097886416929,9.335324625986759,-9999,11724.305406875,-0.1085357666015625,0.290313720703125,-0.9560394287109375,1,0.76
2020-05-19 20:12:23.340 -0400,1589933543.005235,41.35205645991235,-71.84496997278232,15.93691,0,202.4261407724699,15.06097886416929,9.335324625986759,-9999,11724.355288875,-0.1021575927734375,0.2603607177734375,-0.9593963623046875,1,0.76
2020-05-19 20:12:23.389 -0400,1589933543.005235,41.35205645991235,-71.84496997278232,15.93691,0,202.4261407724699,15.06097886416929,9.335324625986759,-9999,11724.405172875,-0.1091461181640625,0.259002685546875,-0.974578857421875,1,0.76
2020-05-19 20:12:23.439 -0400,1589933543.005235,41.35205645991235,-71.84496997278232,15.93691,0,202.4261407724699,15.06097886416929,9.335324625986759,-9999,11724.455056875,-0.1219635009765625,0.281402587890625,-0.9584808349609375,1,0.76
2020-05-19 20:12:23.489 -0400,1589933543.005235,41.35205645991235,-71.84496997278232,15.93691,0,202.4261407724699,15.06097886416929,9.335324625986759,-9999,11724.504938875,-0.0835723876953125,0.2353057861328125,-0.92742919921875,1,0.76
2020-05-19 20:12:23.539 -0400,1589933543.005235,41.35205645991235,-71.84496997278232,15.93691,0,202.4261407724699,15.06097886416929,9.335324625986759,-9999,11724.554822875,-0.0963134765625,0.248443603515625,-0.9782562255859375,1,0.76
2020-05-19 20:12:23.589 -0400,1589933543.005235,41.35205645991235,-71.84496997278232,15.93691,0,202.4261407724699,15.06097886416929,9.335324625986759,-9999,11724.604706875,-0.1417236328125,0.1402740478515625,-1.025115966796875,1,0.76
2020-05-19 20:12:23.639 -0400,1589933543.005235,41.35205645991235,-71.84496997278232,15.93691,0,202.4261407724699,15.06097886416929,9.335324625986759,-9999,11724.654591875,-0.1263580322265625,0.31591796875,-0.9187774658203125,1,0.76
2020-05-19 20:12:23.689 -0400,1589933543.005235,41.35205645991235,-71.84496997278232,15.93691,0,202.4261407724699,15.06097886416929,9.335324625986759,-9999,11724.704478875,-0.1259307861328125,0.099365234375,-0.9783477783203125,1,0.76
2020-05-19 20:12:23.739 -0400,1589933543.005235,41.35205645991235,-71.84496997278232,15.93691,0,202.4261407724699,15.06097886416929,9.335324625986759,-9999,11724.754359875,-0.1132354736328125,0.37969970703125,-0.9706268310546875,1,0.76
2020-05-19 20:12:23.788 -0400,1589933543.005235,41.35205645991235,-71.84496997278232,15.93691,0,202.4261407724699,15.06097886416929,9.335324625986759,-9999,11724.804239875,-0.09393310546875,0.0805511474609375,-0.90264892578125,1,0.76
2020-05-19 20:12:23.838 -0400,1589933543.005235,41.35205645991235,-71.84496997278232,15.93691,0,202.4261407724699,15.06097886416929,9.335324625986759,-9999,11724.85412266667,-0.0666351318359375,0.3242645263671875,-0.930450439453125,1,0.76
2020-05-19 20:12:23.889 -0400,1589933543.005235,41.35205645991235,-71.84496997278232,15.93691,0,202.4261407724699,15.06097886416929,9.335324625986759,-9999,11724.90400366667,-0.0511322021484375,0.2070770263671875,-0.97918701171875,1,0.76
2020-05-19 20:12:23.938 -0400,1589933543.005235,41.35205645991235,-71.84496997278232,15.93691,0,202.4261407724699,15.06097886416929,9.335324625986759,-9999,11724.95388366667,-0.207855224609375,0.240631103515625,-1.016403198242188,1,0.76
2020-05-19 20:12:23.988 -0400,1589933543.005235,41.35205645991235,-71.84496997278232,15.93691,0,202.4261407724699,15.06097886416929,9.335324625986759,-9999,11725.00376466667,-0.14031982421875,0.2323760986328125,-0.98101806640625,1,0.76
2020-05-19 20:12:24.038 -0400,1589933543.005235,41.35205645991235,-71.84496997278232,15.93691,0,202.4261407724699,15.06097886416929,9.335324625986759,-9999,11725.05364566667,-0.104400634765625,0.215728759765625,-0.961761474609375,1,0.76
2020-05-19 20:12:24.088 -0400,1589933543.005235,41.35205645991235,-71.84496997278232,15.93691,0,202.4261407724699,15.06097886416929,9.335324625986759,-9999,11725.10352666667,-0.1026458740234375,0.282806396484375,-0.9621734619140625,1,0.76
2020-05-19 20:12:24.138 -0400,1589933543.005235,41.35205645991235,-71.84496997278232,15.93691,0,202.4261407724699,15.06097886416929,9.335324625986759,-9999,11725.15340766667,-0.1177520751953125,0.262969970703125,-0.965850830078125,1,0.76
2020-05-19 20:12:24.188 -0400,1589933543.005235,41.35205645991235,-71.84496997278232,15.93691,0,202.4261407724699,15.06097886416929,9.335324625986759,-9999,11725.20328966667,-0.1089019775390625,0.3049468994140625,-0.961212158203125,1,0.76
2020-05-19 20:12:24.237 -0400,1589933543.005235,41.35205645991235,-71.84496997278232,15.93691,0,202.4261407724699,15.06097886416929,9.335324625986759,-9999,11725.25317066667,-0.13177490234375,0.3266143798828125,-0.97613525390625,1,0.76
2020-05-19 20:12:24.287 -0400,1589933543.005235,41.35205645991235,-71.84496997278232,15.93691,0,202.4261407724699,15.06097886416929,9.335324625986759,-9999,11725.30305566667,-0.1069183349609375,0.29864501953125,-0.8637847900390625,1,0.76
2020-05-19 20:12:24.337 -0400,1589933543.005235,41.35205645991235,-71.84496997278232,15.93691,0,202.4261407724699,15.06097886416929,9.335324625986759,-9999,11725.35293966667,-0.047271728515625,0.4509124755859375,-0.916107177734375,1,0.76
2020-05-19 20:12:24.387 -0400,1589933543.005235,41.35205645991235,-71.84496997278232,15.93691,0,202.4261407724699,15.06097886416929,9.335324625986759,-9999,11725.40282466667,-0.1376953125,0.35980224609375,-0.93035888671875,1,0.76
2020-05-19 20:12:24.437 -0400,1589933543.005235,41.35205645991235,-71.84496997278232,15.93691,0,202.4261407724699,15.06097886416929,9.335324625986759,-9999,11725.45270866667,-0.150604248046875,0.2521209716796875,-0.99334716796875,1,0.76
2020-05-19 20:12:24.487 -0400,1589933543.005235,41.35205645991235,-71.84496997278232,15.93691,0,202.4261407724699,15.06097886416929,9.335324625986759,-9999,11725.50259366667,-0.1221466064453125,0.3193206787109375,-0.9790191650390625,1,0.76
2020-05-19 20:12:24.536 -0400,1589933543.005235,41.35205645991235,-71.84496997278232,15.93691,0,202.4261407724699,15.06097886416929,9.335324625986759,-9999,11725.55247766667,-0.1046600341796875,0.3348236083984375,-0.91650390625,1,0.76
2020-05-19 20:12:24.595 -0400,1589933543.005235,41.35205645991235,-71.84496997278232,15.93691,0,202.4261407724699,15.06097886416929,9.335324625986759,-9999,11725.60235866667,-0.08050537109375,0.354400634765625,-0.899261474609375,1,0.76
2020-05-19 20:12:24.637 -0400,1589933544.004896,41.35205645991235,-71.84496997278232,15.93691,0,202.4261407724699,16.65548953424157,10.10584941224788,-9999,11725.65223866667,-0.1482696533203125,0.2900390625,-0.9693450927734375,1,0.76
2020-05-19 20:12:24.687 -0400,1589933544.004896,41.35205645991235,-71.84496997278232,15.93691,0,202.4261407724699,16.65548953424157,10.10584941224788,-9999,11725.70212066667,-0.068084716796875,0.255706787109375,-0.882293701171875,1,0.76
2020-05-19 20:12:24.736 -0400,1589933544.004896,41.35205645991235,-71.84496997278232,15.93691,0,202.4261407724699,16.65548953424157,10.10584941224788,-9999,11725.75200066667,-0.087982177734375,0.4087371826171875,-0.9070587158203125,1,0.76
2020-05-19 20:12:24.786 -0400,1589933544.004896,41.35205645991235,-71.84496997278232,15.93691,0,202.4261407724699,16.65548953424157,10.10584941224788,-9999,11725.80187966667,-0.14837646484375,0.28863525390625,-1.0185546875,1,0.76
2020-05-19 20:12:24.836 -0400,1589933544.004896,41.35205645991235,-71.84496997278232,15.93691,0,202.4261407724699,16.65548953424157,10.10584941224788,-9999,11725.851763125,-0.098907470703125,0.3838958740234375,-0.8968963623046875,1,0.76
2020-05-19 20:12:24.886 -0400,1589933544.004896,41.35205645991235,-71.84496997278232,15.93691,0,202.4261407724699,16.65548953424157,10.10584941224788,-9999,11725.901645125,-0.134307861328125,0.2616729736328125,-0.996002197265625,1,0.76
2020-05-19 20:12:24.936 -0400,1589933544.004896,41.35205645991235,-71.84496997278232,15.93691,0,202.4261407724699,16.65548953424157,10.10584941224788,-9999,11725.951528125,-0.2170867919921875,0.2463836669921875,-1.034133911132812,1,0.76
2020-05-19 20:12:24.986 -0400,1589933544.004896,41.35205645991235,-71.84496997278232,15.93691,0,202.4261407724699,16.65548953424157,10.10584941224788,-9999,11726.001409125,-0.1879425048828125,0.085113525390625,-0.973785400390625,1,0.76
2020-05-19 20:12:25.035 -0400,1589933544.004896,41.35205645991235,-71.84496997278232,15.93691,0,202.4261407724699,16.65548953424157,10.10584941224788,-9999,11726.051291125,-0.1103363037109375,0.1400604248046875,-0.939910888671875,1,0.76
2020-05-19 20:12:25.086 -0400,1589933544.004896,41.35205645991235,-71.84496997278232,15.93691,0,202.4261407724699,16.65548953424157,10.10584941224788,-9999,11726.101174125,-0.052093505859375,0.1623687744140625,-0.7896881103515625,1,0.76
2020-05-19 20:12:25.135 -0400,1589933544.004896,41.35205645991235,-71.84496997278232,15.93691,0,202.4261407724699,16.65548953424157,10.10584941224788,-9999,11726.151057125,0.110565185546875,0.28533935546875,-1.058807373046875,1,0.76
2020-05-19 20:12:25.185 -0400,1589933544.004896,41.35205645991235,-71.84496997278232,15.93691,0,202.4261407724699,16.65548953424157,10.10584941224788,-9999,11726.200940125,-0.0640869140625,0.286895751953125,-0.9375152587890625,1,0.76
2020-05-19 20:12:25.235 -0400,1589933544.004896,41.35205645991235,-71.84496997278232,15.93691,0,202.4261407724699,16.65548953424157,10.10584941224788,-9999,11726.250822125,-0.1734619140625,0.2408905029296875,-0.973388671875,1,0.76
2020-05-19 20:12:25.285 -0400,1589933544.004896,41.35205645991235,-71.84496997278232,15.93691,0,202.4261407724699,16.65548953424157,10.10584941224788,-9999,11726.300701125,-0.189727783203125,0.257720947265625,-0.9873809814453125,1,0.76
2020-05-19 20:12:25.335 -0400,1589933545.004575,41.35205645991235,-71.84496997278232,15.93691,0,202.4261407724699,10.87814319422854,6.685290326125391,-9999,11726.350577125,-0.1708526611328125,0.1909942626953125,-1.007308959960938,1,0.76
2020-05-19 20:12:25.385 -0400,1589933545.004575,41.35205645991235,-71.84496997278232,15.93691,0,202.4261407724699,10.87814319422854,6.685290326125391,-9999,11726.400458125,-0.104888916015625,0.25067138671875,-0.9642486572265625,1,0.76
2020-05-19 20:12:25.435 -0400,1589933545.004575,41.35205645991235,-71.84496997278232,15.93691,0,202.4261407724699,10.87814319422854,6.685290326125391,-9999,11726.450339125,-0.0786590576171875,0.3312225341796875,-0.9571075439453125,1,0.76
2020-05-19 20:12:25.485 -0400,1589933545.004575,41.35205645991235,-71.84496997278232,15.93691,0,202.4261407724699,10.87814319422854,6.685290326125391,-9999,11726.500221125,-0.066680908203125,0.2801361083984375,-0.9627838134765625,1,0.76
2020-05-19 20:12:25.534 -0400,1589933545.004575,41.35205645991235,-71.84496997278232,15.93691,0,202.4261407724699,10.87814319422854,6.685290326125391,-9999,11726.550101125,-0.0999298095703125,0.31634521484375,-0.92919921875,1,0.76
2020-05-19 20:12:25.584 -0400,1589933545.004575,41.35205645991235,-71.84496997278232,15.93691,0,202.4261407724699,10.87814319422854,6.685290326125391,-9999,11726.599981125,-0.1656951904296875,0.284912109375,-0.9467010498046875,1,0.76
2020-05-19 20:12:25.634 -0400,1589933545.004575,41.35205645991235,-71.84496997278232,15.93691,0,202.4261407724699,10.87814319422854,6.685290326125391,-9999,11726.649862125,-0.189239501953125,0.20770263671875,-1.020156860351562,1,0.76
2020-05-19 20:12:25.684 -0400,1589933545.004575,41.35205645991235,-71.84496997278232,15.93691,0,202.4261407724699,10.87814319422854,6.685290326125391,-9999,11726.699742125,-0.1229095458984375,0.310791015625,-0.960174560546875,1,0.76
2020-05-19 20:12:25.734 -0400,1589933545.004575,41.35205645991235,-71.84496997278232,15.93691,0,202.4261407724699,10.87814319422854,6.685290326125391,-9999,11726.749621125,-0.104736328125,0.27960205078125,-0.9475555419921875,1,0.76
2020-05-19 20:12:25.784 -0400,1589933545.004575,41.35205645991235,-71.84496997278232,15.93691,0,202.4261407724699,10.87814319422854,6.685290326125391,-9999,11726.799501125,-0.108001708984375,0.3003387451171875,-0.94329833984375,1,0.76
2020-05-19 20:12:25.834 -0400,1589933545.004575,41.35205645991235,-71.84496997278232,15.93691,0,202.4261407724699,10.87814319422854,6.685290326125391,-9999,11726.849381375,-0.127288818359375,0.282440185546875,-0.950958251953125,1,0.76
2020-05-19 20:12:25.883 -0400,1589933545.004575,41.35205645991235,-71.84496997278232,15.93691,0,202.4261407724699,10.87814319422854,6.685290326125391,-9999,11726.899260375,-0.1093597412109375,0.3003387451171875,-0.953033447265625,1,0.76
2020-05-19 20:12:25.933 -0400,1589933545.004575,41.35205645991235,-71.84496997278232,15.93691,0,202.4261407724699,10.87814319422854,6.685290326125391,-9999,11726.949140375,-0.1018829345703125,0.2853851318359375,-0.95623779296875,1,0.76
2020-05-19 20:12:25.983 -0400,1589933545.004575,41.35205645991235,-71.84496997278232,15.93691,0,202.4261407724699,10.87814319422854,6.685290326125391,-9999,11726.999020375,-0.11578369140625,0.304718017578125,-0.9449920654296875,1,0.76
2020-05-19 20:12:26.033 -0400,1589933545.004575,41.35205645991235,-71.84496997278232,15.93691,0,202.4261407724699,10.87814319422854,6.685290326125391,-9999,11727.048900375,-0.1120758056640625,0.2683258056640625,-0.9563140869140625,1,0.76
2020-05-19 20:12:26.083 -0400,1589933545.004575,41.35205645991235,-71.84496997278232,15.93691,0,202.4261407724699,10.87814319422854,6.685290326125391,-9999,11727.098779375,-0.1089324951171875,0.301910400390625,-0.944000244140625,1,0.76
2020-05-19 20:12:26.133 -0400,1589933545.004575,41.35205645991235,-71.84496997278232,15.93691,0,202.4261407724699,10.87814319422854,6.685290326125391,-9999,11727.148657375,-0.13031005859375,0.295196533203125,-0.9468231201171875,1,0.76
2020-05-19 20:12:26.183 -0400,1589933545.004575,41.35205645991235,-71.84496997278232,15.93691,0,202.4261407724699,10.87814319422854,6.685290326125391,-9999,11727.198538375,-0.1193084716796875,0.2937774658203125,-0.95147705078125,1,0.76
2020-05-19 20:12:26.232 -0400,1589933545.004575,41.35205645991235,-71.84496997278232,15.93691,0,202.4261407724699,10.87814319422854,6.685290326125391,-9999,11727.248419375,-0.107574462890625,0.297454833984375,-0.947998046875,1,0.76
2020-05-19 20:12:26.282 -0400,1589933545.004575,41.35205645991235,-71.84496997278232,15.93691,0,202.4261407724699,10.87814319422854,6.685290326125391,-9999,11727.298297375,-0.114410400390625,0.301300048828125,-0.948883056640625,1,0.76
2020-05-19 20:12:26.332 -0400,1589933545.004575,41.35205645991235,-71.84496997278232,15.93691,0,202.4261407724699,10.87814319422854,6.685290326125391,-9999,11727.348174375,-0.113037109375,0.2942657470703125,-0.953826904296875,1,0.76
2020-05-19 20:12:26.382 -0400,1589933546.004275,41.35205645991235,-71.84496997278232,15.93691,0,202.4261407724699,18.97439143260662,11.44982855297438,-9999,11727.398053375,-0.11627197265625,0.2922515869140625,-0.954010009765625,1,0.76
2020-05-19 20:12:26.432 -0400,1589933546.004275,41.35205645991235,-71.84496997278232,15.93691,0,202.4261407724699,18.97439143260662,11.44982855297438,-9999,11727.447934375,-0.1113433837890625,0.292999267578125,-0.9500579833984375,1,0.76
2020-05-19 20:12:26.482 -0400,1589933546.004275,41.35205645991235,-71.84496997278232,15.93691,0,202.4261407724699,18.97439143260662,11.44982855297438,-9999,11727.497815375,-0.1155548095703125,0.297119140625,-0.94891357421875,1,0.76
2020-05-19 20:12:26.532 -0400,1589933546.004275,41.35205645991235,-71.84496997278232,15.93691,0,202.4261407724699,18.97439143260662,11.44982855297438,-9999,11727.547695375,-0.1122589111328125,0.2891387939453125,-0.9510498046875,1,0.76
2020-05-19 20:12:26.582 -0400,1589933546.004275,41.35205645991235,-71.84496997278232,15.93691,0,202.4261407724699,18.97439143260662,11.44982855297438,-9999,11727.597574375,-0.1180572509765625,0.3001861572265625,-0.9529266357421875,1,0.76
2020-05-19 20:12:26.632 -0400,1589933546.004275,41.35205645991235,-71.84496997278232,15.93691,0,202.4261407724699,18.97439143260662,11.44982855297438,-9999,11727.647452375,-0.1139678955078125,0.2928314208984375,-0.9504241943359375,1,0.76
2020-05-19 20:12:26.681 -0400,1589933546.004275,41.35205645991235,-71.84496997278232,15.93691,0,202.4261407724699,18.97439143260662,11.44982855297438,-9999,11727.697331375,-0.11444091796875,0.3030242919921875,-0.9477691650390625,1,0.76
2020-05-19 20:12:26.731 -0400,1589933546.004275,41.35205645991235,-71.84496997278232,15.93691,0,202.4261407724699,18.97439143260662,11.44982855297438,-9999,11727.747213375,-0.1149444580078125,0.2977752685546875,-0.9488525390625,1,0.76
2020-05-19 20:12:26.781 -0400,1589933546.004275,41.35205645991235,-71.84496997278232,15.93691,0,202.4261407724699,18.97439143260662,11.44982855297438,-9999,11727.797095375,-0.119293212890625,0.2978363037109375,-0.9529571533203125,1,0.76
2020-05-19 20:12:26.831 -0400,1589933546.004275,41.35205645991235,-71.84496997278232,15.93691,0,202.4261407724699,18.97439143260662,11.44982855297438,-9999,11727.8469765,-0.116302490234375,0.299163818359375,-0.9486236572265625,1,0.76
2020-05-19 20:12:26.881 -0400,1589933546.004275,41.35205645991235,-71.84496997278232,15.93691,0,202.4261407724699,18.97439143260662,11.44982855297438,-9999,11727.8968575,-0.1175689697265625,0.29840087890625,-0.950042724609375,1,0.76
2020-05-19 20:12:26.931 -0400,1589933546.004275,41.35205645991235,-71.84496997278232,15.93691,0,202.4261407724699,18.97439143260662,11.44982855297438,-9999,11727.9467415,-0.115509033203125,0.2969970703125,-0.9499359130859375,1,0.76
2020-05-19 20:12:26.981 -0400,1589933546.004275,41.35205645991235,-71.84496997278232,15.93691,0,202.4261407724699,18.97439143260662,11.44982855297438,-9999,11727.9966195,-0.117584228515625,0.296478271484375,-0.9495849609375,1,0.76
2020-05-19 20:12:27.031 -0400,1589933546.004275,41.35205645991235,-71.84496997278232,15.93691,0,202.4261407724699,18.97439143260662,11.44982855297438,-9999,11728.0464985,-0.119384765625,0.3010406494140625,-0.947998046875,1,0.76
2020-05-19 20:12:27.080 -0400,1589933546.004275,41.35205645991235,-71.84496997278232,15.93691,0,202.4261407724699,18.97439143260662,11.44982855297438,-9999,11728.0963785,-0.113525390625,0.2988433837890625,-0.94903564453125,1,0.76
2020-05-19 20:12:27.130 -0400,1589933546.004275,41.35205645991235,-71.84496997278232,15.93691,0,202.4261407724699,18.97439143260662,11.44982855297438,-9999,11728.1462595,-0.1228485107421875,0.3044586181640625,-0.94818115234375,1,0.76
2020-05-19 20:12:27.180 -0400,1589933546.004275,41.35205645991235,-71.84496997278232,15.93691,0,202.4261407724699,18.97439143260662,11.44982855297438,-9999,11728.1961425,-0.121795654296875,0.2918701171875,-0.9509429931640625,1,0.76
2020-05-19 20:12:27.230 -0400,1589933546.004275,41.35205645991235,-71.84496997278232,15.93691,0,202.4261407724699,18.97439143260662,11.44982855297438,-9999,11728.2460265,-0.11865234375,0.2995452880859375,-0.946533203125,1,0.76
2020-05-19 20:12:27.280 -0400,1589933546.004275,41.35205645991235,-71.84496997278232,15.93691,0,202.4261407724699,18.97439143260662,11.44982855297438,-9999,11728.2959095,-0.1193695068359375,0.2981719970703125,-0.95086669921875,1,0.76
2020-05-19 20:12:27.330 -0400,1589933546.004275,41.35205645991235,-71.84496997278232,15.93691,0,202.4261407724699,18.97439143260662,11.44982855297438,-9999,11728.3457895,-0.11883544921875,0.29632568359375,-0.9521942138671875,1,0.76
2020-05-19 20:12:27.380 -0400,1589933546.004275,41.35205645991235,-71.84496997278232,15.93691,0,202.4261407724699,18.97439143260662,11.44982855297438,-9999,11728.3956715,-0.114776611328125,0.285888671875,-0.94842529296875,1,0.76
2020-05-19 20:12:27.430 -0400,1589933547.003992,41.35205645991235,-71.84496997278232,15.93691,0,202.4261407724699,10.83595468669327,6.689958474360396,-9999,11728.4455545,-0.1168212890625,0.29541015625,-0.9483489990234375,1,0.76
2020-05-19 20:12:27.479 -0400,1589933547.003992,41.35205645991235,-71.84496997278232,15.93691,0,202.4261407724699,10.83595468669327,6.689958474360396,-9999,11728.4954365,-0.1217041015625,0.2937774658203125,-0.948272705078125,1,0.76
2020-05-19 20:12:27.529 -0400,1589933547.003992,41.35205645991235,-71.84496997278232,15.93691,0,202.4261407724699,10.83595468669327,6.689958474360396,-9999,11728.5453175,-0.117828369140625,0.2892303466796875,-0.953125,1,0.76
2020-05-19 20:12:27.579 -0400,1589933547.003992,41.35205645991235,-71.84496997278232,15.93691,0,202.4261407724699,10.83595468669327,6.689958474360396,-9999,11728.5951975,-0.115753173828125,0.2947235107421875,-0.950286865234375,1,0.76
2020-05-19 20:12:27.629 -0400,1589933547.003992,41.35205645991235,-71.84496997278232,15.93691,0,202.4261407724699,10.83595468669327,6.689958474360396,-9999,11728.6450805,-0.1193695068359375,0.2919158935546875,-0.952239990234375,1,0.76
2020-05-19 20:12:27.679 -0400,1589933547.003992,41.35205645991235,-71.84496997278232,15.93691,0,202.4261407724699,10.83595468669327,6.689958474360396,-9999,11728.6949635,-0.123321533203125,0.2837677001953125,-0.9484405517578125,1,0.76
2020-05-19 20:12:27.729 -0400,1589933547.003992,41.35205645991235,-71.84496997278232,15.93691,0,202.4261407724699,10.83595468669327,6.689958474360396,-9999,11728.7448465,-0.1106719970703125,0.290679931640625,-0.9523468017578125,1,0.76
2020-05-19 20:12:27.779 -0400,1589933547.003992,41.35205645991235,-71.84496997278232,15.93691,0,202.4261407724699,10.83595468669327,6.689958474360396,-9999,11728.7947245,-0.121734619140625,0.2920684814453125,-0.94708251953125,1,0.76
2020-05-19 20:12:27.829 -0400,1589933547.003992,41.35205645991235,-71.84496997278232,15.93691,0,202.4261407724699,10.83595468669327,6.689958474360396,-9999,11728.844606625,-0.1199951171875,0.282257080078125,-0.954986572265625,1,0.76
2020-05-19 20:12:27.878 -0400,1589933547.003992,41.35205645991235,-71.84496997278232,15.93691,0,202.4261407724699,10.83595468669327,6.689958474360396,-9999,11728.894488625,-0.122802734375,0.283935546875,-0.96099853515625,1,0.76
2020-05-19 20:12:27.928 -0400,1589933547.003992,41.35205645991235,-71.84496997278232,15.93691,0,202.4261407724699,10.83595468669327,6.689958474360396,-9999,11728.944372625,-0.102935791015625,0.278411865234375,-0.9496917724609375,1,0.76
2020-05-19 20:12:27.978 -0400,1589933547.003992,41.35205645991235,-71.84496997278232,15.93691,0,202.4261407724699,10.83595468669327,6.689958474360396,-9999,11728.994258625,-0.12078857421875,0.273712158203125,-0.984710693359375,1,0.76
2020-05-19 20:12:28.028 -0400,1589933547.003992,41.35205645991235,-71.84496997278232,15.93691,0,202.4261407724699,10.83595468669327,6.689958474360396,-9999,11729.044144625,-0.1334991455078125,0.3193817138671875,-0.9738311767578125,1,0.76
2020-05-19 20:12:28.078 -0400,1589933547.003992,41.35205645991235,-71.84496997278232,15.93691,0,202.4261407724699,10.83595468669327,6.689958474360396,-9999,11729.094032625,-0.10736083984375,0.3143157958984375,-0.9102020263671875,1,0.76
2020-05-19 20:12:28.128 -0400,1589933547.003992,41.35205645991235,-71.84496997278232,15.93691,0,202.4261407724699,10.83595468669327,6.689958474360396,-9999,11729.143922625,-0.089752197265625,0.3344573974609375,-0.90374755859375,1,0.76
2020-05-19 20:12:28.178 -0400,1589933547.003992,41.35205645991235,-71.84496997278232,15.93691,0,202.4261407724699,10.83595468669327,6.689958474360396,-9999,11729.193812625,-0.1509246826171875,0.2918853759765625,-1.005096435546875,1,0.76
2020-05-19 20:12:28.228 -0400,1589933547.003992,41.35205645991235,-71.84496997278232,15.93691,0,202.4261407724699,10.83595468669327,6.689958474360396,-9999,11729.243699625,-0.13140869140625,0.3608551025390625,-0.9512176513671875,1,0.76
2020-05-19 20:12:28.278 -0400,1589933547.003992,41.35205645991235,-71.84496997278232,15.93691,0,202.4261407724699,10.83595468669327,6.689958474360396,-9999,11729.293584625,-0.07904052734375,0.2966766357421875,-0.9465484619140625,1,0.76
2020-05-19 20:12:28.327 -0400,1589933547.003992,41.35205645991235,-71.84496997278232,15.93691,0,202.4261407724699,10.83595468669327,6.689958474360396,-9999,11729.343469625,-0.181976318359375,0.2878570556640625,-1.015975952148438,1,0.76
2020-05-19 20:12:28.377 -0400,1589933547.003992,41.35205645991235,-71.84496997278232,15.93691,0,202.4261407724699,10.83595468669327,6.689958474360396,-9999,11729.393355625,-0.081817626953125,0.2374420166015625,-0.967620849609375,1,0.76
2020-05-19 20:12:28.437 -0400,1589933547.003992,41.35205645991235,-71.84496997278232,15.93691,0,202.4261407724699,10.83595468669327,6.689958474360396,-9999,11729.443242625,-0.0647430419921875,0.3292999267578125,-0.889007568359375,1,0.76
2020-05-19 20:12:28.477 -0400,1589933548.003729,41.35205645991235,-71.84496997278232,15.93691,0,202.4261407724699,10.95980376122354,6.567604455174157,-9999,11729.493130625,-0.0777435302734375,0.2401885986328125,-0.901519775390625,1,0.76
2020-05-19 20:12:28.527 -0400,1589933548.003729,41.35205645991235,-71.84496997278232,15.93691,0,202.4261407724699,10.95980376122354,6.567604455174157,-9999,11729.543018625,-0.0333404541015625,0.2617950439453125,-1.023086547851562,1,0.76
2020-05-19 20:12:28.577 -0400,1589933548.003729,41.35205645991235,-71.84496997278232,15.93691,0,202.4261407724699,10.95980376122354,6.567604455174157,-9999,11729.592903625,-0.1576995849609375,0.337799072265625,-0.91754150390625,1,0.76
2020-05-19 20:12:28.627 -0400,1589933548.003729,41.35205645991235,-71.84496997278232,15.93691,0,202.4261407724699,10.95980376122354,6.567604455174157,-9999,11729.642789625,-0.132354736328125,0.3715667724609375,-0.956756591796875,1,0.76
2020-05-19 20:12:28.677 -0400,1589933548.003729,41.35205645991235,-71.84496997278232,15.93691,0,202.4261407724699,10.95980376122354,6.567604455174157,-9999,11729.692674625,-0.1816558837890625,0.3290252685546875,-0.981842041015625,1,0.76
2020-05-19 20:12:28.727 -0400,1589933548.003729,41.35205645991235,-71.84496997278232,15.93691,0,202.4261407724699,10.95980376122354,6.567604455174157,-9999,11729.742559625,-0.1033172607421875,0.27471923828125,-0.969635009765625,1,0.76
2020-05-19 20:12:28.776 -0400,1589933548.003729,41.35205645991235,-71.84496997278232,15.93691,0,202.4261407724699,10.95980376122354,6.567604455174157,-9999,11729.792445625,-0.1104278564453125,0.3056488037109375,-0.964080810546875,1,0.76
2020-05-19 20:12:28.826 -0400,1589933548.003729,41.35205645991235,-71.84496997278232,15.93691,0,202.4261407724699,10.95980376122354,6.567604455174157,-9999,11729.842331125,-0.0928802490234375,0.2694091796875,-0.9524993896484375,1,0.76
2020-05-19 20:12:28.876 -0400,1589933548.003729,41.35205645991235,-71.84496997278232,15.93691,0,202.4261407724699,10.95980376122354,6.567604455174157,-9999,11729.892216125,-0.09942626953125,0.325958251953125,-0.942626953125,1,0.76
2020-05-19 20:12:28.926 -0400,1589933548.003729,41.35205645991235,-71.84496997278232,15.93691,0,202.4261407724699,10.95980376122354,6.567604455174157,-9999,11729.942101125,-0.126068115234375,0.26702880859375,-0.9598388671875,1,0.76
2020-05-19 20:12:28.976 -0400,1589933548.003729,41.35205645991235,-71.84496997278232,15.93691,0,202.4261407724699,10.95980376122354,6.567604455174157,-9999,11729.991985125,-0.11566162109375,0.3314361572265625,-0.953887939453125,1,0.76
2020-05-19 20:12:29.026 -0400,1589933548.003729,41.35205645991235,-71.84496997278232,15.93691,0,202.4261407724699,10.95980376122354,6.567604455174157,-9999,11730.041867125,-0.111328125,0.2848358154296875,-0.917022705078125,1,0.76
2020-05-19 20:12:29.076 -0400,1589933548.003729,41.35205645991235,-71.84496997278232,15.93691,0,202.4261407724699,10.95980376122354,6.567604455174157,-9999,11730.091749125,-0.057159423828125,0.251983642578125,-0.9632720947265625,1,0.76
2020-05-19 20:12:29.126 -0400,1589933548.003729,41.35205645991235,-71.84496997278232,15.93691,0,202.4261407724699,10.95980376122354,6.567604455174157,-9999,11730.141631125,-0.144256591796875,0.4044647216796875,-0.9397430419921875,1,0.76
2020-05-19 20:12:29.175 -0400,1589933548.003729,41.35205645991235,-71.84496997278232,15.93691,0,202.4261407724699,10.95980376122354,6.567604455174157,-9999,11730.191513125,-0.1485443115234375,0.1763763427734375,-1.028839111328125,1,0.76
2020-05-19 20:12:29.225 -0400,1589933548.003729,41.35205645991235,-71.84496997278232,15.93691,0,202.4261407724699,10.95980376122354,6.567604455174157,-9999,11730.241394125,-0.1282958984375,0.214996337890625,-0.945159912109375,1,0.76
2020-05-19 20:12:29.275 -0400,1589933549.003481,41.35205645991235,-71.84496997278232,15.93691,0,-1,3.33695397772722,4.763326063090719,-9999,11730.291277125,-0.0582427978515625,0.318817138671875,-0.91680908203125,1,0.76
2020-05-19 20:12:29.325 -0400,1589933549.003481,41.35205645991235,-71.84496997278232,15.93691,0,-1,3.33695397772722,4.763326063090719,-9999,11730.341161125,-0.1253814697265625,0.202362060546875,-1.025909423828125,1,0.76
