loggingTime(txt),accelerometerTimestamp_sinceReboot(s),accelerometerAccelerationX(G),accelerometerAccelerationY(G),accelerometerAccelerationZ(G),batteryState,batteryLevel
2020-05-17 14:53:20.023 -0400,30177.86049675,0.0679779052734375,0.0619659423828125,-1.216842651367188,1,0.62
2020-05-17 14:53:20.063 -0400,30177.90040975,0.0659332275390625,-0.0875091552734375,-1.113983154296875,1,0.62
2020-05-17 14:53:20.103 -0400,30177.94032275,0.0789794921875,-0.136627197265625,-0.8240814208984375,1,0.62
2020-05-17 14:53:20.146 -0400,30177.98023475,0.046417236328125,-0.1162109375,-0.6558990478515625,1,0.62
2020-05-17 14:53:20.182 -0400,30178.02014575,-0.006927490234375,-0.132720947265625,-0.6878204345703125,1,0.62
2020-05-17 14:53:20.222 -0400,30178.06005975,-0.0360107421875,-0.1056060791015625,-0.7057647705078125,1,0.62
2020-05-17 14:53:20.262 -0400,30178.09997275,-0.0731048583984375,-0.1268768310546875,-0.7787933349609375,1,0.62
2020-05-17 14:53:20.302 -0400,30178.13988875,-0.075897216796875,-0.1815032958984375,-0.8869171142578125,1,0.62
2020-05-17 14:53:20.342 -0400,30178.17980175,-0.08233642578125,-0.170867919921875,-0.9354400634765625,1,0.62
2020-05-17 14:53:20.382 -0400,30178.21971675,-0.08209228515625,-0.113128662109375,-0.994384765625,1,0.62
2020-05-17 14:53:20.422 -0400,30178.25963275,-0.041534423828125,-0.076934814453125,-1.109527587890625,1,0.62
2020-05-17 14:53:20.462 -0400,30178.29954575,-0.2084197998046875,0.0227508544921875,-1.017044067382812,1,0.62
2020-05-17 14:53:20.502 -0400,30178.33946175,-0.3681640625,0.05804443359375,-1.12353515625,1,0.62
2020-05-17 14:53:20.542 -0400,30178.37937475,-0.16363525390625,0.2025604248046875,-1.191848754882812,1,0.62
2020-05-17 14:53:20.582 -0400,30178.41928775,0.0654754638671875,0.364349365234375,-1.134353637695312,1,0.62
2020-05-17 14:53:20.621 -0400,30178.45920075,0.2239532470703125,0.5160064697265625,-0.9868927001953125,1,0.62
2020-05-17 14:53:20.661 -0400,30178.49911675,0.2535552978515625,0.636260986328125,-0.62384033203125,1,0.62
2020-05-17 14:53:20.701 -0400,30178.53903175,0.22784423828125,0.6222076416015625,-0.3867645263671875,1,0.62
2020-05-17 14:53:20.741 -0400,30178.57894775,0.3740997314453125,0.40338134765625,-0.198455810546875,1,0.62
2020-05-17 14:53:20.781 -0400,30178.61886179167,0.5245208740234375,-0.030609130859375,-0.0509796142578125,1,0.62
2020-05-17 14:53:20.821 -0400,30178.65877479167,0.5757598876953125,0.0697174072265625,-0.0842437744140625,1,0.62
2020-05-17 14:53:20.866 -0400,30178.69868879167,0.6944580078125,0.6864471435546875,-0.248687744140625,1,0.62
2020-05-17 14:53:20.901 -0400,30178.73860379167,1.649520874023438,1.991668701171875,-0.2746429443359375,1,0.62
2020-05-17 14:53:20.941 -0400,30178.77851779167,2.084228515625,3.52227783203125,-0.611236572265625,1,0.62
2020-05-17 14:53:20.981 -0400,30178.81843279167,0.9075927734375,1.95550537109375,-0.4405670166015625,1,0.62
2020-05-17 14:53:21.021 -0400,30178.85834879167,0.1767425537109375,1.003448486328125,-0.0882568359375,1,0.62
2020-05-17 14:53:21.061 -0400,30178.89826279167,-0.3703460693359375,0.559814453125,-0.0839080810546875,1,0.62
2020-05-17 14:53:21.101 -0400,30178.93817679167,-0.7291259765625,0.17181396484375,-0.2653656005859375,1,0.62
2020-05-17 14:53:21.141 -0400,30178.97809279167,-0.82061767578125,-0.0542755126953125,-0.16583251953125,1,0.62
2020-05-17 14:53:21.180 -0400,30179.01800879167,-0.5885162353515625,-0.0877685546875,-0.0576934814453125,1,0.62
2020-05-17 14:53:21.221 -0400,30179.05792379167,-0.480682373046875,0.217315673828125,-0.0554046630859375,1,0.62
2020-05-17 14:53:21.261 -0400,30179.09783879167,-0.6891632080078125,1.610504150390625,0.04046630859375,1,0.62
2020-05-17 14:53:21.300 -0400,30179.13775579167,1.2784423828125,4.52545166015625,0.0425872802734375,1,0.62
2020-05-17 14:53:21.340 -0400,30179.17766979167,0.905792236328125,2.449874877929688,-0.1937255859375,1,0.62
2020-05-17 14:53:21.382 -0400,30179.21758379167,0.9114837646484375,0.9726104736328125,-0.160675048828125,1,0.62
2020-05-17 14:53:21.420 -0400,30179.25749779167,0.5185394287109375,0.01324462890625,-0.1917877197265625,1,0.62
2020-05-17 14:53:21.460 -0400,30179.29740979167,0.3665771484375,-0.64923095703125,0.2486114501953125,1,0.62
2020-05-17 14:53:21.515 -0400,30179.33732379167,0.4448089599609375,-0.62823486328125,0.2108306884765625,1,0.62
2020-05-17 14:53:21.540 -0400,30179.37723679167,0.382537841796875,-0.3997802734375,0.1141815185546875,1,0.62
2020-05-17 14:53:21.588 -0400,30179.41714979167,0.4885101318359375,-0.18060302734375,0.11834716796875,1,0.62
2020-05-17 14:53:21.620 -0400,30179.45706279167,1.11279296875,1.142776489257812,-0.239776611328125,1,0.62
2020-05-17 14:53:21.659 -0400,30179.49697379167,3.52978515625,3.327255249023438,-0.3949127197265625,1,0.62
2020-05-17 14:53:21.699 -0400,30179.53688679167,1.80902099609375,3.074447631835938,-0.996734619140625,1,0.62
2020-05-17 14:53:21.739 -0400,30179.57679879167,0.4435272216796875,1.47552490234375,-0.6640777587890625,1,0.62
2020-05-17 14:53:21.779 -0400,30179.61671366667,-0.292633056640625,0.57440185546875,-0.32421875,1,0.62
2020-05-17 14:53:21.819 -0400,30179.65662566667,-0.81103515625,0.293060302734375,-0.40240478515625,1,0.62
2020-05-17 14:53:21.859 -0400,30179.69653966667,-0.800537109375,0.0831298828125,-0.2802276611328125,1,0.62
2020-05-17 14:53:21.899 -0400,30179.73645166667,-0.6149444580078125,-0.1412506103515625,-0.1094207763671875,1,0.62
2020-05-17 14:53:21.939 -0400,30179.77636366667,-0.3947296142578125,-0.004638671875,-0.1125946044921875,1,0.62
2020-05-17 14:53:21.979 -0400,30179.81627666667,-0.488861083984375,0.400787353515625,-0.0378875732421875,1,0.62
2020-05-17 14:53:22.023 -0400,30179.85618866667,0.0284881591796875,3.697906494140625,-0.8541412353515625,1,0.62
2020-05-17 14:53:22.059 -0400,30179.89609766667,1.55255126953125,3.093490600585938,-0.215728759765625,1,0.62
2020-05-17 14:53:22.098 -0400,30179.93600966667,0.8184814453125,1.662322998046875,-0.4391021728515625,1,0.62
2020-05-17 14:53:22.138 -0400,30179.97591766667,0.6379547119140625,0.473602294921875,-0.3599395751953125,1,0.62
2020-05-17 14:53:22.178 -0400,30180.01582766667,0.4210357666015625,-0.1927642822265625,-0.0692596435546875,1,0.62
2020-05-17 14:53:22.218 -0400,30180.05573466667,0.4551849365234375,-0.6654510498046875,0.22882080078125,1,0.62
2020-05-17 14:53:22.258 -0400,30180.09564266667,0.4443511962890625,-0.62274169921875,0.1834716796875,1,0.62
2020-05-17 14:53:22.298 -0400,30180.13554966667,0.3878021240234375,-0.3961944580078125,0.087677001953125,1,0.62
2020-05-17 14:53:22.338 -0400,30180.17545866667,0.59619140625,0.013275146484375,0.056549072265625,1,0.62
2020-05-17 14:53:22.378 -0400,30180.21536766667,2.833236694335938,3.508392333984375,-0.52215576171875,1,0.62
2020-05-17 14:53:22.418 -0400,30180.25527466667,2.73577880859375,4.494583129882812,-1.251800537109375,1,0.62
2020-05-17 14:53:22.458 -0400,30180.29518266667,0.4705657958984375,1.8787841796875,-0.807769775390625,1,0.62
2020-05-17 14:53:22.497 -0400,30180.33509166667,-0.221221923828125,0.65374755859375,-0.3307342529296875,1,0.62
2020-05-17 14:53:22.550 -0400,30180.37499966667,-0.89581298828125,0.3739776611328125,-0.52154541015625,1,0.62
2020-05-17 14:53:22.577 -0400,30180.41490866667,-0.815399169921875,0.004791259765625,-0.3209228515625,1,0.62
2020-05-17 14:53:22.617 -0400,30180.45481766667,-0.571990966796875,-0.1072540283203125,-0.0522613525390625,1,0.62
2020-05-17 14:53:22.657 -0400,30180.49472666667,-0.38470458984375,-0.1644744873046875,-0.021392822265625,1,0.62
2020-05-17 14:53:22.697 -0400,30180.53463766667,-0.320220947265625,0.116851806640625,0.046783447265625,1,0.62
2020-05-17 14:53:22.737 -0400,30180.57454866667,-0.9032745361328125,1.0321044921875,-0.0157623291015625,1,0.62
2020-05-17 14:53:22.777 -0400,30180.614461,0.90374755859375,4.871917724609375,-0.148529052734375,1,0.62
2020-05-17 14:53:22.817 -0400,30180.654373,0.8478240966796875,3.338241577148438,-0.3016815185546875,1,0.62
2020-05-17 14:53:22.857 -0400,30180.694285,0.650787353515625,1.194869995117188,-0.4263153076171875,1,0.62
2020-05-17 14:53:22.897 -0400,30180.734194,0.4351806640625,0.2804107666015625,-0.3627166748046875,1,0.62
2020-05-17 14:53:22.937 -0400,30180.774103,0.4430389404296875,-0.5771026611328125,0.1180877685546875,1,0.62
2020-05-17 14:53:22.976 -0400,30180.814014,0.529998779296875,-0.7102203369140625,0.129241943359375,1,0.62
2020-05-17 14:53:23.016 -0400,30180.853924,0.5133056640625,-0.5045623779296875,-0.01715087890625,1,0.62
2020-05-17 14:53:23.056 -0400,30180.893832,0.474395751953125,-0.3515472412109375,0.1508636474609375,1,0.62
2020-05-17 14:53:23.096 -0400,30180.933742,0.64727783203125,-0.03558349609375,0.0998687744140625,1,0.62
2020-05-17 14:53:23.136 -0400,30180.973655,3.34918212890625,4.123367309570312,-1.13134765625,1,0.62
2020-05-17 14:53:23.176 -0400,30181.013565,2.484848022460938,4.138534545898438,-1.106552124023438,1,0.62
2020-05-17 14:53:23.216 -0400,30181.053476,0.3125152587890625,1.911361694335938,-0.987884521484375,1,0.62
2020-05-17 14:53:23.256 -0400,30181.093388,-0.471099853515625,0.3770294189453125,-0.3515472412109375,1,0.62
2020-05-17 14:53:23.296 -0400,30181.133299,-0.9757843017578125,0.2166290283203125,-0.50787353515625,1,0.62
2020-05-17 14:53:23.336 -0400,30181.17321,-0.8941802978515625,-0.173614501953125,-0.06243896484375,1,0.62
2020-05-17 14:53:23.376 -0400,30181.213127,-0.6277618408203125,-0.1880950927734375,0.047882080078125,1,0.62
2020-05-17 14:53:23.416 -0400,30181.253042,-0.5288848876953125,0.097381591796875,-0.050323486328125,1,0.62
2020-05-17 14:53:23.455 -0400,30181.292954,-0.7036590576171875,0.68310546875,0.1036529541015625,1,0.62
2020-05-17 14:53:23.495 -0400,30181.332864,-0.8071136474609375,3.841293334960938,-0.0215606689453125,1,0.62
2020-05-17 14:53:23.539 -0400,30181.372774,1.2796630859375,3.231658935546875,0.4815521240234375,1,0.62
2020-05-17 14:53:23.575 -0400,30181.412683,0.73992919921875,1.783035278320312,-0.1831817626953125,1,0.62
2020-05-17 14:53:23.615 -0400,30181.452593,0.548248291015625,0.4988555908203125,-0.3619537353515625,1,0.62
2020-05-17 14:53:23.673 -0400,30181.492503,0.5835113525390625,-0.5338287353515625,0.1562347412109375,1,0.62
2020-05-17 14:53:23.695 -0400,30181.532413,0.53985595703125,-0.990325927734375,0.2464599609375,1,0.62
2020-05-17 14:53:23.735 -0400,30181.572322,0.56219482421875,-0.6157989501953125,0.0332183837890625,1,0.62
2020-05-17 14:53:23.791 -0400,30181.61223075,0.53173828125,-0.286468505859375,0.01654052734375,1,0.62
2020-05-17 14:53:23.815 -0400,30181.65213975,0.87908935546875,0.62725830078125,-0.3267059326171875,1,0.62
2020-05-17 14:53:23.855 -0400,30181.69205175,2.703903198242188,3.199508666992188,-1.27911376953125,1,0.62
2020-05-17 14:53:23.894 -0400,30181.73196375,1.947647094726562,3.368331909179688,-1.230209350585938,1,0.62
2020-05-17 14:53:23.934 -0400,30181.77187575,0.4037933349609375,1.702423095703125,-1.109603881835938,1,0.62
2020-05-17 14:53:23.974 -0400,30181.81178575,-0.3960418701171875,0.7452850341796875,-0.65618896484375,1,0.62
2020-05-17 14:53:24.014 -0400,30181.85169475,-0.83599853515625,0.3791656494140625,-0.500823974609375,1,0.62
2020-05-17 14:53:24.054 -0400,30181.89160475,-0.9043121337890625,0.0213165283203125,-0.1124114990234375,1,0.62
2020-05-17 14:53:24.094 -0400,30181.93151675,-0.648651123046875,-0.1725921630859375,-0.05072021484375,1,0.62
2020-05-17 14:53:24.134 -0400,30181.97142875,-0.4246368408203125,-0.0226898193359375,-0.0886383056640625,1,0.62
2020-05-17 14:53:24.174 -0400,30182.01134275,-0.354522705078125,0.471893310546875,-0.0301055908203125,1,0.62
2020-05-17 14:53:24.214 -0400,30182.05125875,-0.557037353515625,2.378555297851562,-0.2861328125,1,0.62
2020-05-17 14:53:24.254 -0400,30182.09117575,1.494827270507812,3.720870971679688,0.2996063232421875,1,0.62
2020-05-17 14:53:24.294 -0400,30182.13109175,0.6608734130859375,2.1431884765625,-0.362030029296875,1,0.62
2020-05-17 14:53:24.334 -0400,30182.17100575,0.4364471435546875,0.765655517578125,-0.1910552978515625,1,0.62
2020-05-17 14:53:24.374 -0400,30182.21092175,0.2811126708984375,-0.121185302734375,-0.14373779296875,1,0.62
2020-05-17 14:53:24.413 -0400,30182.25083575,0.4227142333984375,-0.69769287109375,-0.024627685546875,1,0.62
2020-05-17 14:53:24.453 -0400,30182.29074775,0.583984375,-0.670257568359375,0.0188140869140625,1,0.62
2020-05-17 14:53:24.493 -0400,30182.33065975,0.597991943359375,-0.480377197265625,0.0515289306640625,1,0.62
2020-05-17 14:53:24.541 -0400,30182.37057175,0.701751708984375,-0.0911865234375,0.125091552734375,1,0.62
2020-05-17 14:53:24.573 -0400,30182.41048375,1.433151245117188,1.91070556640625,-0.292633056640625,1,0.62
2020-05-17 14:53:24.613 -0400,30182.45039675,3.023956298828125,4.1502685546875,-1.136444091796875,1,0.62
2020-05-17 14:53:24.653 -0400,30182.49030675,1.048843383789062,2.6187744140625,-1.080856323242188,1,0.62
2020-05-17 14:53:24.693 -0400,30182.53021675,0.01910400390625,1.390090942382812,-0.8684234619140625,1,0.62
2020-05-17 14:53:24.732 -0400,30182.57012475,-0.6617889404296875,0.18182373046875,-0.52008056640625,1,0.62
2020-05-17 14:53:24.772 -0400,30182.61003675,-0.8404998779296875,0.003631591796875,-0.3527374267578125,1,0.62
2020-05-17 14:53:24.813 -0400,30182.64994925,-0.691619873046875,-0.1548614501953125,-0.1619110107421875,1,0.62
2020-05-17 14:53:24.852 -0400,30182.68986125,-0.487579345703125,-0.124237060546875,-0.084747314453125,1,0.62
2020-05-17 14:53:24.892 -0400,30182.72977225,-0.4425201416015625,-0.0469818115234375,-0.0176544189453125,1,0.62
2020-05-17 14:53:24.932 -0400,30182.76968025,-0.6729583740234375,0.72601318359375,-0.000946044921875,1,0.62
2020-05-17 14:53:24.972 -0400,30182.80958925,0.0833587646484375,4.787109375,-0.049285888671875,1,0.62
2020-05-17 14:53:25.012 -0400,30182.84950225,1.28045654296875,3.556304931640625,-0.217559814453125,1,0.62
2020-05-17 14:53:25.052 -0400,30182.88941525,0.811767578125,1.427627563476562,-0.452545166015625,1,0.62
2020-05-17 14:53:25.092 -0400,30182.92932925,0.3380584716796875,0.09326171875,-0.1843109130859375,1,0.62
2020-05-17 14:53:25.132 -0400,30182.96924125,0.459197998046875,-0.8351287841796875,0.01654052734375,1,0.62
2020-05-17 14:53:25.172 -0400,30183.00915425,0.5565032958984375,-0.83251953125,0.05279541015625,1,0.62
2020-05-17 14:53:25.211 -0400,30183.04906725,0.5818939208984375,-0.75323486328125,0.164886474609375,1,0.62
2020-05-17 14:53:25.253 -0400,30183.08898225,0.8472137451171875,-0.1751556396484375,0.060760498046875,1,0.62
2020-05-17 14:53:25.291 -0400,30183.12889425,1.525390625,1.132400512695312,-0.429595947265625,1,0.62
2020-05-17 14:53:25.331 -0400,30183.16880825,3.526473999023438,4.585479736328125,-0.6485443115234375,1,0.62
2020-05-17 14:53:25.371 -0400,30183.20872125,1.398941040039062,3.010910034179688,-1.145980834960938,1,0.62
2020-05-17 14:53:25.411 -0400,30183.24863525,-0.2177581787109375,1.579208374023438,-0.9158782958984375,1,0.62
2020-05-17 14:53:25.451 -0400,30183.28854925,-0.7763824462890625,0.6995086669921875,-0.7135467529296875,1,0.62
2020-05-17 14:53:25.491 -0400,30183.32846325,-0.9704437255859375,0.203704833984375,-0.530426025390625,1,0.62
2020-05-17 14:53:25.531 -0400,30183.36837525,-0.727294921875,0.1244964599609375,-0.1956939697265625,1,0.62
2020-05-17 14:53:25.571 -0400,30183.40828825,-0.400726318359375,0.0789642333984375,-0.0584259033203125,1,0.62
2020-05-17 14:53:25.611 -0400,30183.44820125,-0.2678070068359375,0.4487457275390625,-0.0971221923828125,1,0.62
2020-05-17 14:53:25.651 -0400,30183.48811425,-0.3007049560546875,0.7732086181640625,-0.04180908203125,1,0.62
2020-05-17 14:53:25.690 -0400,30183.52802725,-0.3613739013671875,2.22149658203125,-0.0978851318359375,1,0.62
2020-05-17 14:53:25.730 -0400,30183.56793825,1.191604614257812,3.597900390625,0.221527099609375,1,0.62
2020-05-17 14:53:25.770 -0400,30183.60784725,0.743804931640625,1.74285888671875,-0.2905426025390625,1,0.62
2020-05-17 14:53:25.810 -0400,30183.647755625,0.4551239013671875,0.398162841796875,-0.2173614501953125,1,0.62
2020-05-17 14:53:25.850 -0400,30183.687663625,0.2942962646484375,-0.3209991455078125,-0.1000213623046875,1,0.62
2020-05-17 14:53:25.890 -0400,30183.727572625,0.383026123046875,-0.754730224609375,-0.0225372314453125,1,0.62
2020-05-17 14:53:25.930 -0400,30183.767481625,0.613189697265625,-0.726348876953125,-0.0024871826171875,1,0.62
2020-05-17 14:53:25.970 -0400,30183.807392625,0.7495880126953125,-0.3450775146484375,-0.0003204345703125,1,0.62
2020-05-17 14:53:26.010 -0400,30183.847305625,0.9405517578125,0.0201873779296875,-0.0178680419921875,1,0.62
2020-05-17 14:53:26.050 -0400,30183.887218625,3.030014038085938,3.279296875,-0.504669189453125,1,0.62
2020-05-17 14:53:26.090 -0400,30183.927131625,2.602020263671875,4.010543823242188,-0.95428466796875,1,0.62
2020-05-17 14:53:26.130 -0400,30183.967044625,0.4344329833984375,2.239898681640625,-0.88543701171875,1,0.62
2020-05-17 14:53:26.170 -0400,30184.006958625,-0.485076904296875,1.025985717773438,-0.57330322265625,1,0.62
2020-05-17 14:53:26.209 -0400,30184.046871625,-1.0830078125,0.431488037109375,-0.6168060302734375,1,0.62
2020-05-17 14:53:26.249 -0400,30184.086784625,-0.885040283203125,0.101348876953125,-0.4173736572265625,1,0.62
2020-05-17 14:53:26.289 -0400,30184.126701625,-0.6235504150390625,-0.0149078369140625,-0.23907470703125,1,0.62
2020-05-17 14:53:26.329 -0400,30184.166615625,-0.4784393310546875,-0.0372161865234375,-0.1682891845703125,1,0.62
2020-05-17 14:53:26.369 -0400,30184.206529625,-0.4503631591796875,0.3531951904296875,0.16619873046875,1,0.62
2020-05-17 14:53:26.409 -0400,30184.246442625,-0.7769775390625,1.359268188476562,0.4251251220703125,1,0.62
2020-05-17 14:53:26.449 -0400,30184.286357625,0.9033966064453125,4.42950439453125,-0.5478668212890625,1,0.62
2020-05-17 14:53:26.489 -0400,30184.326271625,1.042739868164062,3.044403076171875,-0.2081146240234375,1,0.62
2020-05-17 14:53:26.529 -0400,30184.366182625,0.7445068359375,0.932464599609375,-0.286224365234375,1,0.62
2020-05-17 14:53:26.574 -0400,30184.406094625,0.469024658203125,-0.163330078125,-0.208587646484375,1,0.62
2020-05-17 14:53:26.608 -0400,30184.446007625,0.581268310546875,-0.8262481689453125,-0.169830322265625,1,0.62
2020-05-17 14:53:26.650 -0400,30184.485919625,0.7052764892578125,-0.833984375,-0.2476654052734375,1,0.62
2020-05-17 14:53:26.696 -0400,30184.525832625,0.730377197265625,-0.5721588134765625,0.0164947509765625,1,0.62
2020-05-17 14:54:36.142 -0400,30253.97114454167,-0.0169830322265625,-0.28753662109375,-0.9362945556640625,1,0.62
2020-05-17 14:54:36.173 -0400,30254.01112554167,0.01239013671875,0.023956298828125,-1.410873413085938,1,0.62
2020-05-17 14:54:36.214 -0400,30254.05110754167,-0.0285491943359375,0.05810546875,-1.450576782226562,1,0.62
2020-05-17 14:54:36.253 -0400,30254.09108954167,0.32464599609375,0.14825439453125,-1.69061279296875,1,0.62
2020-05-17 14:54:36.293 -0400,30254.13107054167,0.2998809814453125,0.0163421630859375,-1.322006225585938,1,0.62
2020-05-17 14:54:36.333 -0400,30254.17105254167,0.1481170654296875,0.0698394775390625,-0.8050537109375,1,0.62
2020-05-17 14:54:36.374 -0400,30254.21103454167,-0.04449462890625,-0.0049896240234375,-0.4188385009765625,1,0.62
2020-05-17 14:54:36.418 -0400,30254.25101654167,0.069183349609375,-0.0591583251953125,-0.3227386474609375,1,0.62
2020-05-17 14:54:36.453 -0400,30254.29099754167,0.2573089599609375,-0.00592041015625,-0.345947265625,1,0.62
2020-05-17 14:54:36.493 -0400,30254.33097954167,0.530120849609375,-0.0674896240234375,-0.8585205078125,1,0.62
2020-05-17 14:54:36.533 -0400,30254.37096154167,0.7983245849609375,-0.098724365234375,-1.846588134765625,1,0.62
2020-05-17 14:54:36.573 -0400,30254.41094254167,0.547607421875,0.0227508544921875,-2.19110107421875,1,0.62
2020-05-17 14:54:36.613 -0400,30254.45092454167,0.0931243896484375,-0.068756103515625,-1.703125,1,0.62
2020-05-17 14:54:36.653 -0400,30254.49090654167,-0.1360626220703125,0.0439300537109375,-1.162063598632812,1,0.62
2020-05-17 14:54:36.693 -0400,30254.53088754167,-0.4338226318359375,0.2007293701171875,-0.721343994140625,1,0.62
2020-05-17 14:54:36.734 -0400,30254.57086954167,-0.4353790283203125,-0.15032958984375,-0.4634552001953125,1,0.62
2020-05-17 14:54:36.773 -0400,30254.61085154167,-0.3806304931640625,-0.101348876953125,-0.0795745849609375,1,0.62
2020-05-17 14:54:36.813 -0400,30254.65083254167,-0.4391937255859375,-0.044891357421875,-0.189910888671875,1,0.62
2020-05-17 14:54:36.854 -0400,30254.69081479167,-0.545806884765625,0.184722900390625,-0.64630126953125,1,0.62
2020-05-17 14:54:36.893 -0400,30254.73079679167,-0.1072235107421875,0.198333740234375,-1.59039306640625,1,0.62
2020-05-17 14:54:36.933 -0400,30254.77077879167,-0.249237060546875,0.568328857421875,-1.846527099609375,1,0.62
2020-05-17 14:54:36.973 -0400,30254.81075979167,0.13983154296875,0.389495849609375,-1.831146240234375,1,0.62
2020-05-17 14:54:37.014 -0400,30254.85074179167,0.2975311279296875,0.2396240234375,-1.169448852539062,1,0.62
2020-05-17 14:54:37.053 -0400,30254.89072379167,0.2839202880859375,0.186004638671875,-0.7909698486328125,1,0.62
2020-05-17 14:54:37.093 -0400,30254.93070479167,0.1793670654296875,-0.07867431640625,-0.469696044921875,1,0.62
2020-05-17 14:54:37.148 -0400,30254.97068679167,0.2789764404296875,-0.18963623046875,-0.26947021484375,1,0.62
2020-05-17 14:54:37.173 -0400,30255.01066879167,0.5379638671875,-0.1394195556640625,-0.2205810546875,1,0.62
2020-05-17 14:54:37.213 -0400,30255.05065079167,0.62030029296875,0.24188232421875,-0.112518310546875,1,0.62
2020-05-17 14:54:37.254 -0400,30255.09063179167,0.5742340087890625,0.286468505859375,-0.57861328125,1,0.62
2020-05-17 14:54:37.293 -0400,30255.13061379167,1.332870483398438,0.8527069091796875,-1.975341796875,1,0.62
2020-05-17 14:54:37.333 -0400,30255.17059579167,1.3555908203125,0.8566741943359375,-1.968231201171875,1,0.62
2020-05-17 14:54:37.373 -0400,30255.21057679167,0.6945037841796875,1.22064208984375,-1.822113037109375,1,0.62
2020-05-17 14:54:37.413 -0400,30255.25055879167,-0.208221435546875,1.24591064453125,-1.280624389648438,1,0.62
2020-05-17 14:54:37.454 -0400,30255.29054079167,-1.033401489257812,0.843475341796875,-0.6318206787109375,1,0.62
2020-05-17 14:54:37.493 -0400,30255.33052179167,-1.48040771484375,0.852874755859375,-0.635040283203125,1,0.62
2020-05-17 14:54:37.533 -0400,30255.37050379167,-1.284881591796875,0.153839111328125,-0.33538818359375,1,0.62
2020-05-17 14:54:37.573 -0400,30255.41048579167,-0.6800689697265625,0.161712646484375,-0.2055206298828125,1,0.62
2020-05-17 14:54:37.613 -0400,30255.45046779167,-0.4860382080078125,0.6485443115234375,-0.0727386474609375,1,0.62
2020-05-17 14:54:37.660 -0400,30255.49044879167,-0.1247100830078125,2.29864501953125,-1.211227416992188,1,0.62
2020-05-17 14:54:37.693 -0400,30255.53043079167,1.35064697265625,3.542633056640625,-0.978515625,1,0.62
2020-05-17 14:54:37.733 -0400,30255.57041279167,1.031600952148438,1.800613403320312,-0.480072021484375,1,0.62
2020-05-17 14:54:37.773 -0400,30255.61039379167,0.83673095703125,0.764129638671875,-0.0347900390625,1,0.62
2020-05-17 14:54:37.813 -0400,30255.65037579167,0.711822509765625,-0.0436248779296875,-0.035552978515625,1,0.62
2020-05-17 14:54:37.853 -0400,30255.690358625,0.64453125,-0.739044189453125,-0.0055694580078125,1,0.62
2020-05-17 14:54:37.893 -0400,30255.730339625,0.7855072021484375,-0.889007568359375,0.248291015625,1,0.62
2020-05-17 14:54:37.933 -0400,30255.770321625,0.7832183837890625,-0.6041107177734375,0.154296875,1,0.62
2020-05-17 14:54:37.973 -0400,30255.810303625,0.8012847900390625,0.0345611572265625,-0.06842041015625,1,0.62
2020-05-17 14:54:38.013 -0400,30255.850285625,1.712310791015625,1.592422485351562,-0.87200927734375,1,0.62
2020-05-17 14:54:38.053 -0400,30255.890266625,3.596176147460938,4.290451049804688,-1.225143432617188,1,0.62
2020-05-17 14:54:38.093 -0400,30255.930248625,1.516433715820312,2.524383544921875,-1.0361328125,1,0.62
2020-05-17 14:54:38.133 -0400,30255.970230625,0.2747039794921875,1.225875854492188,-0.7446746826171875,1,0.62
2020-05-17 14:54:38.173 -0400,30256.010211625,-0.557159423828125,0.5836944580078125,-0.51873779296875,1,0.62
2020-05-17 14:54:38.213 -0400,30256.050193625,-1.04205322265625,0.1989288330078125,-0.4821014404296875,1,0.62
2020-05-17 14:54:38.253 -0400,30256.090175625,-0.931121826171875,-0.0401458740234375,-0.0873260498046875,1,0.62
2020-05-17 14:54:38.293 -0400,30256.130157625,-0.640625,-0.0977630615234375,-0.0821533203125,1,0.62
2020-05-17 14:54:38.333 -0400,30256.170138625,-0.3922119140625,0.351959228515625,-0.1176300048828125,1,0.62
2020-05-17 14:54:38.373 -0400,30256.210120625,-0.3320770263671875,1.091049194335938,0.0239410400390625,1,0.62
2020-05-17 14:54:38.413 -0400,30256.250102625,0.1958770751953125,4.1148681640625,0.1846923828125,1,0.62
2020-05-17 14:54:38.453 -0400,30256.290083625,1.087966918945312,2.878021240234375,0.0980682373046875,1,0.62
2020-05-17 14:54:38.493 -0400,30256.330065625,0.6949005126953125,1.271926879882812,-0.0816192626953125,1,0.62
2020-05-17 14:54:38.533 -0400,30256.370047625,0.4311676025390625,0.4667205810546875,-0.171844482421875,1,0.62
2020-05-17 14:54:38.573 -0400,30256.410029625,0.444732666015625,-0.5213470458984375,0.005889892578125,1,0.62
2020-05-17 14:54:38.613 -0400,30256.450010625,0.560546875,-0.7332611083984375,-0.04254150390625,1,0.62
2020-05-17 14:54:38.653 -0400,30256.489992625,0.570709228515625,-0.7306060791015625,-0.05120849609375,1,0.62
2020-05-17 14:54:38.693 -0400,30256.529974625,0.6718902587890625,-0.388031005859375,0.0361480712890625,1,0.62
2020-05-17 14:54:38.733 -0400,30256.569955625,0.936737060546875,-0.0208282470703125,-0.0370941162109375,1,0.62
2020-05-17 14:54:38.773 -0400,30256.609937625,3.0228271484375,2.984848022460938,-0.549163818359375,1,0.62
2020-05-17 14:54:38.812 -0400,30256.649919625,2.7567138671875,4.465423583984375,-0.914215087890625,1,0.62
2020-05-17 14:54:38.852 -0400,30256.68990154167,0.7982330322265625,2.179519653320312,-0.81329345703125,1,0.62
2020-05-17 14:54:38.892 -0400,30256.72988254167,-0.0656280517578125,1.039657592773438,-0.541107177734375,1,0.62
2020-05-17 14:54:38.933 -0400,30256.76986454167,-0.764984130859375,0.3723602294921875,-0.63153076171875,1,0.62
2020-05-17 14:54:38.972 -0400,30256.80984654167,-0.9358978271484375,0.1043548583984375,-0.3224334716796875,1,0.62
2020-05-17 14:54:39.013 -0400,30256.84982754167,-0.67462158203125,-0.1417999267578125,0.0020751953125,1,0.62
2020-05-17 14:54:39.053 -0400,30256.88980954167,-0.4666900634765625,-0.064544677734375,-0.12408447265625,1,0.62
2020-05-17 14:54:39.106 -0400,30256.92979154167,-0.3664093017578125,0.3321075439453125,-0.044219970703125,1,0.62
2020-05-17 14:54:39.133 -0400,30256.96977354167,-0.521209716796875,1.412429809570312,0.192840576171875,1,0.62
2020-05-17 14:54:39.221 -0400,30257.00975454167,0.56787109375,4.804412841796875,0.730804443359375,1,0.62
2020-05-17 14:54:39.222 -0400,30257.04973654167,0.7557220458984375,2.601852416992188,0.0078582763671875,1,0.62
2020-05-17 14:54:39.252 -0400,30257.08971854167,0.55682373046875,1.253082275390625,0.0138397216796875,1,0.62
2020-05-17 14:54:39.292 -0400,30257.12969954167,0.4749908447265625,0.156829833984375,-0.171539306640625,1,0.62
2020-05-17 14:54:39.332 -0400,30257.16968154167,0.6408233642578125,-0.852447509765625,-0.0819549560546875,1,0.62
2020-05-17 14:54:39.372 -0400,30257.20966354167,0.68109130859375,-0.9562225341796875,0.059661865234375,1,0.62
2020-05-17 14:54:39.412 -0400,30257.24964554167,0.654876708984375,-0.6444854736328125,0.05145263671875,1,0.62
2020-05-17 14:54:39.452 -0400,30257.28962654167,0.834075927734375,-0.216064453125,-0.0711669921875,1,0.62
2020-05-17 14:54:39.492 -0400,30257.32960854167,1.00250244140625,0.447723388671875,-0.2020416259765625,1,0.62
2020-05-17 14:54:39.532 -0400,30257.36959054167,3.5416259765625,3.699417114257812,-0.4600372314453125,1,0.62
2020-05-17 14:54:39.572 -0400,30257.40957154167,2.103118896484375,3.975051879882812,-0.9738922119140625,1,0.62
2020-05-17 14:54:39.612 -0400,30257.44955354167,0.2776031494140625,1.910690307617188,-0.8290252685546875,1,0.62
2020-05-17 14:54:39.652 -0400,30257.48953554167,-0.55694580078125,0.55059814453125,-0.5017852783203125,1,0.62
2020-05-17 14:54:39.693 -0400,30257.52951754167,-1.174148559570312,0.2769927978515625,-0.5287628173828125,1,0.62
2020-05-17 14:54:39.732 -0400,30257.56949854167,-0.93133544921875,0.0547943115234375,-0.0733795166015625,1,0.62
2020-05-17 14:54:39.772 -0400,30257.60948054167,-0.6063385009765625,-0.0779876708984375,0.0393218994140625,1,0.62
2020-05-17 14:54:39.812 -0400,30257.64946254167,-0.4116668701171875,0.034881591796875,-0.0341796875,1,0.62
2020-05-17 14:54:39.852 -0400,30257.68944454167,-0.2923126220703125,0.7084808349609375,0.1065673828125,1,0.62
2020-05-17 14:54:39.892 -0400,30257.72942516667,-0.327911376953125,2.472091674804688,0.0244140625,1,0.62
2020-05-17 14:54:39.932 -0400,30257.76940716667,1.409500122070312,3.4097900390625,0.46441650390625,1,0.62
2020-05-17 14:54:39.972 -0400,30257.80938916667,0.6951904296875,1.815582275390625,-0.0268096923828125,1,0.62
2020-05-17 14:54:40.012 -0400,30257.84937016667,0.5196380615234375,0.85772705078125,-0.0513916015625,1,0.62
2020-05-17 14:54:40.052 -0400,30257.88935216667,0.46954345703125,-0.116973876953125,-0.324310302734375,1,0.62
2020-05-17 14:54:40.092 -0400,30257.92933416667,0.6304931640625,-0.5641937255859375,-0.14892578125,1,0.62
2020-05-17 14:54:40.132 -0400,30257.96931616667,0.686309814453125,-0.8424530029296875,0.01666259765625,1,0.62
2020-05-17 14:54:40.172 -0400,30258.00929716667,0.58251953125,-0.5614776611328125,-0.1276397705078125,1,0.62
2020-05-17 14:54:40.212 -0400,30258.04927916667,0.7250823974609375,-0.192352294921875,-0.149383544921875,1,0.62
2020-05-17 14:54:40.252 -0400,30258.08926116667,1.880203247070312,1.893157958984375,-0.7290802001953125,1,0.62
2020-05-17 14:54:40.292 -0400,30258.12924316667,3.453216552734375,4.12091064453125,-0.982086181640625,1,0.62
2020-05-17 14:54:40.332 -0400,30258.16922416667,1.392440795898438,2.650146484375,-0.8386383056640625,1,0.62
2020-05-17 14:54:40.372 -0400,30258.20920616667,0.1956024169921875,1.35699462890625,-0.6887664794921875,1,0.62
2020-05-17 14:54:40.412 -0400,30258.24918816667,-0.61138916015625,0.47674560546875,-0.5684051513671875,1,0.62
2020-05-17 14:54:40.452 -0400,30258.28916916667,-1.166290283203125,0.0183563232421875,-0.3773956298828125,1,0.62
2020-05-17 14:54:40.492 -0400,30258.32915116667,-0.977874755859375,-0.201507568359375,0.012359619140625,1,0.62
2020-05-17 14:54:40.532 -0400,30258.36913316667,-0.7093963623046875,-0.129241943359375,-0.0951385498046875,1,0.62
2020-05-17 14:54:40.572 -0400,30258.40911516667,-0.5050048828125,0.192901611328125,-0.0845184326171875,1,0.62
2020-05-17 14:54:40.612 -0400,30258.44909616667,-0.53436279296875,1.069717407226562,0.09429931640625,1,0.62
2020-05-17 14:54:40.652 -0400,30258.48907816667,0.7257232666015625,5.046722412109375,0.081085205078125,1,0.62
2020-05-17 14:54:40.692 -0400,30258.52906016667,1.090606689453125,3.01513671875,-0.12811279296875,1,0.62
2020-05-17 14:54:40.732 -0400,30258.56904216667,0.719696044921875,1.33746337890625,-0.181854248046875,1,0.62
2020-05-17 14:54:40.772 -0400,30258.60902316667,0.3819580078125,0.3334808349609375,-0.2474517822265625,1,0.62
2020-05-17 14:54:40.812 -0400,30258.64900516667,0.5449371337890625,-0.5715179443359375,-0.1483917236328125,1,0.62
2020-05-17 14:54:40.852 -0400,30258.68898716667,0.5163116455078125,-0.8584442138671875,0.039154052734375,1,0.62
2020-05-17 14:54:40.892 -0400,30258.72896825,0.4823150634765625,-0.884246826171875,0.1126708984375,1,0.62
2020-05-17 14:54:40.932 -0400,30258.76895025,0.59893798828125,-0.4153900146484375,-0.05108642578125,1,0.62
2020-05-17 14:54:40.971 -0400,30258.80893225,0.7939910888671875,0.04669189453125,-0.112274169921875,1,0.62
2020-05-17 14:54:41.012 -0400,30258.84891425,3.151382446289062,3.1171875,-0.44671630859375,1,0.62
2020-05-17 14:54:41.052 -0400,30258.88889525,2.659271240234375,4.5457763671875,-0.87127685546875,1,0.62
2020-05-17 14:54:41.091 -0400,30258.92887725,0.650238037109375,1.958236694335938,-0.923583984375,1,0.62
2020-05-17 14:54:41.131 -0400,30258.96885925,-0.1246185302734375,0.859710693359375,-0.4180145263671875,1,0.62
2020-05-17 14:54:41.172 -0400,30259.00884025,-0.9144744873046875,0.1898193359375,-0.4083099365234375,1,0.62
2020-05-17 14:54:41.211 -0400,30259.04882225,-1.052825927734375,-0.0401763916015625,-0.2119598388671875,1,0.62
2020-05-17 14:54:41.251 -0400,30259.08880425,-0.8631744384765625,-0.182861328125,0.01519775390625,1,0.62
2020-05-17 14:54:41.292 -0400,30259.12878625,-0.62127685546875,0.0048675537109375,-0.057098388671875,1,0.62
2020-05-17 14:54:41.331 -0400,30259.16876725,-0.3962860107421875,0.60345458984375,0.02783203125,1,0.62
2020-05-17 14:54:41.371 -0400,30259.20874925,-0.5661773681640625,2.067153930664062,0.0139007568359375,1,0.62
2020-05-17 14:54:41.411 -0400,30259.24873125,1.547882080078125,3.862747192382812,0.3957366943359375,1,0.62
2020-05-17 14:54:41.451 -0400,30259.28871325,0.5941619873046875,1.937713623046875,-0.2709808349609375,1,0.62
2020-05-17 14:54:41.491 -0400,30259.32869425,0.4866943359375,0.920654296875,-0.1275177001953125,1,0.62
2020-05-17 14:54:41.531 -0400,30259.36867625,0.4768829345703125,-0.1742706298828125,-0.2194671630859375,1,0.62
2020-05-17 14:54:41.571 -0400,30259.40865825,0.5938720703125,-0.72137451171875,-0.14019775390625,1,0.62
2020-05-17 14:54:41.611 -0400,30259.44863925,0.630889892578125,-0.8955841064453125,0.0431671142578125,1,0.62
2020-05-17 14:54:41.651 -0400,30259.48862125,0.6564483642578125,-0.490966796875,0.0826416015625,1,0.62
2020-05-17 14:54:41.691 -0400,30259.52860325,0.80694580078125,-0.1472930908203125,0.0559539794921875,1,0.62
2020-05-17 14:54:41.731 -0400,30259.56858525,1.861495971679688,1.98284912109375,-0.3869781494140625,1,0.62
2020-05-17 14:54:41.771 -0400,30259.60856625,3.460845947265625,3.7498779296875,-0.993743896484375,1,0.62
2020-05-17 14:54:41.811 -0400,30259.64854825,1.406173706054688,2.652999877929688,-0.745758056640625,1,0.62
2020-05-17 14:54:41.851 -0400,30259.68853025,0.131683349609375,1.500381469726562,-0.6429443359375,1,0.62
2020-05-17 14:54:41.891 -0400,30259.72851291667,-0.7406158447265625,0.58062744140625,-0.5763092041015625,1,0.62
2020-05-17 14:54:41.931 -0400,30259.76849391667,-1.087020874023438,0.2655181884765625,-0.4473724365234375,1,0.62
2020-05-17 14:54:41.971 -0400,30259.80847591667,-0.8311004638671875,-0.0635833740234375,-0.06732177734375,1,0.62
2020-05-17 14:54:42.011 -0400,30259.84845791667,-0.5906829833984375,-0.1504058837890625,-0.1017303466796875,1,0.62
2020-05-17 14:54:42.051 -0400,30259.88843991667,-0.45648193359375,0.0573272705078125,-0.0338287353515625,1,0.62
2020-05-17 14:54:42.091 -0400,30259.92842091667,-0.42388916015625,0.90203857421875,0.221405029296875,1,0.62
2020-05-17 14:54:42.131 -0400,30259.96840291667,0.060821533203125,4.508163452148438,0.31378173828125,1,0.62
2020-05-17 14:54:42.171 -0400,30260.00838491667,1.42938232421875,2.995040893554688,0.27825927734375,1,0.62
2020-05-17 14:54:42.211 -0400,30260.04836591667,0.833831787109375,1.482131958007812,-0.0169219970703125,1,0.62
2020-05-17 14:54:42.251 -0400,30260.08834791667,0.39337158203125,0.423583984375,-0.0239410400390625,1,0.62
2020-05-17 14:54:42.291 -0400,30260.12832991667,0.504486083984375,-0.6111297607421875,-0.1277008056640625,1,0.62
2020-05-17 14:54:42.331 -0400,30260.16831191667,0.555694580078125,-0.92242431640625,-0.0379180908203125,1,0.62
2020-05-17 14:54:42.371 -0400,30260.20829291667,0.6135711669921875,-0.8371124267578125,0.084320068359375,1,0.62
2020-05-17 14:54:42.411 -0400,30260.24827491667,0.7068328857421875,-0.36474609375,-0.0133819580078125,1,0.62
2020-05-17 14:54:42.451 -0400,30260.28825691667,0.8805084228515625,-0.0284881591796875,-0.01214599609375,1,0.62
2020-05-17 14:54:42.491 -0400,30260.32823891667,3.236648559570312,3.678482055664062,-0.689300537109375,1,0.62
2020-05-17 14:54:42.531 -0400,30260.36821991667,3.068557739257812,3.878738403320312,-0.637939453125,1,0.62
2020-05-17 14:54:42.571 -0400,30260.40820191667,0.9579010009765625,2.148147583007812,-0.8578643798828125,1,0.62
2020-05-17 14:54:42.611 -0400,30260.44818391667,0.0845184326171875,1.088638305664062,-0.567718505859375,1,0.62
2020-05-17 14:54:42.651 -0400,30260.48816491667,-0.861541748046875,0.30267333984375,-0.4503021240234375,1,0.62
2020-05-17 14:54:42.691 -0400,30260.52814691667,-1.094619750976562,-0.0116729736328125,-0.22930908203125,1,0.62
2020-05-17 14:54:42.731 -0400,30260.56812891667,-0.8508453369140625,-0.2006072998046875,0.09942626953125,1,0.62
2020-05-17 14:54:42.771 -0400,30260.60811091667,-0.6278533935546875,-0.249176025390625,0.053863525390625,1,0.62
2020-05-17 14:54:42.811 -0400,30260.64809191667,-0.44140625,0.353851318359375,0.0584564208984375,1,0.62
2020-05-17 14:54:42.852 -0400,30260.68807391667,-0.7571258544921875,2.07440185546875,0.1298370361328125,1,0.62
2020-05-17 14:54:42.891 -0400,30260.72805425,1.391128540039062,4.46539306640625,0.342254638671875,1,0.62
2020-05-17 14:54:42.931 -0400,30260.76803525,0.7524566650390625,2.381103515625,-0.0973663330078125,1,0.62
2020-05-17 14:54:42.971 -0400,30260.80801725,0.6529541015625,1.04351806640625,-0.284210205078125,1,0.62
2020-05-17 14:54:43.011 -0400,30260.84799925,0.33624267578125,0.088623046875,-0.192535400390625,1,0.62
2020-05-17 14:54:43.054 -0400,30260.88798125,0.5257568359375,-0.7818450927734375,0.13671875,1,0.62
2020-05-17 14:54:43.093 -0400,30260.92796225,0.5746307373046875,-0.8103179931640625,0.0172882080078125,1,0.62
2020-05-17 14:55:07.890 -0400,30285.716584125,0.3234405517578125,-0.151153564453125,-0.3438568115234375,1,0.62
2020-05-17 14:55:07.919 -0400,30285.7565635,0.549346923828125,-0.0202178955078125,-0.4494476318359375,1,0.62
2020-05-17 14:55:07.959 -0400,30285.7965455,0.4918212890625,-0.0444488525390625,-1.004241943359375,1,0.62
2020-05-17 14:55:08.000 -0400,30285.8365265,0.106109619140625,-0.56494140625,-1.368301391601562,1,0.62
2020-05-17 14:55:08.039 -0400,30285.8765085,0.370880126953125,-0.593963623046875,-2.1285400390625,1,0.62
2020-05-17 14:55:08.079 -0400,30285.9164895,-0.056671142578125,-0.256591796875,-1.860671997070312,1,0.62
2020-05-17 14:55:08.119 -0400,30285.9564715,-0.4962615966796875,-0.1414642333984375,-1.194427490234375,1,0.62
2020-05-17 14:55:08.159 -0400,30285.9964535,-0.4277191162109375,0.00140380859375,-0.7194976806640625,1,0.62
2020-05-17 14:55:08.199 -0400,30286.0364345,-0.3346710205078125,-0.122314453125,-0.1545867919921875,1,0.62
2020-05-17 14:55:08.239 -0400,30286.0764165,-0.404388427734375,0.07647705078125,0.0279083251953125,1,0.62
2020-05-17 14:55:08.279 -0400,30286.1163975,-0.41802978515625,0.270233154296875,-0.0633087158203125,1,0.62
2020-05-17 14:55:08.319 -0400,30286.1563795,-0.38641357421875,0.3168182373046875,-0.390289306640625,1,0.62
2020-05-17 14:55:08.359 -0400,30286.1963605,-0.6520538330078125,0.11822509765625,-1.0440673828125,1,0.62
2020-05-17 14:55:08.399 -0400,30286.2363425,-0.4869842529296875,-0.32598876953125,-1.657485961914062,1,0.62
2020-05-17 14:55:08.439 -0400,30286.2763235,-0.4680328369140625,-0.037841796875,-2.115646362304688,1,0.62
2020-05-17 14:55:08.479 -0400,30286.3163055,-0.1059417724609375,-0.35809326171875,-1.926956176757812,1,0.62
2020-05-17 14:55:08.519 -0400,30286.3562865,0.4780426025390625,-0.4683837890625,-1.05426025390625,1,0.62
2020-05-17 14:55:08.559 -0400,30286.3962685,0.320831298828125,-0.4451141357421875,-0.741241455078125,1,0.62
2020-05-17 14:55:08.599 -0400,30286.4362505,0.41455078125,-0.2559967041015625,-0.2418060302734375,1,0.62
2020-05-17 14:55:08.639 -0400,30286.4762315,0.4262847900390625,-0.2078399658203125,-0.2578125,1,0.62
2020-05-17 14:55:08.679 -0400,30286.5162135,0.34246826171875,-0.136199951171875,-0.4074554443359375,1,0.62
2020-05-17 14:55:08.719 -0400,30286.5561945,0.339508056640625,-0.07403564453125,-1.287185668945312,1,0.62
2020-05-17 14:55:08.759 -0400,30286.5961765,0.225738525390625,-0.156280517578125,-1.888916015625,1,0.62
2020-05-17 14:55:08.799 -0400,30286.6361575,0.3502044677734375,0.0086517333984375,-2.206527709960938,1,0.62
2020-05-17 14:55:08.839 -0400,30286.6761395,-0.346038818359375,-0.18817138671875,-1.556930541992188,1,0.62
2020-05-17 14:55:08.893 -0400,30286.7161205,-0.3258514404296875,-0.04925537109375,-0.871612548828125,1,0.62
2020-05-17 14:55:08.919 -0400,30286.756104,-0.2470550537109375,-0.06573486328125,-0.5763702392578125,1,0.62
2020-05-17 14:55:08.959 -0400,30286.796085,-0.429718017578125,-0.0496368408203125,-0.1092376708984375,1,0.62
2020-05-17 14:55:08.999 -0400,30286.836067,-0.571380615234375,-0.0151824951171875,-0.068145751953125,1,0.62
2020-05-17 14:55:09.039 -0400,30286.876049,-0.375396728515625,0.087188720703125,-0.34381103515625,1,0.62
2020-05-17 14:55:09.079 -0400,30286.91603,-0.404388427734375,0.220062255859375,-0.857208251953125,1,0.62
2020-05-17 14:55:09.119 -0400,30286.956012,-0.364990234375,-0.382843017578125,-1.507965087890625,1,0.62
2020-05-17 14:55:09.159 -0400,30286.995993,-0.300994873046875,0.12896728515625,-2.166000366210938,1,0.62
2020-05-17 14:55:09.199 -0400,30287.035975,-0.3419647216796875,-0.1182098388671875,-2.00244140625,1,0.62
2020-05-17 14:55:09.239 -0400,30287.075956,-0.1248321533203125,-0.4174652099609375,-1.417434692382812,1,0.62
2020-05-17 14:55:09.279 -0400,30287.115938,0.0775909423828125,-0.2932891845703125,-0.8638153076171875,1,0.62
2020-05-17 14:55:09.319 -0400,30287.155919,0.2178955078125,-0.218231201171875,-0.3121185302734375,1,0.62
2020-05-17 14:55:09.359 -0400,30287.195901,0.296234130859375,-0.2166290283203125,0.0238189697265625,1,0.62
