loggingTime(txt),accelerometerTimestamp_sinceReboot(s),accelerometerAccelerationX(G),accelerometerAccelerationY(G),accelerometerAccelerationZ(G),batteryState,batteryLevel
2020-05-17 15:12:38.190 -0400,31271.75057225,-0.10504150390625,-0.04718017578125,-0.4862060546875,1,0.59
2020-05-17 15:12:38.230 -0400,31271.79048325,-0.0918731689453125,-0.0706634521484375,-0.53948974609375,1,0.59
2020-05-17 15:12:38.270 -0400,31271.83039225,-0.0124664306640625,0.004669189453125,-0.7756500244140625,1,0.59
2020-05-17 15:12:38.310 -0400,31271.87030325,0.057403564453125,0.070281982421875,-0.9685211181640625,1,0.59
2020-05-17 15:12:38.350 -0400,31271.91021625,0.029754638671875,0.1890106201171875,-1.038055419921875,1,0.59
2020-05-17 15:12:38.390 -0400,31271.95012725,0.045501708984375,0.2280426025390625,-1.142990112304688,1,0.59
2020-05-17 15:12:38.430 -0400,31271.99003825,0.32373046875,0.2561492919921875,-1.351150512695312,1,0.59
2020-05-17 15:12:38.470 -0400,31272.02995225,0.30865478515625,0.2966766357421875,-1.118087768554688,1,0.59
2020-05-17 15:12:38.510 -0400,31272.06986525,0.364105224609375,0.3331298828125,-0.9904632568359375,1,0.59
2020-05-17 15:12:38.550 -0400,31272.10977825,0.3108367919921875,0.287017822265625,-0.859161376953125,1,0.59
2020-05-17 15:12:38.590 -0400,31272.14969125,0.1387176513671875,0.2860107421875,-0.5623016357421875,1,0.59
2020-05-17 15:12:38.629 -0400,31272.18960225,0.0835418701171875,0.336334228515625,-0.33941650390625,1,0.59
2020-05-17 15:12:38.669 -0400,31272.22951325,0.1353912353515625,0.5316925048828125,-0.33148193359375,1,0.59
2020-05-17 15:12:38.709 -0400,31272.26942525,0.403289794921875,0.502349853515625,-0.2507171630859375,1,0.59
2020-05-17 15:12:38.749 -0400,31272.30933625,0.8310546875,0.4727325439453125,0.0032806396484375,1,0.59
2020-05-17 15:12:38.789 -0400,31272.34924925,1.124801635742188,0.618194580078125,0.018890380859375,1,0.59
2020-05-17 15:12:38.829 -0400,31272.38916025,1.269851684570312,0.62158203125,0.017059326171875,1,0.59
2020-05-17 15:12:38.869 -0400,31272.42907025,1.583282470703125,0.67352294921875,0.0884552001953125,1,0.59
2020-05-17 15:12:38.909 -0400,31272.46898225,1.821029663085938,1.478927612304688,-0.1249847412109375,1,0.59
2020-05-17 15:12:38.949 -0400,31272.50889525,2.232666015625,1.011871337890625,-0.2211456298828125,1,0.59
2020-05-17 15:12:38.989 -0400,31272.54880825,2.136581420898438,1.931427001953125,-0.46124267578125,1,0.59
2020-05-17 15:12:39.029 -0400,31272.58872125,1.322555541992188,1.628189086914062,-0.3961334228515625,1,0.59
2020-05-17 15:12:39.069 -0400,31272.62863025,0.3648681640625,1.270004272460938,-0.386016845703125,1,0.59
2020-05-17 15:12:39.109 -0400,31272.66854125,-0.4672393798828125,0.925811767578125,-0.2991790771484375,1,0.59
2020-05-17 15:12:39.165 -0400,31272.70845225,-1.001724243164062,0.5946502685546875,-0.36407470703125,1,0.59
2020-05-17 15:12:39.189 -0400,31272.748363875,-0.640106201171875,0.332122802734375,-0.36492919921875,1,0.59
2020-05-17 15:12:39.229 -0400,31272.788274875,-0.2745819091796875,0.2349700927734375,-0.2369232177734375,1,0.59
2020-05-17 15:12:39.269 -0400,31272.828186875,-0.0689849853515625,0.4213104248046875,-0.1323089599609375,1,0.59
2020-05-17 15:12:39.319 -0400,31272.868096875,0.0536956787109375,1.29156494140625,-0.1087646484375,1,0.59
2020-05-17 15:12:39.348 -0400,31272.908005875,1.3720703125,3.863265991210938,-0.3665771484375,1,0.59
2020-05-17 15:12:39.388 -0400,31272.947913875,1.490341186523438,2.812240600585938,-0.20806884765625,1,0.59
2020-05-17 15:12:39.434 -0400,31272.987823875,1.174880981445312,1.27716064453125,-0.22564697265625,1,0.59
2020-05-17 15:12:39.516 -0400,31273.027732875,0.535186767578125,0.18817138671875,0.0742645263671875,1,0.59
2020-05-17 15:12:39.519 -0400,31273.067727875,0.4146575927734375,-0.549591064453125,0.0054779052734375,1,0.59
2020-05-17 15:12:39.548 -0400,31273.107706875,0.510894775390625,-0.62213134765625,-0.1759796142578125,1,0.59
2020-05-17 15:12:39.588 -0400,31273.147686875,0.385284423828125,-0.660186767578125,-0.0748748779296875,1,0.59
2020-05-17 15:12:39.628 -0400,31273.187666875,0.5460205078125,-0.2961273193359375,-0.0576171875,1,0.59
2020-05-17 15:12:39.669 -0400,31273.227645875,0.9066009521484375,-0.0164031982421875,-0.03167724609375,1,0.59
2020-05-17 15:12:39.708 -0400,31273.267625875,3.194473266601562,2.730255126953125,-0.5062408447265625,1,0.59
2020-05-17 15:12:39.755 -0400,31273.307605875,2.784637451171875,2.984161376953125,-1.128829956054688,1,0.59
2020-05-17 15:12:39.788 -0400,31273.347584875,0.844207763671875,1.975906372070312,-0.8106842041015625,1,0.59
2020-05-17 15:12:39.828 -0400,31273.387564875,-0.086669921875,0.91412353515625,-0.424041748046875,1,0.59
2020-05-17 15:12:39.868 -0400,31273.427544875,-0.812225341796875,0.5169677734375,-0.49761962890625,1,0.59
2020-05-17 15:12:39.908 -0400,31273.467523875,-1.01300048828125,0.2114410400390625,-0.47515869140625,1,0.59
2020-05-17 15:12:39.948 -0400,31273.507503875,-0.8283843994140625,-0.026580810546875,-0.25567626953125,1,0.59
2020-05-17 15:12:39.988 -0400,31273.547483875,-0.5831756591796875,-0.0899505615234375,-0.1829681396484375,1,0.59
2020-05-17 15:12:40.056 -0400,31273.587462875,-0.359344482421875,0.330902099609375,-0.099456787109375,1,0.59
2020-05-17 15:12:40.068 -0400,31273.627442875,-0.427764892578125,1.632247924804688,-0.0469818115234375,1,0.59
2020-05-17 15:12:40.107 -0400,31273.667422875,1.370742797851562,4.59619140625,-0.02166748046875,1,0.59
2020-05-17 15:12:40.156 -0400,31273.707402875,0.8824310302734375,2.59564208984375,-0.304931640625,1,0.59
2020-05-17 15:12:40.187 -0400,31273.74738129167,0.7418975830078125,0.974334716796875,-0.080108642578125,1,0.59
2020-05-17 15:12:40.227 -0400,31273.78736129167,0.3076019287109375,-0.1151123046875,0.0012969970703125,1,0.59
2020-05-17 15:12:40.267 -0400,31273.82734129167,0.51043701171875,-0.8549652099609375,-0.0050048828125,1,0.59
2020-05-17 15:12:40.307 -0400,31273.86732029167,0.458343505859375,-0.9372100830078125,0.0045013427734375,1,0.59
2020-05-17 15:12:40.347 -0400,31273.90730029167,0.5255279541015625,-0.7335357666015625,-0.1166534423828125,1,0.59
2020-05-17 15:12:40.387 -0400,31273.94728029167,0.9181060791015625,-0.117095947265625,-0.1487274169921875,1,0.59
2020-05-17 15:12:40.427 -0400,31273.98726029167,2.11590576171875,1.370590209960938,0.019805908203125,1,0.59
2020-05-17 15:12:40.467 -0400,31274.02723929167,3.85595703125,4.1929931640625,-1.147628784179688,1,0.59
2020-05-17 15:12:40.507 -0400,31274.06721929167,1.378311157226562,2.68865966796875,-0.937164306640625,1,0.59
2020-05-17 15:12:40.547 -0400,31274.10719929167,-0.1456146240234375,1.50213623046875,-0.6117095947265625,1,0.59
2020-05-17 15:12:40.587 -0400,31274.14717929167,-1.092788696289062,0.49072265625,-0.5281982421875,1,0.59
2020-05-17 15:12:40.627 -0400,31274.18715829167,-1.300155639648438,0.392425537109375,-0.3916473388671875,1,0.59
2020-05-17 15:12:40.667 -0400,31274.22713829167,-0.9610443115234375,0.0803680419921875,-0.080902099609375,1,0.59
2020-05-17 15:12:40.708 -0400,31274.26711829167,-0.561431884765625,0.02703857421875,-0.122344970703125,1,0.59
2020-05-17 15:12:40.747 -0400,31274.30709829167,-0.3159942626953125,0.1593475341796875,-0.0772247314453125,1,0.59
2020-05-17 15:12:40.787 -0400,31274.34707729167,-0.2753448486328125,1.13385009765625,0.0705413818359375,1,0.59
2020-05-17 15:12:40.827 -0400,31274.38705729167,0.4602508544921875,4.3414306640625,0.1024169921875,1,0.59
2020-05-17 15:12:40.867 -0400,31274.42703729167,1.091522216796875,2.861282348632812,-0.0363311767578125,1,0.59
2020-05-17 15:12:40.907 -0400,31274.46701729167,0.690155029296875,1.376617431640625,0.0975341796875,1,0.59
2020-05-17 15:12:40.947 -0400,31274.50699629167,0.41705322265625,0.5335845947265625,-0.0994415283203125,1,0.59
2020-05-17 15:12:40.987 -0400,31274.54697629167,0.416961669921875,-0.6659088134765625,-0.015106201171875,1,0.59
2020-05-17 15:12:41.027 -0400,31274.58695629167,0.5542144775390625,-0.6566162109375,-0.009979248046875,1,0.59
2020-05-17 15:12:41.067 -0400,31274.62693629167,0.5370941162109375,-0.752288818359375,-0.175994873046875,1,0.59
2020-05-17 15:12:41.107 -0400,31274.66691529167,0.77386474609375,-0.3692626953125,-0.0566253662109375,1,0.59
2020-05-17 15:12:41.147 -0400,31274.70689529167,1.302520751953125,0.05401611328125,0.1948394775390625,1,0.59
2020-05-17 15:12:41.187 -0400,31274.746876375,3.88909912109375,3.500457763671875,-1.152435302734375,1,0.59
2020-05-17 15:12:41.227 -0400,31274.786856375,2.21417236328125,3.320968627929688,-0.9976806640625,1,0.59
2020-05-17 15:12:41.267 -0400,31274.826836375,0.0760040283203125,2.092330932617188,-0.6212310791015625,1,0.59
2020-05-17 15:12:41.307 -0400,31274.866815375,-0.8654937744140625,0.817169189453125,-0.6388092041015625,1,0.59
2020-05-17 15:12:41.347 -0400,31274.906795375,-0.9609832763671875,0.518310546875,-0.730804443359375,1,0.59
2020-05-17 15:12:41.387 -0400,31274.946775375,-0.580169677734375,0.0155792236328125,-0.1877593994140625,1,0.59
2020-05-17 15:12:41.427 -0400,31274.986755375,-0.246795654296875,-0.07476806640625,-0.1098480224609375,1,0.59
2020-05-17 15:12:41.467 -0400,31275.026734375,-0.1942596435546875,-0.1664581298828125,-0.2605133056640625,1,0.59
2020-05-17 15:12:41.507 -0400,31275.066714375,-0.17218017578125,0.304046630859375,-0.1746368408203125,1,0.59
2020-05-17 15:12:41.547 -0400,31275.106694375,-0.48974609375,2.008514404296875,-0.6021270751953125,1,0.59
2020-05-17 15:12:41.587 -0400,31275.146674375,1.347946166992188,3.862518310546875,-0.2739715576171875,1,0.59
2020-05-17 15:12:41.627 -0400,31275.186654375,0.489898681640625,2.576004028320312,-0.49359130859375,1,0.59
2020-05-17 15:12:41.667 -0400,31275.226633375,0.367889404296875,0.946990966796875,-0.122222900390625,1,0.59
2020-05-17 15:12:41.707 -0400,31275.266613375,0.347930908203125,-0.1356048583984375,-0.11273193359375,1,0.59
2020-05-17 15:12:41.747 -0400,31275.306593375,0.5409088134765625,-0.7978363037109375,-0.1659698486328125,1,0.59
2020-05-17 15:12:41.787 -0400,31275.346573375,0.523406982421875,-1.119964599609375,0.0172271728515625,1,0.59
2020-05-17 15:12:41.827 -0400,31275.386553375,0.4935150146484375,-0.6193695068359375,0.0274810791015625,1,0.59
2020-05-17 15:12:41.867 -0400,31275.426532375,0.7906494140625,-0.033416748046875,0.1215362548828125,1,0.59
2020-05-17 15:12:41.907 -0400,31275.466512375,1.81951904296875,1.90911865234375,-0.4170684814453125,1,0.59
2020-05-17 15:12:41.947 -0400,31275.506492375,3.887054443359375,3.902252197265625,-2.753250122070312,1,0.59
2020-05-17 15:12:41.986 -0400,31275.546472375,1.471206665039062,1.382858276367188,0.149871826171875,1,0.59
2020-05-17 15:12:42.027 -0400,31275.586452375,-0.366302490234375,2.15521240234375,-1.42010498046875,1,0.59
2020-05-17 15:12:42.067 -0400,31275.626431375,-1.009567260742188,0.3274078369140625,-0.3476715087890625,1,0.59
2020-05-17 15:12:42.107 -0400,31275.666411375,-1.099334716796875,0.1739959716796875,-0.330047607421875,1,0.59
2020-05-17 15:12:42.146 -0400,31275.706391375,-0.825775146484375,-0.694122314453125,0.1852264404296875,1,0.59
2020-05-17 15:12:42.193 -0400,31275.746371125,-0.5315399169921875,-0.173736572265625,0.38421630859375,1,0.59
2020-05-17 15:12:42.226 -0400,31275.786351125,-0.352294921875,0.4067840576171875,0.3409576416015625,1,0.59
2020-05-17 15:12:42.267 -0400,31275.826330125,0.112213134765625,0.2689208984375,-0.08087158203125,1,0.59
2020-05-17 15:12:42.307 -0400,31275.866310125,2.31182861328125,4.056503295898438,0.1018829345703125,1,0.59
2020-05-17 15:12:42.346 -0400,31275.906290125,2.42706298828125,2.833297729492188,-0.011016845703125,1,0.59
2020-05-17 15:12:42.386 -0400,31275.946270125,1.853805541992188,0.343231201171875,-0.49407958984375,1,0.59
2020-05-17 15:12:42.426 -0400,31275.986250125,0.993377685546875,0.154815673828125,-0.5919189453125,1,0.59
2020-05-17 15:12:42.466 -0400,31276.026229125,0.3338623046875,0.0143280029296875,-0.3838653564453125,1,0.59
2020-05-17 15:12:42.506 -0400,31276.066209125,-0.2077789306640625,0.186737060546875,-0.2395172119140625,1,0.59
2020-05-17 15:12:42.546 -0400,31276.106189125,-0.1090545654296875,-0.7659759521484375,0.6558380126953125,1,0.59
2020-05-17 15:12:42.586 -0400,31276.146169125,0.20635986328125,-0.4830169677734375,0.59197998046875,1,0.59
2020-05-17 15:12:42.626 -0400,31276.186149125,0.85552978515625,0.6002349853515625,0.5575408935546875,1,0.59
2020-05-17 15:12:42.666 -0400,31276.226129125,1.948257446289062,4.134124755859375,0.37396240234375,1,0.59
2020-05-17 15:12:42.706 -0400,31276.266108125,1.312393188476562,2.119277954101562,-0.9366912841796875,1,0.59
2020-05-17 15:12:42.746 -0400,31276.306088125,0.2636566162109375,0.7493133544921875,-0.8032379150390625,1,0.59
2020-05-17 15:12:42.786 -0400,31276.346068125,-0.0099029541015625,0.6820220947265625,-0.4210205078125,1,0.59
2020-05-17 15:12:42.826 -0400,31276.386048125,-0.590057373046875,0.147003173828125,-0.0111236572265625,1,0.59
2020-05-17 15:12:42.866 -0400,31276.426028125,-0.7808685302734375,-0.253875732421875,0.219390869140625,1,0.59
2020-05-17 15:12:42.906 -0400,31276.466007125,-0.449127197265625,-0.4346160888671875,0.170013427734375,1,0.59
2020-05-17 15:12:42.946 -0400,31276.505987125,-0.11181640625,0.27508544921875,0.11822509765625,1,0.59
2020-05-17 15:12:42.986 -0400,31276.545967125,0.1288604736328125,1.01727294921875,0.2619476318359375,1,0.59
2020-05-17 15:12:43.026 -0400,31276.585947125,1.3177490234375,2.9840087890625,0.1025543212890625,1,0.59
2020-05-17 15:12:43.073 -0400,31276.625927125,1.449172973632812,3.155426025390625,0.3277435302734375,1,0.59
2020-05-17 15:12:43.106 -0400,31276.665907125,1.161041259765625,1.029998779296875,-0.780731201171875,1,0.59
2020-05-17 15:12:43.146 -0400,31276.705886125,0.5994110107421875,1.312652587890625,-0.141265869140625,1,0.59
2020-05-17 15:12:43.188 -0400,31276.74586604167,-0.054534912109375,0.751312255859375,0.3001708984375,1,0.59
2020-05-17 15:12:43.226 -0400,31276.78584604167,0.008453369140625,-0.3766937255859375,0.07940673828125,1,0.59
2020-05-17 15:12:43.266 -0400,31276.82582604167,0.28118896484375,-0.7362213134765625,0.31475830078125,1,0.59
2020-05-17 15:12:43.306 -0400,31276.86580604167,0.7667388916015625,-0.6758880615234375,0.7540435791015625,1,0.59
2020-05-17 15:12:43.346 -0400,31276.90578604167,1.31591796875,0.9424591064453125,1.00335693359375,1,0.59
2020-05-17 15:12:43.386 -0400,31276.94576504167,1.407180786132812,2.597503662109375,-0.3031005859375,1,0.59
2020-05-17 15:12:43.426 -0400,31276.98574504167,0.8539886474609375,2.68231201171875,-0.8119964599609375,1,0.59
2020-05-17 15:12:43.466 -0400,31277.02572504167,0.375274658203125,1.802536010742188,-0.5738983154296875,1,0.59
2020-05-17 15:12:43.506 -0400,31277.06570504167,0.0894317626953125,0.7840118408203125,-0.341064453125,1,0.59
2020-05-17 15:12:43.546 -0400,31277.10568504167,-0.175750732421875,0.360137939453125,-0.130279541015625,1,0.59
2020-05-17 15:12:43.586 -0400,31277.14566504167,-0.417022705078125,-0.38922119140625,0.3255767822265625,1,0.59
2020-05-17 15:12:43.626 -0400,31277.18564404167,-0.6794281005859375,0.0581817626953125,0.423736572265625,1,0.59
2020-05-17 15:12:43.666 -0400,31277.22562404167,-0.6025390625,0.0655517578125,0.0464630126953125,1,0.59
2020-05-17 15:12:43.706 -0400,31277.26560404167,-0.1391143798828125,0.1872711181640625,-0.2463226318359375,1,0.59
2020-05-17 15:12:43.746 -0400,31277.30558404167,0.3974761962890625,2.480682373046875,0.55316162109375,1,0.59
2020-05-17 15:12:43.786 -0400,31277.34556404167,1.823410034179688,2.463287353515625,0.1777496337890625,1,0.59
2020-05-17 15:12:43.826 -0400,31277.38554404167,1.91436767578125,2.141983032226562,-0.654144287109375,1,0.59
2020-05-17 15:12:43.866 -0400,31277.42552404167,1.229446411132812,1.33966064453125,-0.48333740234375,1,0.59
2020-05-17 15:12:43.906 -0400,31277.46550304167,0.4620361328125,0.3001556396484375,-0.101287841796875,1,0.59
2020-05-17 15:12:43.946 -0400,31277.50548304167,0.1718902587890625,-0.3147735595703125,-0.0099029541015625,1,0.59
2020-05-17 15:12:43.986 -0400,31277.54546304167,0.1924896240234375,-0.6089630126953125,0.4011993408203125,1,0.59
2020-05-17 15:12:44.026 -0400,31277.58544304167,0.619720458984375,-0.3379364013671875,0.4549713134765625,1,0.59
2020-05-17 15:12:44.066 -0400,31277.62542304167,1.113525390625,0.0357513427734375,0.5349578857421875,1,0.59
2020-05-17 15:12:44.105 -0400,31277.66540304167,1.998031616210938,2.311920166015625,0.947479248046875,1,0.59
2020-05-17 15:12:44.145 -0400,31277.70538304167,1.980865478515625,1.599472045898438,-0.189697265625,1,0.59
2020-05-17 15:12:44.186 -0400,31277.745362625,0.5784759521484375,2.072433471679688,-0.2217559814453125,1,0.59
2020-05-17 15:12:44.225 -0400,31277.785342625,-0.1600799560546875,1.308364868164062,0.601409912109375,1,0.59
2020-05-17 15:12:44.266 -0400,31277.825322625,-0.73199462890625,0.8171539306640625,0.1069183349609375,1,0.59
2020-05-17 15:12:44.306 -0400,31277.865302625,-1.12567138671875,0.4736175537109375,-0.2022552490234375,1,0.59
2020-05-17 15:12:44.345 -0400,31277.905282625,-1.24163818359375,0.3822021484375,-0.29229736328125,1,0.59
2020-05-17 15:12:44.387 -0400,31277.945262625,-0.6803741455078125,0.1551513671875,-0.1820220947265625,1,0.59
2020-05-17 15:12:44.426 -0400,31277.985242625,0.0345611572265625,0.9452667236328125,0.09466552734375,1,0.59
2020-05-17 15:16:22.438 -0400,31495.997596125,-0.0675506591796875,0.55499267578125,-1.998367309570312,1,0.59
2020-05-17 15:16:22.477 -0400,31496.037576125,0.201690673828125,0.16510009765625,-1.459762573242188,1,0.59
2020-05-17 15:16:22.517 -0400,31496.077557125,0.403106689453125,0.0347747802734375,-1.084518432617188,1,0.59
2020-05-17 15:16:22.557 -0400,31496.117537125,0.4667510986328125,-0.1055755615234375,-0.5806732177734375,1,0.59
2020-05-17 15:16:22.597 -0400,31496.157517125,0.40911865234375,-0.205047607421875,-0.1702423095703125,1,0.59
2020-05-17 15:16:22.637 -0400,31496.197497125,0.3680419921875,-0.1446380615234375,-0.1461944580078125,1,0.59
2020-05-17 15:16:22.677 -0400,31496.237477125,0.3543548583984375,0.0188751220703125,-0.349029541015625,1,0.59
2020-05-17 15:16:22.721 -0400,31496.277457125,0.323822021484375,0.118316650390625,-1.324691772460938,1,0.59
2020-05-17 15:16:22.757 -0400,31496.317437125,0.4136810302734375,0.476104736328125,-2.446731567382812,1,0.59
2020-05-17 15:16:22.797 -0400,31496.357417125,0.281341552734375,0.4467010498046875,-2.108245849609375,1,0.59
2020-05-17 15:16:22.837 -0400,31496.397397125,-0.422943115234375,-0.0217437744140625,-1.429412841796875,1,0.59
2020-05-17 15:16:22.877 -0400,31496.437377125,-0.527801513671875,0.07659912109375,-1.034210205078125,1,0.59
