loggingTime(txt),accelerometerTimestamp_sinceReboot(s),accelerometerAccelerationX(G),accelerometerAccelerationY(G),accelerometerAccelerationZ(G),batteryState,batteryLevel
2020-05-15 18:19:13.047 -0400,5349.568960416667,-0.2918853759765625,-0.3357696533203125,-0.884124755859375,1,0.91
2020-05-15 18:19:13.166 -0400,5349.688697416667,-0.2704620361328125,-0.3678741455078125,-0.9130859375,1,0.91
2020-05-15 18:19:13.286 -0400,5349.808435166667,-0.2234649658203125,-0.389862060546875,-0.892852783203125,1,0.91
2020-05-15 18:19:13.406 -0400,5349.928175166667,-0.244110107421875,0.026153564453125,-0.743072509765625,1,0.91
2020-05-15 18:19:13.525 -0400,5350.047907166667,-0.3138885498046875,0.448638916015625,-0.8822021484375,1,0.91
2020-05-15 18:19:13.645 -0400,5350.167642166667,-0.8057403564453125,0.372039794921875,-0.2888336181640625,1,0.91
2020-05-15 18:19:13.765 -0400,5350.287373166667,-0.47003173828125,0.6262969970703125,-0.219207763671875,1,0.91
2020-05-15 18:19:13.885 -0400,5350.407111166667,-0.30706787109375,0.998199462890625,-0.214874267578125,1,0.91
2020-05-15 18:19:14.004 -0400,5350.526846166667,-0.38336181640625,0.9979400634765625,-0.2449493408203125,1,0.91
2020-05-15 18:19:14.104 -0400,5350.626622166667,-0.29547119140625,1.049057006835938,-0.1671295166015625,1,0.91
2020-05-15 18:19:14.177 -0400,5350.696464166667,-0.3393707275390625,0.8493499755859375,-0.4279022216796875,1,0.91
2020-05-15 18:19:14.244 -0400,5350.76631075,-0.35894775390625,0.8198394775390625,-0.1995391845703125,1,0.91
2020-05-15 18:19:14.314 -0400,5350.83615475,-0.3161773681640625,0.8636322021484375,-0.1820831298828125,1,0.91
2020-05-15 18:19:14.384 -0400,5350.90599875,-0.32598876953125,1.083419799804688,-0.16717529296875,1,0.91
2020-05-15 18:19:14.454 -0400,5350.97584275,-0.353302001953125,0.9501953125,-0.2508392333984375,1,0.91
2020-05-15 18:19:14.523 -0400,5351.045689750001,-0.3485870361328125,0.9102935791015625,-0.2076263427734375,1,0.91
2020-05-15 18:19:14.593 -0400,5351.11554075,-0.344451904296875,0.9386749267578125,-0.2008819580078125,1,0.91
2020-05-15 18:19:14.663 -0400,5351.18539075,-0.321014404296875,0.8768768310546875,-0.22149658203125,1,0.91
2020-05-15 18:19:14.733 -0400,5351.25524275,-0.326629638671875,0.9329071044921875,-0.16412353515625,1,0.91
2020-05-15 18:19:14.803 -0400,5351.325093750001,-0.3463287353515625,0.9278411865234375,-0.1743927001953125,1,0.91
2020-05-15 18:19:14.873 -0400,5351.39494075,-0.3065948486328125,0.947052001953125,-0.1800079345703125,1,0.91
2020-05-15 18:19:14.942 -0400,5351.46478775,-0.312255859375,0.874053955078125,-0.2467041015625,1,0.91
2020-05-15 18:19:15.012 -0400,5351.53463875,-0.3042449951171875,0.9422149658203125,-0.215179443359375,1,0.91
2020-05-15 18:19:15.082 -0400,5351.60449175,-0.3517303466796875,0.997802734375,-0.1742401123046875,1,0.91
2020-05-15 18:19:15.152 -0400,5351.67434375,-0.3373870849609375,0.8860626220703125,-0.2510223388671875,1,0.91
2020-05-15 18:19:15.222 -0400,5351.744185666667,-0.3097076416015625,0.8677215576171875,-0.4322509765625,1,0.91
2020-05-15 18:19:15.292 -0400,5351.814027666667,-0.309967041015625,0.89154052734375,-0.355316162109375,1,0.91
2020-05-15 18:19:15.362 -0400,5351.883871666667,-0.30303955078125,0.9324798583984375,-0.3331756591796875,1,0.91
2020-05-15 18:19:15.431 -0400,5351.953720666667,-0.304443359375,0.9524078369140625,-0.35772705078125,1,0.91
2020-05-15 18:19:15.501 -0400,5352.023567666667,-0.3310089111328125,0.89013671875,-0.3170166015625,1,0.91
2020-05-15 18:19:15.571 -0400,5352.093420666667,-0.2949981689453125,0.8788909912109375,-0.3578338623046875,1,0.91
2020-05-15 18:19:15.641 -0400,5352.163272666667,-0.287506103515625,0.959625244140625,-0.3410797119140625,1,0.91
2020-05-15 18:19:15.711 -0400,5352.233124666667,-0.3161773681640625,0.8896484375,-0.3278350830078125,1,0.91
2020-05-15 18:19:15.781 -0400,5352.302978666667,-0.3181610107421875,0.9495849609375,-0.288055419921875,1,0.91
2020-05-15 18:19:15.850 -0400,5352.372829666667,-0.290191650390625,0.9017181396484375,-0.3502044677734375,1,0.91
2020-05-15 18:19:15.920 -0400,5352.442681666667,-0.3112640380859375,0.853424072265625,-0.3262481689453125,1,0.91
2020-05-15 18:19:15.990 -0400,5352.512536666667,-0.3231048583984375,0.993743896484375,-0.2440948486328125,1,0.91
2020-05-15 18:19:16.060 -0400,5352.582387666667,-0.30316162109375,0.8705291748046875,-0.3617095947265625,1,0.91
2020-05-15 18:19:16.130 -0400,5352.652239666667,-0.2994537353515625,0.8602752685546875,-0.366485595703125,1,0.91
2020-05-15 18:19:16.200 -0400,5352.722090416667,-0.3003082275390625,0.911895751953125,-0.341156005859375,1,0.91
2020-05-15 18:19:16.270 -0400,5352.791943416667,-0.304962158203125,0.9066619873046875,-0.3371734619140625,1,0.91
2020-05-15 18:19:16.339 -0400,5352.861794416667,-0.296905517578125,0.86785888671875,-0.359649658203125,1,0.91
2020-05-15 18:19:16.409 -0400,5352.931647416667,-0.3077392578125,0.91265869140625,-0.3222198486328125,1,0.91
2020-05-15 18:19:16.479 -0400,5353.001498416667,-0.303466796875,0.8968658447265625,-0.314910888671875,1,0.91
2020-05-15 18:19:16.549 -0400,5353.071346416667,-0.3063201904296875,0.8959503173828125,-0.3172454833984375,1,0.91
2020-05-15 18:19:16.619 -0400,5353.141189416667,-0.3021087646484375,0.89764404296875,-0.32159423828125,1,0.91
2020-05-15 18:19:16.689 -0400,5353.211032416667,-0.3085174560546875,0.9077301025390625,-0.299774169921875,1,0.91
2020-05-15 18:19:16.759 -0400,5353.280877416667,-0.308868408203125,0.9176177978515625,-0.3043365478515625,1,0.91
2020-05-15 18:19:16.828 -0400,5353.350728416667,-0.3057708740234375,0.90460205078125,-0.3068389892578125,1,0.91
2020-05-15 18:19:16.898 -0400,5353.420576416667,-0.3053131103515625,0.9002532958984375,-0.3115692138671875,1,0.91
2020-05-15 18:19:16.968 -0400,5353.490422416667,-0.308013916015625,0.8997344970703125,-0.3050537109375,1,0.91
2020-05-15 18:19:17.038 -0400,5353.560268416667,-0.3094329833984375,0.89434814453125,-0.3018035888671875,1,0.91
2020-05-15 18:19:17.108 -0400,5353.630113416667,-0.30029296875,0.86798095703125,-0.3360443115234375,1,0.91
2020-05-15 18:19:17.178 -0400,5353.699957416667,-0.322998046875,0.883209228515625,-0.2271270751953125,1,0.91
2020-05-15 18:19:17.247 -0400,5353.769803041667,-0.31689453125,0.9267120361328125,-0.3095855712890625,1,0.91
2020-05-15 18:19:17.317 -0400,5353.839647041667,-0.2787628173828125,0.9005279541015625,-0.38043212890625,1,0.91
2020-05-15 18:19:17.387 -0400,5353.909491041667,-0.351470947265625,0.848419189453125,-0.2356414794921875,1,0.91
2020-05-15 18:19:17.457 -0400,5353.979335041667,-0.3175201416015625,0.9620361328125,-0.2413482666015625,1,0.91
2020-05-15 18:19:17.527 -0400,5354.049180041667,-0.3103790283203125,0.89617919921875,-0.3538360595703125,1,0.91
2020-05-15 18:19:17.597 -0400,5354.119026041667,-0.32855224609375,0.90057373046875,-0.211517333984375,1,0.91
2020-05-15 18:19:17.667 -0400,5354.188870041667,-0.3176116943359375,0.910430908203125,-0.292724609375,1,0.91
2020-05-15 18:19:17.737 -0400,5354.258716041667,-0.306488037109375,0.89990234375,-0.296875,1,0.91
2020-05-15 18:19:17.806 -0400,5354.328559041667,-0.31683349609375,0.9965972900390625,-0.2622833251953125,1,0.91
2020-05-15 18:19:17.876 -0400,5354.398407041667,-0.2805023193359375,0.8205108642578125,-0.3831634521484375,1,0.91
2020-05-15 18:19:17.946 -0400,5354.468260041667,-0.3043060302734375,0.9626617431640625,-0.2445526123046875,1,0.91
2020-05-15 18:19:18.016 -0400,5354.538113041667,-0.329193115234375,0.9411163330078125,-0.227020263671875,1,0.91
2020-05-15 18:19:18.086 -0400,5354.607967041667,-0.2681732177734375,0.7553863525390625,-0.4361419677734375,1,0.91
2020-05-15 18:19:18.155 -0400,5354.677823041667,-0.34429931640625,1.01019287109375,-0.1715545654296875,1,0.91
2020-05-15 18:19:18.225 -0400,5354.74768,-0.316741943359375,0.9134368896484375,-0.256072998046875,1,0.91
2020-05-15 18:19:18.308 -0400,5354.817535,-0.2929229736328125,0.860107421875,-0.334320068359375,1,0.91
2020-05-15 18:19:18.365 -0400,5354.887392000001,-0.31610107421875,1.001922607421875,-0.2079010009765625,1,0.91
2020-05-15 18:19:18.435 -0400,5354.957249,-0.315460205078125,0.912261962890625,-0.247039794921875,1,0.91
2020-05-15 18:19:18.505 -0400,5355.027103,-0.315338134765625,0.9372406005859375,-0.22027587890625,1,0.91
2020-05-15 18:19:18.575 -0400,5355.096953,-0.31787109375,0.9775390625,-0.242523193359375,1,0.91
2020-05-15 18:19:18.644 -0400,5355.166804,-0.316986083984375,0.9480438232421875,-0.223358154296875,1,0.91
2020-05-15 18:19:18.714 -0400,5355.236658000001,-0.3159332275390625,0.905731201171875,-0.205047607421875,1,0.91
2020-05-15 18:19:18.784 -0400,5355.306511000001,-0.2703857421875,0.8408050537109375,-0.25811767578125,1,0.91
2020-05-15 18:19:18.854 -0400,5355.376366,-0.291748046875,0.933807373046875,-0.2955322265625,1,0.91
2020-05-15 18:19:18.924 -0400,5355.446223,-0.30816650390625,0.9394989013671875,-0.2406158447265625,1,0.91
2020-05-15 18:19:18.994 -0400,5355.51608,-0.3009490966796875,0.8927154541015625,-0.304290771484375,1,0.91
2020-05-15 18:19:19.064 -0400,5355.585933,-0.3103179931640625,0.935791015625,-0.292144775390625,1,0.91
2020-05-15 18:19:19.134 -0400,5355.655785,-0.2718658447265625,0.807098388671875,-0.4120941162109375,1,0.91
2020-05-15 18:19:19.203 -0400,5355.725636916667,-0.2961273193359375,0.9358367919921875,-0.3061981201171875,1,0.91
2020-05-15 18:19:19.273 -0400,5355.795484916667,-0.3040771484375,0.878387451171875,-0.3238677978515625,1,0.91
2020-05-15 18:19:19.343 -0400,5355.865331916667,-0.2988433837890625,0.9186859130859375,-0.307525634765625,1,0.91
2020-05-15 18:19:19.413 -0400,5355.935176916667,-0.290008544921875,0.9065399169921875,-0.309814453125,1,0.91
2020-05-15 18:19:19.483 -0400,5356.005024916667,-0.30181884765625,0.8900604248046875,-0.3043212890625,1,0.91
2020-05-15 18:19:19.553 -0400,5356.074875916667,-0.304840087890625,0.913360595703125,-0.302642822265625,1,0.91
2020-05-15 18:19:19.623 -0400,5356.144724916667,-0.29534912109375,0.898162841796875,-0.319091796875,1,0.91
2020-05-15 18:19:19.692 -0400,5356.214574916667,-0.2956695556640625,0.9048309326171875,-0.30694580078125,1,0.91
2020-05-15 18:19:19.762 -0400,5356.284425916667,-0.2974090576171875,0.90325927734375,-0.3244781494140625,1,0.91
2020-05-15 18:19:19.832 -0400,5356.354274916667,-0.2964935302734375,0.89202880859375,-0.3268890380859375,1,0.91
2020-05-15 18:19:19.902 -0400,5356.424127916667,-0.29461669921875,0.8973846435546875,-0.3265228271484375,1,0.91
2020-05-15 18:19:19.972 -0400,5356.493974916667,-0.29559326171875,0.886688232421875,-0.3324127197265625,1,0.91
2020-05-15 18:19:20.041 -0400,5356.563822916667,-0.298187255859375,0.886322021484375,-0.3233795166015625,1,0.91
2020-05-15 18:19:20.111 -0400,5356.633669916667,-0.299957275390625,0.9019775390625,-0.3229827880859375,1,0.91
2020-05-15 18:19:20.181 -0400,5356.703519916667,-0.2883453369140625,0.895294189453125,-0.3357391357421875,1,0.91
2020-05-15 18:19:20.251 -0400,5356.773364625,-0.2952880859375,0.89019775390625,-0.3457183837890625,1,0.91
2020-05-15 18:19:20.321 -0400,5356.843215625,-0.2968902587890625,0.89654541015625,-0.3400726318359375,1,0.91
2020-05-15 18:19:20.391 -0400,5356.913062625001,-0.2910003662109375,0.8973541259765625,-0.342742919921875,1,0.91
2020-05-15 18:19:20.461 -0400,5356.982909625001,-0.2889862060546875,0.91229248046875,-0.3575897216796875,1,0.91
2020-05-15 18:19:20.530 -0400,5357.052758625,-0.294677734375,0.8888702392578125,-0.3463287353515625,1,0.91
2020-05-15 18:19:20.600 -0400,5357.122606625,-0.2974853515625,0.88848876953125,-0.348297119140625,1,0.91
2020-05-15 18:19:20.670 -0400,5357.192449625,-0.2994537353515625,0.8676605224609375,-0.3522491455078125,1,0.91
2020-05-15 18:19:20.740 -0400,5357.262288625,-0.296539306640625,0.9021759033203125,-0.355255126953125,1,0.91
2020-05-15 18:19:20.815 -0400,5357.332130625,-0.2921600341796875,0.8836212158203125,-0.3614959716796875,1,0.91
2020-05-15 18:19:20.880 -0400,5357.401970625,-0.2919464111328125,0.866912841796875,-0.391448974609375,1,0.91
2020-05-15 18:19:20.949 -0400,5357.471810625,-0.2825927734375,0.866973876953125,-0.39306640625,1,0.91
2020-05-15 18:19:21.019 -0400,5357.541650625,-0.2915191650390625,0.8641510009765625,-0.3907623291015625,1,0.91
2020-05-15 18:19:21.089 -0400,5357.611491625,-0.2875823974609375,0.8678436279296875,-0.3951568603515625,1,0.91
2020-05-15 18:19:21.159 -0400,5357.681334625,-0.2862701416015625,0.8899383544921875,-0.4113006591796875,1,0.91
2020-05-15 18:19:21.229 -0400,5357.751178250001,-0.28033447265625,0.852142333984375,-0.39935302734375,1,0.91
2020-05-15 18:19:21.299 -0400,5357.82102425,-0.286834716796875,0.8519134521484375,-0.3437347412109375,1,0.91
2020-05-15 18:19:21.368 -0400,5357.89087025,-0.2875213623046875,0.8864288330078125,-0.3617401123046875,1,0.91
2020-05-15 18:19:21.438 -0400,5357.96071725,-0.2769012451171875,0.8817596435546875,-0.3566741943359375,1,0.91
2020-05-15 18:19:21.508 -0400,5358.03056325,-0.293304443359375,0.890625,-0.3441314697265625,1,0.91
2020-05-15 18:19:21.578 -0400,5358.10041025,-0.2842864990234375,0.8976593017578125,-0.3566131591796875,1,0.91
2020-05-15 18:19:21.648 -0400,5358.17025325,-0.2894744873046875,0.86785888671875,-0.357421875,1,0.91
2020-05-15 18:19:21.718 -0400,5358.24009825,-0.292999267578125,0.886932373046875,-0.3447418212890625,1,0.91
2020-05-15 18:19:21.788 -0400,5358.30994325,-0.2712249755859375,0.9186248779296875,-0.367523193359375,1,0.91
2020-05-15 18:19:21.858 -0400,5358.37978725,-0.28582763671875,0.905059814453125,-0.33343505859375,1,0.91
2020-05-15 18:19:21.927 -0400,5358.44963025,-0.2921905517578125,0.899017333984375,-0.347503662109375,1,0.91
2020-05-15 18:19:21.997 -0400,5358.51947325,-0.2856597900390625,0.9125213623046875,-0.3528289794921875,1,0.91
2020-05-15 18:19:22.067 -0400,5358.58932025,-0.277679443359375,0.8864288330078125,-0.3586578369140625,1,0.91
2020-05-15 18:19:22.137 -0400,5358.659164250001,-0.28912353515625,0.8831787109375,-0.353546142578125,1,0.91
2020-05-15 18:19:22.207 -0400,5358.729010041667,-0.2879638671875,0.90814208984375,-0.3418426513671875,1,0.91
2020-05-15 18:19:22.276 -0400,5358.798851041667,-0.29144287109375,0.89208984375,-0.3378143310546875,1,0.91
2020-05-15 18:19:22.346 -0400,5358.868695041667,-0.2821044921875,0.88189697265625,-0.3660430908203125,1,0.91
2020-05-15 18:19:22.416 -0400,5358.938539041667,-0.2899169921875,0.8438262939453125,-0.3616790771484375,1,0.91
2020-05-15 18:19:22.486 -0400,5359.008383041667,-0.2830810546875,0.8363494873046875,-0.4194488525390625,1,0.91
2020-05-15 18:19:22.556 -0400,5359.078226041667,-0.29132080078125,0.8764801025390625,-0.38995361328125,1,0.91
2020-05-15 18:19:22.626 -0400,5359.148072041667,-0.2896728515625,0.8641204833984375,-0.41375732421875,1,0.91
2020-05-15 18:19:22.696 -0400,5359.217919041667,-0.28033447265625,0.8795318603515625,-0.3823699951171875,1,0.91
2020-05-15 18:19:22.765 -0400,5359.287765041667,-0.299774169921875,0.8863067626953125,-0.3503875732421875,1,0.91
2020-05-15 18:19:22.835 -0400,5359.357614041667,-0.2894287109375,0.899627685546875,-0.3645477294921875,1,0.91
2020-05-15 18:19:22.905 -0400,5359.427461041667,-0.2911529541015625,0.887664794921875,-0.368255615234375,1,0.91
2020-05-15 18:19:22.975 -0400,5359.497308041667,-0.296051025390625,0.8777008056640625,-0.37860107421875,1,0.91
2020-05-15 18:19:23.045 -0400,5359.567161041667,-0.283203125,0.8649444580078125,-0.401275634765625,1,0.91
2020-05-15 18:19:23.115 -0400,5359.637017041667,-0.2806854248046875,0.906402587890625,-0.3822021484375,1,0.91
2020-05-15 18:19:23.185 -0400,5359.706872041667,-0.286590576171875,0.8259124755859375,-0.3936004638671875,1,0.91
2020-05-15 18:19:23.254 -0400,5359.776724916667,-0.2878265380859375,0.877593994140625,-0.3921661376953125,1,0.91
2020-05-15 18:19:23.324 -0400,5359.846575916667,-0.2847747802734375,0.8764801025390625,-0.39813232421875,1,0.91
2020-05-15 18:19:23.394 -0400,5359.916427916667,-0.2886962890625,0.872528076171875,-0.393798828125,1,0.91
2020-05-15 18:19:23.464 -0400,5359.986277916667,-0.2966156005859375,0.884796142578125,-0.3742218017578125,1,0.91
2020-05-15 18:19:23.534 -0400,5360.056124916667,-0.2906646728515625,0.871002197265625,-0.3869476318359375,1,0.91
2020-05-15 18:19:23.604 -0400,5360.125973916667,-0.2857818603515625,0.8831024169921875,-0.39044189453125,1,0.91
2020-05-15 18:19:23.673 -0400,5360.195820916667,-0.2918701171875,0.873504638671875,-0.3835296630859375,1,0.91
2020-05-15 18:19:23.743 -0400,5360.265669916667,-0.28985595703125,0.8795318603515625,-0.3830108642578125,1,0.91
2020-05-15 18:19:23.813 -0400,5360.335518916667,-0.28887939453125,0.875396728515625,-0.37957763671875,1,0.91
2020-05-15 18:19:23.883 -0400,5360.405370916667,-0.280670166015625,0.894287109375,-0.3761444091796875,1,0.91
2020-05-15 18:19:23.953 -0400,5360.475224916667,-0.2841796875,0.8670196533203125,-0.4011077880859375,1,0.91
2020-05-15 18:19:24.023 -0400,5360.545076916667,-0.284820556640625,0.8736114501953125,-0.3934783935546875,1,0.91
2020-05-15 18:19:24.093 -0400,5360.614926916667,-0.277191162109375,0.8704681396484375,-0.387847900390625,1,0.91
2020-05-15 18:19:24.162 -0400,5360.684775916667,-0.2768707275390625,0.883148193359375,-0.41998291015625,1,0.91
2020-05-15 18:19:24.233 -0400,5360.75462225,-0.2826385498046875,0.88836669921875,-0.3493804931640625,1,0.91
2020-05-15 18:19:24.309 -0400,5360.82446625,-0.2899169921875,0.8769683837890625,-0.3882293701171875,1,0.91
2020-05-15 18:19:24.372 -0400,5360.89430825,-0.2830657958984375,0.8958587646484375,-0.37567138671875,1,0.91
2020-05-15 18:19:24.442 -0400,5360.96415625,-0.2867279052734375,0.875701904296875,-0.382537841796875,1,0.91
2020-05-15 18:19:24.511 -0400,5361.03400625,-0.295928955078125,0.8640899658203125,-0.3990020751953125,1,0.91
2020-05-15 18:19:24.581 -0400,5361.103861250001,-0.279815673828125,0.8842010498046875,-0.3912811279296875,1,0.91
2020-05-15 18:19:24.651 -0400,5361.17371525,-0.2862091064453125,0.8617401123046875,-0.3905792236328125,1,0.91
2020-05-15 18:19:24.721 -0400,5361.24357425,-0.2870635986328125,0.8692474365234375,-0.3850250244140625,1,0.91
2020-05-15 18:19:24.791 -0400,5361.31342925,-0.28033447265625,0.8818206787109375,-0.4089202880859375,1,0.91
2020-05-15 18:19:24.861 -0400,5361.383284250001,-0.2884674072265625,0.88433837890625,-0.397552490234375,1,0.91
2020-05-15 18:19:24.931 -0400,5361.45313925,-0.2798004150390625,0.8675079345703125,-0.3958892822265625,1,0.91
2020-05-15 18:19:25.001 -0400,5361.52299225,-0.2820892333984375,0.8464508056640625,-0.3827972412109375,1,0.91
2020-05-15 18:19:25.070 -0400,5361.59284325,-0.262786865234375,0.897918701171875,-0.4144287109375,1,0.91
2020-05-15 18:19:25.140 -0400,5361.66269325,-0.292755126953125,0.89251708984375,-0.3507537841796875,1,0.91
2020-05-15 18:19:25.210 -0400,5361.73253825,-0.28765869140625,0.865753173828125,-0.37841796875,1,0.91
2020-05-15 18:19:25.280 -0400,5361.802384250001,-0.2860107421875,0.911590576171875,-0.3636322021484375,1,0.91
2020-05-15 18:19:25.350 -0400,5361.87223325,-0.2851409912109375,0.866668701171875,-0.3766021728515625,1,0.91
2020-05-15 18:19:25.420 -0400,5361.942082250001,-0.2926025390625,0.883941650390625,-0.3570404052734375,1,0.91
2020-05-15 18:19:25.490 -0400,5362.01192825,-0.295623779296875,0.896148681640625,-0.357666015625,1,0.91
2020-05-15 18:19:25.559 -0400,5362.08177325,-0.2900238037109375,0.89007568359375,-0.3704071044921875,1,0.91
2020-05-15 18:19:25.629 -0400,5362.15161625,-0.29132080078125,0.8881378173828125,-0.3530731201171875,1,0.91
2020-05-15 18:19:25.699 -0400,5362.22145925,-0.289825439453125,0.8877716064453125,-0.35040283203125,1,0.91
2020-05-15 18:19:25.769 -0400,5362.291299250001,-0.2902984619140625,0.8509063720703125,-0.3860931396484375,1,0.91
2020-05-15 18:19:25.839 -0400,5362.361142250001,-0.2602691650390625,0.82568359375,-0.356781005859375,1,0.91
2020-05-15 18:19:25.909 -0400,5362.43098925,-0.3269805908203125,0.94805908203125,-0.3000640869140625,1,0.91
2020-05-15 18:19:25.978 -0400,5362.50083025,-0.3020477294921875,0.94244384765625,-0.352203369140625,1,0.91
2020-05-15 18:19:26.048 -0400,5362.570674250001,-0.2896270751953125,0.88079833984375,-0.3471221923828125,1,0.91
2020-05-15 18:19:26.118 -0400,5362.64051725,-0.2997589111328125,0.878326416015625,-0.3646240234375,1,0.91
2020-05-15 18:19:26.188 -0400,5362.71036125,-0.2935028076171875,0.9242401123046875,-0.31536865234375,1,0.91
2020-05-15 18:19:26.258 -0400,5362.78020275,-0.2993621826171875,0.8997650146484375,-0.3260040283203125,1,0.91
2020-05-15 18:19:26.328 -0400,5362.85004475,-0.2937469482421875,0.902984619140625,-0.330108642578125,1,0.91
2020-05-15 18:19:26.397 -0400,5362.91988975,-0.2867279052734375,0.9127960205078125,-0.33441162109375,1,0.91
2020-05-15 18:19:26.467 -0400,5362.989728750001,-0.280731201171875,0.8371429443359375,-0.366668701171875,1,0.91
2020-05-15 18:19:26.537 -0400,5363.05956475,-0.308868408203125,0.963531494140625,-0.299560546875,1,0.91
2020-05-15 18:19:26.607 -0400,5363.12940675,-0.286590576171875,0.8979644775390625,-0.3399200439453125,1,0.91
2020-05-15 18:19:26.677 -0400,5363.19924875,-0.3058319091796875,0.9157562255859375,-0.316558837890625,1,0.91
2020-05-15 18:19:26.747 -0400,5363.269084750001,-0.2943878173828125,0.8899078369140625,-0.34661865234375,1,0.91
2020-05-15 18:19:26.817 -0400,5363.33892575,-0.28546142578125,0.9050140380859375,-0.3590240478515625,1,0.91
2020-05-15 18:19:26.886 -0400,5363.408766750001,-0.2889251708984375,0.8934783935546875,-0.3301239013671875,1,0.91
2020-05-15 18:19:26.956 -0400,5363.478608750001,-0.2910614013671875,0.8840789794921875,-0.3466796875,1,0.91
2020-05-15 18:19:27.026 -0400,5363.54844975,-0.2971649169921875,0.89453125,-0.3173370361328125,1,0.91
2020-05-15 18:19:27.096 -0400,5363.61828875,-0.298004150390625,0.900054931640625,-0.33477783203125,1,0.91
2020-05-15 18:19:27.166 -0400,5363.68813275,-0.29486083984375,0.8955535888671875,-0.334320068359375,1,0.91
2020-05-15 18:19:27.236 -0400,5363.757975,-0.308380126953125,0.9265899658203125,-0.309722900390625,1,0.91
2020-05-15 18:19:27.305 -0400,5363.827821000001,-0.2969970703125,0.914215087890625,-0.3236846923828125,1,0.91
2020-05-15 18:19:27.375 -0400,5363.897663000001,-0.2965240478515625,0.8948974609375,-0.33172607421875,1,0.91
2020-05-15 18:19:27.445 -0400,5363.967505000001,-0.2979583740234375,0.925323486328125,-0.326812744140625,1,0.91
2020-05-15 18:19:27.515 -0400,5364.037347,-0.297882080078125,0.907501220703125,-0.339813232421875,1,0.91
2020-05-15 18:19:27.585 -0400,5364.107188,-0.2994384765625,0.873748779296875,-0.3277130126953125,1,0.91
2020-05-15 18:19:27.655 -0400,5364.177028,-0.298858642578125,0.8915557861328125,-0.3255462646484375,1,0.91
2020-05-15 18:19:27.725 -0400,5364.24687,-0.29840087890625,0.900634765625,-0.3348236083984375,1,0.91
2020-05-15 18:19:27.794 -0400,5364.316714000001,-0.2973785400390625,0.92095947265625,-0.307525634765625,1,0.91
2020-05-15 18:19:27.864 -0400,5364.386558,-0.30615234375,0.9478912353515625,-0.2831573486328125,1,0.91
2020-05-15 18:19:27.934 -0400,5364.456399000001,-0.3101806640625,0.9062957763671875,-0.3089599609375,1,0.91
2020-05-15 18:19:28.004 -0400,5364.526238,-0.29754638671875,0.8175048828125,-0.35546875,1,0.91
2020-05-15 18:19:28.074 -0400,5364.596079,-0.304840087890625,0.954132080078125,-0.2822723388671875,1,0.91
2020-05-15 18:19:28.144 -0400,5364.665918000001,-0.305816650390625,0.829742431640625,-0.3592071533203125,1,0.91
2020-05-15 18:19:28.213 -0400,5364.735760500001,-0.3116607666015625,0.9245147705078125,-0.3078460693359375,1,0.91
2020-05-15 18:19:28.283 -0400,5364.8056065,-0.29217529296875,0.87762451171875,-0.3831939697265625,1,0.91
2020-05-15 18:19:28.353 -0400,5364.875450500001,-0.29608154296875,0.8950347900390625,-0.3351898193359375,1,0.91
2020-05-15 18:19:28.423 -0400,5364.9452935,-0.30877685546875,0.91070556640625,-0.319427490234375,1,0.91
2020-05-15 18:19:28.493 -0400,5365.0151395,-0.2858123779296875,0.8469390869140625,-0.370086669921875,1,0.91
2020-05-15 18:19:28.563 -0400,5365.084993500001,-0.291473388671875,0.865203857421875,-0.3770904541015625,1,0.91
2020-05-15 18:19:28.633 -0400,5365.1548405,-0.2990570068359375,0.894195556640625,-0.3560638427734375,1,0.91
2020-05-15 18:19:28.702 -0400,5365.224689500001,-0.2928314208984375,0.8678741455078125,-0.3686981201171875,1,0.91
2020-05-15 18:19:28.772 -0400,5365.2945385,-0.2884521484375,0.9084014892578125,-0.358673095703125,1,0.91
2020-05-15 18:19:28.842 -0400,5365.3643885,-0.29290771484375,0.9158477783203125,-0.3713226318359375,1,0.91
2020-05-15 18:19:28.912 -0400,5365.4342355,-0.2836761474609375,0.89727783203125,-0.348388671875,1,0.91
2020-05-15 18:19:28.982 -0400,5365.5040795,-0.294891357421875,0.8811798095703125,-0.3482666015625,1,0.91
2020-05-15 18:19:29.052 -0400,5365.5739205,-0.302215576171875,0.90576171875,-0.35491943359375,1,0.91
2020-05-15 18:19:29.121 -0400,5365.6437615,-0.2897796630859375,0.9029541015625,-0.333740234375,1,0.91
2020-05-15 18:19:29.191 -0400,5365.7136025,-0.2959442138671875,0.88958740234375,-0.36334228515625,1,0.91
2020-05-15 18:19:29.261 -0400,5365.7834455,-0.3015899658203125,0.865386962890625,-0.3281402587890625,1,0.91
2020-05-15 18:19:29.331 -0400,5365.853291500001,-0.29888916015625,0.8741912841796875,-0.3403472900390625,1,0.91
2020-05-15 18:19:29.401 -0400,5365.9231375,-0.3196563720703125,0.88421630859375,-0.3167877197265625,1,0.91
2020-05-15 18:19:29.471 -0400,5365.9929815,-0.298980712890625,0.8656768798828125,-0.3636627197265625,1,0.91
2020-05-15 18:19:29.540 -0400,5366.062824500001,-0.2996826171875,0.8863067626953125,-0.345245361328125,1,0.91
2020-05-15 18:19:29.610 -0400,5366.1326715,-0.298675537109375,0.8902587890625,-0.3534088134765625,1,0.91
2020-05-15 18:19:29.680 -0400,5366.2025185,-0.300994873046875,0.8909454345703125,-0.341583251953125,1,0.91
2020-05-15 18:19:29.750 -0400,5366.2723665,-0.298370361328125,0.8855133056640625,-0.3698883056640625,1,0.91
2020-05-15 18:19:29.820 -0400,5366.342212500001,-0.297607421875,0.891998291015625,-0.3518829345703125,1,0.91
2020-05-15 18:19:29.890 -0400,5366.4120595,-0.298828125,0.89862060546875,-0.358673095703125,1,0.91
2020-05-15 18:19:29.959 -0400,5366.4819035,-0.301055908203125,0.8880767822265625,-0.3425140380859375,1,0.91
2020-05-15 18:19:30.029 -0400,5366.5517485,-0.293701171875,0.86053466796875,-0.39239501953125,1,0.91
2020-05-15 18:19:30.099 -0400,5366.6215945,-0.300018310546875,0.8928375244140625,-0.3541107177734375,1,0.91
2020-05-15 18:19:30.169 -0400,5366.6914395,-0.3013916015625,0.8917694091796875,-0.355926513671875,1,0.91
2020-05-15 18:19:30.239 -0400,5366.761284166667,-0.2891387939453125,0.887786865234375,-0.3933258056640625,1,0.91
2020-05-15 18:19:30.309 -0400,5366.831128166667,-0.296600341796875,0.861724853515625,-0.3627166748046875,1,0.91
2020-05-15 18:19:30.379 -0400,5366.900970166667,-0.2936859130859375,0.8876953125,-0.3679656982421875,1,0.91
2020-05-15 18:19:30.449 -0400,5366.970817166667,-0.289703369140625,0.9044647216796875,-0.382568359375,1,0.91
2020-05-15 18:19:30.518 -0400,5367.040665166667,-0.292205810546875,0.873138427734375,-0.38238525390625,1,0.91
2020-05-15 18:19:30.588 -0400,5367.110517166667,-0.29443359375,0.893707275390625,-0.3597259521484375,1,0.91
2020-05-15 18:19:30.658 -0400,5367.180363166667,-0.285552978515625,0.88800048828125,-0.376312255859375,1,0.91
2020-05-15 18:19:30.728 -0400,5367.250211166667,-0.298583984375,0.8473358154296875,-0.37530517578125,1,0.91
2020-05-15 18:19:30.798 -0400,5367.320058166667,-0.3203582763671875,0.9702911376953125,-0.308990478515625,1,0.91
2020-05-15 18:19:30.868 -0400,5367.389907166667,-0.2848968505859375,0.9076080322265625,-0.37225341796875,1,0.91
2020-05-15 18:19:30.937 -0400,5367.459756166667,-0.3079071044921875,0.865509033203125,-0.347686767578125,1,0.91
2020-05-15 18:19:31.007 -0400,5367.529607166667,-0.2891387939453125,0.8831939697265625,-0.366363525390625,1,0.91
2020-05-15 18:19:31.077 -0400,5367.599453166667,-0.3021392822265625,0.87969970703125,-0.3619384765625,1,0.91
2020-05-15 18:19:31.147 -0400,5367.669299166667,-0.29510498046875,0.8779296875,-0.3292083740234375,1,0.91
2020-05-15 18:19:31.217 -0400,5367.739148125001,-0.3083953857421875,0.9049224853515625,-0.3315582275390625,1,0.91
2020-05-15 18:19:31.287 -0400,5367.808999125,-0.2849273681640625,0.909088134765625,-0.3369598388671875,1,0.91
2020-05-15 18:19:31.356 -0400,5367.878854125001,-0.30438232421875,0.8742828369140625,-0.353607177734375,1,0.91
2020-05-15 18:19:31.426 -0400,5367.948704125,-0.287384033203125,0.8994903564453125,-0.3444671630859375,1,0.91
2020-05-15 18:19:31.496 -0400,5368.018553125,-0.29351806640625,0.8840484619140625,-0.347900390625,1,0.91
2020-05-15 18:19:31.566 -0400,5368.088402125,-0.295440673828125,0.897430419921875,-0.34381103515625,1,0.91
2020-05-15 18:19:31.636 -0400,5368.158254125,-0.29638671875,0.8862762451171875,-0.3479156494140625,1,0.91
2020-05-15 18:19:31.706 -0400,5368.228112125001,-0.2937164306640625,0.8890838623046875,-0.338531494140625,1,0.91
2020-05-15 18:19:31.776 -0400,5368.297968125,-0.3018646240234375,0.90338134765625,-0.32989501953125,1,0.91
2020-05-15 18:19:31.845 -0400,5368.367823125001,-0.2956390380859375,0.89703369140625,-0.3460845947265625,1,0.91
2020-05-15 18:19:31.915 -0400,5368.437675125,-0.29876708984375,0.8988037109375,-0.3262786865234375,1,0.91
2020-05-15 18:19:31.985 -0400,5368.507525125,-0.2987518310546875,0.9043121337890625,-0.3392333984375,1,0.91
2020-05-15 18:19:32.055 -0400,5368.577380125001,-0.272979736328125,0.880035400390625,-0.3659820556640625,1,0.91
2020-05-15 18:19:32.125 -0400,5368.647234125,-0.3596038818359375,0.9200592041015625,-0.25811767578125,1,0.91
2020-05-15 18:19:32.194 -0400,5368.717090125,-0.2925872802734375,0.872100830078125,-0.3536224365234375,1,0.91
2020-05-15 18:19:32.265 -0400,5368.7869415,-0.300506591796875,0.9304351806640625,-0.3029327392578125,1,0.91
2020-05-15 18:19:32.335 -0400,5368.8567935,-0.3024444580078125,0.8999176025390625,-0.3303680419921875,1,0.91
2020-05-15 18:19:32.404 -0400,5368.9266445,-0.309051513671875,0.9102783203125,-0.3204345703125,1,0.91
2020-05-15 18:19:32.474 -0400,5368.9964955,-0.3027191162109375,0.890777587890625,-0.311004638671875,1,0.91
2020-05-15 18:19:32.544 -0400,5369.066338500001,-0.29876708984375,0.8695068359375,-0.355255126953125,1,0.91
2020-05-15 18:19:32.614 -0400,5369.136183500001,-0.2980194091796875,0.9153289794921875,-0.314453125,1,0.91
2020-05-15 18:19:32.684 -0400,5369.2060295,-0.3027801513671875,0.876068115234375,-0.3458099365234375,1,0.91
2020-05-15 18:19:32.753 -0400,5369.2758745,-0.299072265625,0.9019775390625,-0.327392578125,1,0.91
2020-05-15 18:19:32.823 -0400,5369.3457175,-0.29595947265625,0.8860931396484375,-0.3417816162109375,1,0.91
2020-05-15 18:19:32.893 -0400,5369.4155655,-0.3084564208984375,0.8971099853515625,-0.3201446533203125,1,0.91
2020-05-15 18:19:32.963 -0400,5369.485413500001,-0.303497314453125,0.804168701171875,-0.3480224609375,1,0.91
2020-05-15 18:19:33.033 -0400,5369.5552575,-0.305755615234375,0.9424591064453125,-0.2959442138671875,1,0.91
2020-05-15 18:19:33.103 -0400,5369.625106500001,-0.2922210693359375,0.9275054931640625,-0.3108367919921875,1,0.91
2020-05-15 18:19:33.173 -0400,5369.6949525,-0.30023193359375,0.9030609130859375,-0.3288116455078125,1,0.91
2020-05-15 18:19:33.242 -0400,5369.76479725,-0.2999420166015625,0.8970794677734375,-0.3190765380859375,1,0.91
2020-05-15 18:19:33.312 -0400,5369.83464525,-0.3028106689453125,0.8894805908203125,-0.3361663818359375,1,0.91
2020-05-15 18:19:33.383 -0400,5369.90449625,-0.29473876953125,0.90484619140625,-0.3203277587890625,1,0.91
2020-05-15 18:19:33.452 -0400,5369.97434725,-0.3050689697265625,0.9111480712890625,-0.3101806640625,1,0.91
2020-05-15 18:19:33.522 -0400,5370.04420025,-0.293487548828125,0.927520751953125,-0.322906494140625,1,0.91
2020-05-15 18:19:33.592 -0400,5370.11405525,-0.3009033203125,0.8933868408203125,-0.3171844482421875,1,0.91
2020-05-15 18:19:33.662 -0400,5370.18390825,-0.298370361328125,0.8815765380859375,-0.344268798828125,1,0.91
2020-05-15 18:19:33.731 -0400,5370.25375725,-0.293212890625,0.958526611328125,-0.2856597900390625,1,0.91
2020-05-15 18:19:33.801 -0400,5370.32361125,-0.31103515625,0.95343017578125,-0.2959442138671875,1,0.91
2020-05-15 18:19:33.871 -0400,5370.393469250001,-0.305328369140625,0.84686279296875,-0.3421173095703125,1,0.91
2020-05-15 18:19:33.941 -0400,5370.463325250001,-0.2987823486328125,0.8936920166015625,-0.3284912109375,1,0.91
2020-05-15 18:19:34.011 -0400,5370.533181250001,-0.3099365234375,0.9200286865234375,-0.28961181640625,1,0.91
2020-05-15 18:19:34.081 -0400,5370.60303525,-0.3040924072265625,0.8954925537109375,-0.321380615234375,1,0.91
2020-05-15 18:19:34.150 -0400,5370.67289325,-0.3009490966796875,0.90521240234375,-0.3094482421875,1,0.91
2020-05-15 18:19:34.220 -0400,5370.742751125001,-0.2959747314453125,0.9132080078125,-0.3234405517578125,1,0.91
2020-05-15 18:19:34.290 -0400,5370.812609125001,-0.296173095703125,0.895599365234375,-0.353240966796875,1,0.91
2020-05-15 18:19:34.360 -0400,5370.882468125001,-0.2957305908203125,0.894775390625,-0.3280792236328125,1,0.91
2020-05-15 18:19:34.430 -0400,5370.952324125,-0.2976837158203125,0.9056549072265625,-0.340606689453125,1,0.91
2020-05-15 18:19:34.500 -0400,5371.022183125,-0.292877197265625,0.8842926025390625,-0.3546142578125,1,0.91
2020-05-15 18:19:34.570 -0400,5371.092038125001,-0.2971343994140625,0.889190673828125,-0.344818115234375,1,0.91
2020-05-15 18:19:34.640 -0400,5371.161893125,-0.2937164306640625,0.910003662109375,-0.3958282470703125,1,0.91
2020-05-15 18:19:34.709 -0400,5371.231748125,-0.2985687255859375,0.81512451171875,-0.3788604736328125,1,0.91
2020-05-15 18:19:34.779 -0400,5371.301605125001,-0.313507080078125,0.9107208251953125,-0.3340301513671875,1,0.91
2020-05-15 18:19:34.849 -0400,5371.371458125001,-0.3131866455078125,0.92413330078125,-0.3386993408203125,1,0.91
2020-05-15 18:19:34.919 -0400,5371.441314125001,-0.3058624267578125,0.919281005859375,-0.336517333984375,1,0.91
2020-05-15 18:19:34.989 -0400,5371.511168125,-0.3015899658203125,0.8947906494140625,-0.3342742919921875,1,0.91
2020-05-15 18:19:35.059 -0400,5371.581025125,-0.2880096435546875,0.8767852783203125,-0.355438232421875,1,0.91
2020-05-15 18:19:35.129 -0400,5371.650876125001,-0.325286865234375,0.9503326416015625,-0.3566131591796875,1,0.91
2020-05-15 18:19:35.198 -0400,5371.720725125,-0.2914886474609375,0.89776611328125,-0.324188232421875,1,0.91
2020-05-15 18:19:35.268 -0400,5371.790574875,-0.2962646484375,0.7673187255859375,-0.441131591796875,1,0.91
2020-05-15 18:19:35.338 -0400,5371.860423875,-0.3092041015625,0.9310760498046875,-0.3272857666015625,1,0.91
2020-05-15 18:19:35.408 -0400,5371.930277875001,-0.2897186279296875,0.767822265625,-0.412017822265625,1,0.91
2020-05-15 18:19:35.478 -0400,5372.000131875,-0.3021697998046875,0.9130706787109375,-0.3934326171875,1,0.91
2020-05-15 18:19:35.548 -0400,5372.069988875,-0.3580474853515625,0.8502655029296875,-0.301544189453125,1,0.91
2020-05-15 18:19:35.618 -0400,5372.139843875,-0.358734130859375,0.9039764404296875,-0.3762664794921875,1,0.91
2020-05-15 18:19:35.687 -0400,5372.209695875001,-0.3420562744140625,0.88525390625,-0.3421478271484375,1,0.91
2020-05-15 18:19:35.757 -0400,5372.279548875001,-0.2930908203125,0.8780975341796875,-0.2958984375,1,0.91
2020-05-15 18:19:35.827 -0400,5372.349402875,-0.3087615966796875,0.9256134033203125,-0.3472747802734375,1,0.91
2020-05-15 18:19:35.897 -0400,5372.419256875,-0.2915496826171875,0.8941192626953125,-0.375762939453125,1,0.91
2020-05-15 18:19:35.967 -0400,5372.489109875,-0.302490234375,0.8574066162109375,-0.3503875732421875,1,0.91
2020-05-15 18:19:36.037 -0400,5372.558963875001,-0.291839599609375,0.891876220703125,-0.37744140625,1,0.91
2020-05-15 18:19:36.106 -0400,5372.628818875,-0.2999725341796875,0.852935791015625,-0.3652801513671875,1,0.91
2020-05-15 18:19:36.176 -0400,5372.698674875001,-0.2997894287109375,0.9059600830078125,-0.34954833984375,1,0.91
2020-05-15 18:19:36.246 -0400,5372.76852675,-0.298492431640625,0.8878173828125,-0.3641204833984375,1,0.91
2020-05-15 18:19:36.316 -0400,5372.83837975,-0.2838134765625,0.9065093994140625,-0.37030029296875,1,0.91
2020-05-15 18:19:36.386 -0400,5372.90823275,-0.3057861328125,0.9124603271484375,-0.313018798828125,1,0.91
2020-05-15 18:19:36.456 -0400,5372.97808875,-0.296783447265625,0.88507080078125,-0.365264892578125,1,0.91
2020-05-15 18:19:36.526 -0400,5373.04794275,-0.29742431640625,0.891693115234375,-0.353973388671875,1,0.91
2020-05-15 18:19:36.596 -0400,5373.11779075,-0.299591064453125,0.87738037109375,-0.350494384765625,1,0.91
2020-05-15 18:19:36.665 -0400,5373.18764275,-0.3140869140625,0.890045166015625,-0.36529541015625,1,0.91
2020-05-15 18:19:36.735 -0400,5373.25749575,-0.2941436767578125,0.9246368408203125,-0.277374267578125,1,0.91
2020-05-15 18:19:36.805 -0400,5373.32734975,-0.3033905029296875,0.960784912109375,-0.365234375,1,0.91
2020-05-15 18:19:36.875 -0400,5373.397203750001,-0.3134765625,0.8645477294921875,-0.30859375,1,0.91
2020-05-15 18:19:36.945 -0400,5373.46705575,-0.2939605712890625,0.9284820556640625,-0.32745361328125,1,0.91
2020-05-15 18:19:37.015 -0400,5373.53691075,-0.3099212646484375,0.810150146484375,-0.3377532958984375,1,0.91
2020-05-15 18:19:37.084 -0400,5373.60676875,-0.3163604736328125,0.9488983154296875,-0.285736083984375,1,0.91
2020-05-15 18:19:37.154 -0400,5373.67662575,-0.302642822265625,0.874969482421875,-0.3336639404296875,1,0.91
2020-05-15 18:19:37.224 -0400,5373.746477666667,-0.2733917236328125,0.8515777587890625,-0.279541015625,1,0.91
2020-05-15 18:19:37.294 -0400,5373.816328666667,-0.3568572998046875,0.852752685546875,-0.44927978515625,1,0.91
2020-05-15 18:19:37.364 -0400,5373.886180666667,-0.2693939208984375,0.7552337646484375,-0.2803955078125,1,0.91
2020-05-15 18:19:37.434 -0400,5373.956035666667,-0.32086181640625,1.005996704101562,-0.3803253173828125,1,0.91
2020-05-15 18:19:37.504 -0400,5374.025891666667,-0.3759307861328125,0.9139556884765625,-0.454345703125,1,0.91
2020-05-15 18:19:37.573 -0400,5374.095742666667,-0.327880859375,0.9799041748046875,-0.380157470703125,1,0.91
2020-05-15 18:19:37.643 -0400,5374.165595666667,-0.347930908203125,0.962493896484375,-0.32464599609375,1,0.91
2020-05-15 18:19:37.713 -0400,5374.235451666667,-0.274444580078125,0.8938446044921875,-0.3743438720703125,1,0.91
2020-05-15 18:19:37.783 -0400,5374.305305666667,-0.2772674560546875,0.836822509765625,-0.41302490234375,1,0.91
2020-05-15 18:19:37.853 -0400,5374.375163666667,-0.296844482421875,0.8394775390625,-0.362091064453125,1,0.91
2020-05-15 18:19:37.923 -0400,5374.445016666667,-0.28729248046875,0.91448974609375,-0.391143798828125,1,0.91
2020-05-15 18:19:37.992 -0400,5374.514871666667,-0.2886505126953125,0.8619842529296875,-0.370880126953125,1,0.91
2020-05-15 18:19:38.062 -0400,5374.584727666667,-0.29205322265625,0.9211578369140625,-0.4258575439453125,1,0.91
2020-05-15 18:19:38.132 -0400,5374.654583666667,-0.3020782470703125,0.879119873046875,-0.362030029296875,1,0.91
2020-05-15 18:19:38.202 -0400,5374.724440666667,-0.29339599609375,0.86474609375,-0.3782501220703125,1,0.91
2020-05-15 18:19:38.272 -0400,5374.79429875,-0.2955169677734375,0.880615234375,-0.3797607421875,1,0.91
2020-05-15 18:19:38.342 -0400,5374.86415675,-0.295379638671875,0.8717041015625,-0.373199462890625,1,0.91
2020-05-15 18:19:38.412 -0400,5374.93401075,-0.2852783203125,0.865020751953125,-0.404937744140625,1,0.91
2020-05-15 18:19:38.482 -0400,5375.00386875,-0.283477783203125,0.8596954345703125,-0.3895111083984375,1,0.91
2020-05-15 18:19:38.551 -0400,5375.073723750001,-0.30914306640625,0.8977508544921875,-0.348907470703125,1,0.91
2020-05-15 18:19:38.621 -0400,5375.14357475,-0.2902069091796875,0.8681640625,-0.3858489990234375,1,0.91
2020-05-15 18:19:38.691 -0400,5375.213424750001,-0.2973785400390625,0.8899383544921875,-0.368316650390625,1,0.91
2020-05-15 18:19:38.761 -0400,5375.283269750001,-0.28912353515625,0.8432769775390625,-0.380035400390625,1,0.91
2020-05-15 18:19:38.831 -0400,5375.35312075,-0.2920379638671875,0.88275146484375,-0.368011474609375,1,0.91
2020-05-15 18:19:38.901 -0400,5375.42297675,-0.2901611328125,0.8864288330078125,-0.36871337890625,1,0.91
2020-05-15 18:19:38.970 -0400,5375.492833750001,-0.289215087890625,0.884765625,-0.371307373046875,1,0.91
2020-05-15 18:19:39.040 -0400,5375.562684750001,-0.29156494140625,0.8854217529296875,-0.36669921875,1,0.91
2020-05-15 18:19:39.110 -0400,5375.632534750001,-0.289703369140625,0.897003173828125,-0.3569793701171875,1,0.91
2020-05-15 18:19:39.188 -0400,5375.70238675,-0.2911224365234375,0.9046478271484375,-0.3545074462890625,1,0.91
2020-05-15 18:19:39.260 -0400,5375.782211125001,-0.299407958984375,0.88543701171875,-0.3516845703125,1,0.91
2020-05-15 18:19:39.380 -0400,5375.901955125,-0.290802001953125,0.8841094970703125,-0.359222412109375,1,0.91
2020-05-15 18:19:39.499 -0400,5376.021709125001,-0.2904510498046875,0.8831329345703125,-0.352325439453125,1,0.91
2020-05-15 18:19:39.619 -0400,5376.141460125001,-0.29180908203125,0.802886962890625,-0.3607635498046875,1,0.91
2020-05-15 18:19:39.739 -0400,5376.261212125,-0.288970947265625,0.8937225341796875,-0.3277587890625,1,0.91
2020-05-15 18:19:39.859 -0400,5376.380960125,-0.3087005615234375,0.8535919189453125,-0.3189544677734375,1,0.91
2020-05-15 18:19:39.978 -0400,5376.500708125001,-0.287841796875,0.8917388916015625,-0.3538818359375,1,0.91
2020-05-15 18:19:40.098 -0400,5376.620454125,-0.2935791015625,0.875152587890625,-0.3512725830078125,1,0.91
2020-05-15 18:19:40.218 -0400,5376.740200125,-0.2415618896484375,0.904296875,-0.3003692626953125,1,0.91
2020-05-15 18:19:40.338 -0400,5376.859943541667,-0.2644195556640625,0.8987274169921875,-0.3859710693359375,1,0.91
2020-05-15 18:19:40.457 -0400,5376.979687541667,-0.350921630859375,0.8213653564453125,-0.419952392578125,1,0.91
2020-05-15 18:19:40.577 -0400,5377.099436541667,-0.2226715087890625,0.8874359130859375,-0.322021484375,1,0.91
2020-05-15 18:19:40.697 -0400,5377.219186541667,-0.2761688232421875,0.8808441162109375,-0.3502197265625,1,0.91
2020-05-15 18:19:40.817 -0400,5377.338936541667,-0.2975311279296875,0.8952789306640625,-0.3370208740234375,1,0.91
2020-05-15 18:19:40.936 -0400,5377.458682541667,-0.28466796875,0.88787841796875,-0.3545379638671875,1,0.91
2020-05-15 18:19:41.056 -0400,5377.578426541667,-0.290985107421875,0.9322967529296875,-0.3694915771484375,1,0.91
2020-05-15 18:19:41.176 -0400,5377.698171541667,-0.3194580078125,0.9548492431640625,-0.2845001220703125,1,0.91
2020-05-15 18:19:41.296 -0400,5377.817914916667,-0.2912750244140625,0.9354248046875,-0.302825927734375,1,0.91
2020-05-15 18:19:41.415 -0400,5377.937653916667,-0.2834014892578125,0.8778839111328125,-0.323486328125,1,0.91
2020-05-15 18:19:41.535 -0400,5378.057397916667,-0.2782440185546875,0.8864593505859375,-0.3300628662109375,1,0.91
2020-05-15 18:19:41.655 -0400,5378.177145916667,-0.2792205810546875,0.9117584228515625,-0.3394622802734375,1,0.91
2020-05-15 18:19:41.775 -0400,5378.296890916667,-0.3001708984375,0.891326904296875,-0.3328399658203125,1,0.91
2020-05-15 18:19:41.894 -0400,5378.416634916667,-0.273681640625,0.9045257568359375,-0.3587188720703125,1,0.91
2020-05-15 18:19:42.014 -0400,5378.536390916667,-0.297393798828125,0.8875732421875,-0.3334503173828125,1,0.91
2020-05-15 18:19:42.134 -0400,5378.656146916667,-0.2932891845703125,0.884124755859375,-0.335906982421875,1,0.91
2020-05-15 18:19:42.254 -0400,5378.775903416667,-0.2943267822265625,0.8792572021484375,-0.329986572265625,1,0.91
2020-05-15 18:19:42.373 -0400,5378.895652416667,-0.2942657470703125,0.8955078125,-0.3395843505859375,1,0.91
2020-05-15 18:19:42.493 -0400,5379.015399416667,-0.296783447265625,0.878173828125,-0.3382415771484375,1,0.91
2020-05-15 18:19:42.613 -0400,5379.135152416667,-0.292724609375,0.89483642578125,-0.3373260498046875,1,0.91
2020-05-15 18:19:42.733 -0400,5379.254905416667,-0.2901153564453125,0.913970947265625,-0.3285064697265625,1,0.91
2020-05-15 18:19:42.852 -0400,5379.374650416667,-0.296173095703125,0.9215087890625,-0.3293304443359375,1,0.91
2020-05-15 18:19:42.972 -0400,5379.494393416667,-0.297027587890625,0.8618927001953125,-0.35760498046875,1,0.91
2020-05-15 18:19:43.092 -0400,5379.614137416667,-0.274139404296875,0.9488677978515625,-0.2813568115234375,1,0.91
2020-05-15 18:19:43.212 -0400,5379.733876416667,-0.2717132568359375,0.8265380859375,-0.3223114013671875,1,0.91
2020-05-15 18:19:43.331 -0400,5379.853625541667,-0.25323486328125,0.751312255859375,-0.2605743408203125,1,0.91
2020-05-15 18:19:43.451 -0400,5379.973376541667,-0.3094482421875,1.015060424804688,-0.43951416015625,1,0.91
2020-05-15 18:19:43.571 -0400,5380.093122541667,-0.3104095458984375,0.8919677734375,-0.3402862548828125,1,0.91
2020-05-15 18:19:43.690 -0400,5380.212877541667,-0.2985992431640625,0.8692169189453125,-0.349029541015625,1,0.91
2020-05-15 18:19:43.810 -0400,5380.332629541667,-0.296875,0.90838623046875,-0.35211181640625,1,0.91
2020-05-15 18:19:43.930 -0400,5380.452383541667,-0.2976837158203125,0.810150146484375,-0.3511962890625,1,0.91
2020-05-15 18:19:44.050 -0400,5380.572135541667,-0.30645751953125,0.915252685546875,-0.3274688720703125,1,0.91
2020-05-15 18:19:44.175 -0400,5380.691883541667,-0.294036865234375,0.8810882568359375,-0.344085693359375,1,0.91
2020-05-15 18:19:44.289 -0400,5380.811633666667,-0.2969512939453125,0.88677978515625,-0.3496856689453125,1,0.91
2020-05-15 18:19:44.409 -0400,5380.931383666667,-0.2878265380859375,0.89178466796875,-0.3451995849609375,1,0.91
2020-05-15 18:19:44.529 -0400,5381.051131666667,-0.301483154296875,0.8892974853515625,-0.3435516357421875,1,0.91
2020-05-15 18:19:44.648 -0400,5381.170886666667,-0.2937774658203125,0.8906097412109375,-0.337371826171875,1,0.91
2020-05-15 18:19:44.768 -0400,5381.290640666667,-0.2970123291015625,0.904388427734375,-0.3389129638671875,1,0.91
2020-05-15 18:19:44.888 -0400,5381.410387666667,-0.28375244140625,0.87139892578125,-0.354461669921875,1,0.91
2020-05-15 18:19:45.008 -0400,5381.530124666667,-0.2929229736328125,0.9095611572265625,-0.33367919921875,1,0.91
2020-05-15 18:19:45.128 -0400,5381.649864666667,-0.2866058349609375,0.889007568359375,-0.3435516357421875,1,0.91
2020-05-15 18:19:45.247 -0400,5381.769609291667,-0.2942657470703125,0.9091796875,-0.3186798095703125,1,0.91
2020-05-15 18:19:45.367 -0400,5381.889352291667,-0.2887115478515625,0.894134521484375,-0.336456298828125,1,0.91
2020-05-15 18:19:45.487 -0400,5382.009094291667,-0.2921142578125,0.9028472900390625,-0.324066162109375,1,0.91
2020-05-15 18:19:45.607 -0400,5382.128830291667,-0.297119140625,0.901092529296875,-0.3226165771484375,1,0.91
2020-05-15 18:19:45.726 -0400,5382.248580291667,-0.302215576171875,0.8778839111328125,-0.3235931396484375,1,0.91
2020-05-15 18:19:45.846 -0400,5382.368322291667,-0.2918243408203125,0.9013214111328125,-0.32275390625,1,0.91
2020-05-15 18:19:45.966 -0400,5382.488060291667,-0.3016815185546875,0.945648193359375,-0.367462158203125,1,0.91
2020-05-15 18:19:46.085 -0400,5382.607799291667,-0.2875823974609375,0.854736328125,-0.3561553955078125,1,0.91
2020-05-15 18:19:46.205 -0400,5382.727542291667,-0.3038482666015625,0.8871917724609375,-0.4131317138671875,1,0.91
2020-05-15 18:19:46.325 -0400,5382.847283791667,-0.3022308349609375,0.919158935546875,-0.4254913330078125,1,0.91
2020-05-15 18:19:46.445 -0400,5382.967018791667,-0.26922607421875,0.788909912109375,-0.56427001953125,1,0.91
2020-05-15 18:19:46.564 -0400,5383.086758791667,-0.28460693359375,0.7048492431640625,-0.5615997314453125,1,0.91
2020-05-15 18:19:46.684 -0400,5383.206501791667,-0.2928009033203125,0.8862457275390625,-0.43487548828125,1,0.91
2020-05-15 18:19:46.804 -0400,5383.326242791667,-0.285400390625,0.8106689453125,-0.46661376953125,1,0.91
2020-05-15 18:19:46.924 -0400,5383.445977791667,-0.2605133056640625,0.75469970703125,-0.4723052978515625,1,0.91
2020-05-15 18:19:47.043 -0400,5383.565710791667,-0.3038330078125,0.9605560302734375,-0.4229736328125,1,0.91
2020-05-15 18:19:47.163 -0400,5383.685447791667,-0.291168212890625,0.8823394775390625,-0.4348907470703125,1,0.91
2020-05-15 18:19:47.283 -0400,5383.805186750001,-0.3392486572265625,0.8736114501953125,-0.3212127685546875,1,0.91
2020-05-15 18:19:47.403 -0400,5383.92492675,-0.2829437255859375,0.7427978515625,-0.4609375,1,0.91
2020-05-15 18:19:47.522 -0400,5384.04466675,-0.28228759765625,0.869537353515625,-0.4737701416015625,1,0.91
2020-05-15 18:19:47.647 -0400,5384.16439975,-0.31103515625,0.85528564453125,-0.37579345703125,1,0.91
2020-05-15 18:19:47.762 -0400,5384.28413775,-0.3181304931640625,0.833648681640625,-0.3799285888671875,1,0.91
2020-05-15 18:19:47.882 -0400,5384.40387475,-0.2766571044921875,0.847320556640625,-0.38018798828125,1,0.91
2020-05-15 18:19:48.002 -0400,5384.523613750001,-0.312164306640625,0.8270111083984375,-0.42645263671875,1,0.91
2020-05-15 18:19:48.121 -0400,5384.64335475,-0.2751617431640625,0.8557281494140625,-0.39093017578125,1,0.91
2020-05-15 18:19:48.241 -0400,5384.76309225,-0.2891387939453125,0.8310394287109375,-0.4467620849609375,1,0.91
2020-05-15 18:19:48.360 -0400,5384.882825250001,-0.2817535400390625,0.8743438720703125,-0.39825439453125,1,0.91
2020-05-15 18:19:48.480 -0400,5385.00256325,-0.2969207763671875,0.8825225830078125,-0.4162445068359375,1,0.91
2020-05-15 18:19:48.600 -0400,5385.12230025,-0.3025054931640625,0.839202880859375,-0.3806610107421875,1,0.91
2020-05-15 18:19:48.720 -0400,5385.242031250001,-0.3000335693359375,0.886199951171875,-0.3728790283203125,1,0.91
2020-05-15 18:19:48.839 -0400,5385.36176725,-0.2789306640625,0.86639404296875,-0.3895721435546875,1,0.91
2020-05-15 18:19:48.968 -0400,5385.481507250001,-0.298675537109375,0.930023193359375,-0.356201171875,1,0.91
2020-05-15 18:19:49.079 -0400,5385.60123825,-0.292694091796875,0.9290924072265625,-0.34503173828125,1,0.91
2020-05-15 18:19:49.199 -0400,5385.72097025,-0.2985687255859375,0.876556396484375,-0.281951904296875,1,0.91
2020-05-15 18:19:49.318 -0400,5385.840711625,-0.31787109375,0.915863037109375,-0.3279876708984375,1,0.91
2020-05-15 18:19:49.438 -0400,5385.960449625,-0.296142578125,0.8656158447265625,-0.333343505859375,1,0.91
2020-05-15 18:19:49.558 -0400,5386.080182625,-0.3071746826171875,0.904266357421875,-0.3337249755859375,1,0.91
2020-05-15 18:19:49.678 -0400,5386.199911625,-0.3032073974609375,0.8955078125,-0.3459625244140625,1,0.91
2020-05-15 18:19:49.797 -0400,5386.319644625,-0.3076934814453125,0.8987579345703125,-0.3301849365234375,1,0.91
2020-05-15 18:19:49.917 -0400,5386.439378625,-0.3003387451171875,0.880035400390625,-0.3692474365234375,1,0.91
2020-05-15 18:19:50.037 -0400,5386.559118625,-0.297210693359375,0.87628173828125,-0.35748291015625,1,0.91
2020-05-15 18:19:50.157 -0400,5386.678854625,-0.301513671875,0.918609619140625,-0.3512420654296875,1,0.91
2020-05-15 18:19:50.276 -0400,5386.79858775,-0.2829437255859375,0.85223388671875,-0.3760833740234375,1,0.91
2020-05-15 18:19:50.396 -0400,5386.91832175,-0.2995147705078125,0.878448486328125,-0.3440093994140625,1,0.91
2020-05-15 18:19:50.516 -0400,5387.038056750001,-0.306732177734375,0.9119873046875,-0.3268585205078125,1,0.91
2020-05-15 18:19:50.635 -0400,5387.15779175,-0.3021697998046875,0.85845947265625,-0.3694000244140625,1,0.91
2020-05-15 18:19:50.755 -0400,5387.277517750001,-0.30462646484375,0.88385009765625,-0.36663818359375,1,0.91
2020-05-15 18:19:50.875 -0400,5387.39724875,-0.294281005859375,0.8780059814453125,-0.3677825927734375,1,0.91
2020-05-15 18:19:50.995 -0400,5387.51697975,-0.2946624755859375,0.8981475830078125,-0.361083984375,1,0.91
2020-05-15 18:19:51.114 -0400,5387.63671075,-0.293853759765625,0.882659912109375,-0.36529541015625,1,0.91
2020-05-15 18:19:51.234 -0400,5387.756441041667,-0.2947235107421875,0.89984130859375,-0.363494873046875,1,0.91
2020-05-15 18:19:51.354 -0400,5387.876163041667,-0.29327392578125,0.8884124755859375,-0.3785858154296875,1,0.91
2020-05-15 18:19:51.474 -0400,5387.995891041667,-0.290313720703125,0.8368988037109375,-0.4034271240234375,1,0.91
2020-05-15 18:19:51.593 -0400,5388.115625041667,-0.3014068603515625,0.8572845458984375,-0.3691864013671875,1,0.91
2020-05-15 18:19:51.713 -0400,5388.235354041667,-0.2944488525390625,0.85675048828125,-0.3854217529296875,1,0.91
2020-05-15 18:19:51.833 -0400,5388.355086041667,-0.29241943359375,0.8620147705078125,-0.36529541015625,1,0.91
2020-05-15 18:19:51.952 -0400,5388.474815041667,-0.3121490478515625,0.874786376953125,-0.4002227783203125,1,0.91
2020-05-15 18:19:52.072 -0400,5388.594545041667,-0.2916412353515625,0.92266845703125,-0.2951202392578125,1,0.91
2020-05-15 18:19:52.192 -0400,5388.714269041667,-0.2763214111328125,0.693145751953125,-0.3247528076171875,1,0.91
2020-05-15 18:19:52.312 -0400,5388.83399475,-0.318603515625,0.904998779296875,-0.4444122314453125,1,0.91
2020-05-15 18:19:52.431 -0400,5388.953720750001,-0.2846221923828125,0.897430419921875,-0.3800811767578125,1,0.91
2020-05-15 18:19:52.551 -0400,5389.07344275,-0.3018035888671875,0.911102294921875,-0.357391357421875,1,0.91
2020-05-15 18:19:52.671 -0400,5389.193170750001,-0.29229736328125,0.8919830322265625,-0.3622894287109375,1,0.91
2020-05-15 18:19:52.791 -0400,5389.31289575,-0.3035125732421875,0.9002685546875,-0.3156585693359375,1,0.91
2020-05-15 18:19:52.910 -0400,5389.43261975,-0.2962493896484375,0.8746185302734375,-0.3484954833984375,1,0.91
2020-05-15 18:19:53.030 -0400,5389.55234275,-0.298126220703125,0.9293212890625,-0.3332977294921875,1,0.91
2020-05-15 18:19:53.150 -0400,5389.67206675,-0.315673828125,0.966888427734375,-0.3148956298828125,1,0.91
2020-05-15 18:19:53.269 -0400,5389.791796875001,-0.2725830078125,0.872406005859375,-0.4395294189453125,1,0.91
2020-05-15 18:19:53.389 -0400,5389.911524875,-0.27593994140625,0.884368896484375,-0.430694580078125,1,0.91
2020-05-15 18:19:53.509 -0400,5390.031251875001,-0.3145599365234375,0.84832763671875,-0.4509429931640625,1,0.91
2020-05-15 18:19:53.629 -0400,5390.150979875,-0.285552978515625,0.9161376953125,-0.327850341796875,1,0.91
2020-05-15 18:19:53.748 -0400,5390.270703875,-0.2744598388671875,0.658294677734375,-0.3510284423828125,1,0.91
2020-05-15 18:19:53.868 -0400,5390.390434875,-0.311614990234375,0.90960693359375,-0.4437408447265625,1,0.91
2020-05-15 18:19:53.988 -0400,5390.510172875001,-0.2797698974609375,0.8815765380859375,-0.39599609375,1,0.91
2020-05-15 18:19:54.108 -0400,5390.629915875001,-0.296722412109375,0.8761138916015625,-0.392242431640625,1,0.91
2020-05-15 18:19:54.227 -0400,5390.749652875001,-0.2792205810546875,0.9140625,-0.3959808349609375,1,0.91
2020-05-15 18:19:54.347 -0400,5390.869380916667,-0.2925262451171875,0.8783721923828125,-0.4174652099609375,1,0.91
2020-05-15 18:19:54.467 -0400,5390.989111916667,-0.2681884765625,0.968597412109375,-0.307098388671875,1,0.91
2020-05-15 18:19:54.587 -0400,5391.108844916667,-0.3346405029296875,0.8665924072265625,-0.3762664794921875,1,0.91
2020-05-15 18:19:54.706 -0400,5391.228576916667,-0.2930145263671875,0.84075927734375,-0.391143798828125,1,0.91
2020-05-15 18:19:54.826 -0400,5391.348301916667,-0.30499267578125,0.8885955810546875,-0.3578033447265625,1,0.91
2020-05-15 18:19:54.946 -0400,5391.468040916667,-0.2909088134765625,0.881256103515625,-0.370208740234375,1,0.91
2020-05-15 18:19:55.065 -0400,5391.587779916667,-0.3028717041015625,0.8284912109375,-0.3629302978515625,1,0.91
2020-05-15 18:19:55.185 -0400,5391.707515916667,-0.291015625,0.9073486328125,-0.4305267333984375,1,0.91
2020-05-15 18:19:55.305 -0400,5391.827255791667,-0.302459716796875,0.8501739501953125,-0.411590576171875,1,0.91
2020-05-15 18:19:55.425 -0400,5391.946991791667,-0.3009490966796875,0.88336181640625,-0.383544921875,1,0.91
2020-05-15 18:19:55.544 -0400,5392.066728791667,-0.295989990234375,0.9251861572265625,-0.3408050537109375,1,0.91
2020-05-15 18:19:55.664 -0400,5392.186465791667,-0.3082427978515625,0.91351318359375,-0.3308563232421875,1,0.91
2020-05-15 18:19:55.784 -0400,5392.306202791667,-0.2922821044921875,0.9001617431640625,-0.3401947021484375,1,0.91
2020-05-15 18:19:55.903 -0400,5392.425937791667,-0.305023193359375,0.8845367431640625,-0.34002685546875,1,0.91
2020-05-15 18:19:56.023 -0400,5392.545669791667,-0.2941741943359375,0.8744964599609375,-0.3337249755859375,1,0.91
2020-05-15 18:19:56.143 -0400,5392.665397791667,-0.297454833984375,0.887420654296875,-0.315826416015625,1,0.91
2020-05-15 18:19:56.263 -0400,5392.785127,-0.294647216796875,0.8971099853515625,-0.35113525390625,1,0.91
2020-05-15 18:19:56.383 -0400,5392.904861,-0.2805633544921875,0.863555908203125,-0.3154449462890625,1,0.91
2020-05-15 18:19:56.502 -0400,5393.024593,-0.30908203125,0.91717529296875,-0.3454132080078125,1,0.91
2020-05-15 18:19:56.622 -0400,5393.144324000001,-0.28497314453125,0.8169708251953125,-0.3188323974609375,1,0.91
2020-05-15 18:19:56.742 -0400,5393.264057,-0.3202056884765625,0.8973236083984375,-0.335479736328125,1,0.91
2020-05-15 18:19:56.861 -0400,5393.383798000001,-0.30340576171875,0.861480712890625,-0.278778076171875,1,0.91
2020-05-15 18:19:56.981 -0400,5393.503541,-0.3323822021484375,0.967864990234375,-0.2733001708984375,1,0.91
2020-05-15 18:19:57.101 -0400,5393.623280000001,-0.2970123291015625,0.869873046875,-0.288238525390625,1,0.91
2020-05-15 18:19:57.221 -0400,5393.743022000001,-0.311798095703125,0.9360809326171875,-0.3161163330078125,1,0.91
2020-05-15 18:19:57.340 -0400,5393.8627655,-0.29632568359375,0.8612060546875,-0.3205413818359375,1,0.91
2020-05-15 18:19:57.460 -0400,5393.982504500001,-0.2892913818359375,0.8901519775390625,-0.305328369140625,1,0.91
2020-05-15 18:19:57.580 -0400,5394.1022405,-0.2962188720703125,0.8591461181640625,-0.3464508056640625,1,0.91
2020-05-15 18:19:57.700 -0400,5394.2219775,-0.291412353515625,0.8682861328125,-0.333770751953125,1,0.91
2020-05-15 18:19:57.819 -0400,5394.3417145,-0.2886962890625,0.91619873046875,-0.3356170654296875,1,0.91
2020-05-15 18:19:57.947 -0400,5394.4614505,-0.2897491455078125,0.8902435302734375,-0.40252685546875,1,0.91
2020-05-15 18:19:58.059 -0400,5394.581184500001,-0.3140106201171875,0.901763916015625,-0.29351806640625,1,0.91
2020-05-15 18:19:58.186 -0400,5394.7009145,-0.30426025390625,0.894287109375,-0.3544769287109375,1,0.91
2020-05-15 18:19:58.298 -0400,5394.820641916667,-0.2948760986328125,0.8947296142578125,-0.3623809814453125,1,0.91
2020-05-15 18:19:58.418 -0400,5394.940366916667,-0.29034423828125,0.8816375732421875,-0.361297607421875,1,0.91
2020-05-15 18:19:58.538 -0400,5395.060086916667,-0.2870941162109375,0.964202880859375,-0.4090423583984375,1,0.91
2020-05-15 18:19:58.657 -0400,5395.179809916667,-0.2888031005859375,0.8448028564453125,-0.407745361328125,1,0.91
2020-05-15 18:19:58.777 -0400,5395.299535916667,-0.2868804931640625,0.8698883056640625,-0.405364990234375,1,0.91
2020-05-15 18:19:58.897 -0400,5395.419262916667,-0.317047119140625,0.9135894775390625,-0.34320068359375,1,0.91
2020-05-15 18:19:59.017 -0400,5395.538986916667,-0.28460693359375,0.8724517822265625,-0.3616943359375,1,0.91
2020-05-15 18:19:59.136 -0400,5395.658715916667,-0.2898712158203125,0.8797607421875,-0.367095947265625,1,0.91
2020-05-15 18:19:59.256 -0400,5395.778443375,-0.285614013671875,0.896087646484375,-0.3704681396484375,1,0.91
2020-05-15 18:19:59.376 -0400,5395.898171375,-0.279693603515625,0.8217315673828125,-0.451873779296875,1,0.91
2020-05-15 18:19:59.496 -0400,5396.017901375,-0.2808074951171875,0.820648193359375,-0.4435882568359375,1,0.91
2020-05-15 18:19:59.615 -0400,5396.137628375001,-0.2707977294921875,0.899017333984375,-0.4000701904296875,1,0.91
2020-05-15 18:19:59.735 -0400,5396.257352375001,-0.291748046875,0.8711090087890625,-0.4167022705078125,1,0.91
2020-05-15 18:19:59.855 -0400,5396.377080375,-0.29486083984375,0.8901214599609375,-0.431915283203125,1,0.91
2020-05-15 18:19:59.975 -0400,5396.496810375001,-0.284820556640625,0.8069305419921875,-0.443511962890625,1,0.91
2020-05-15 18:20:00.094 -0400,5396.616542375,-0.2836456298828125,0.8777618408203125,-0.435943603515625,1,0.91
2020-05-15 18:20:00.214 -0400,5396.736266375,-0.3040008544921875,0.9480743408203125,-0.39837646484375,1,0.91
2020-05-15 18:20:00.334 -0400,5396.85599,-0.2772979736328125,0.8148345947265625,-0.4528961181640625,1,0.91
2020-05-15 18:20:00.453 -0400,5396.975710000001,-0.2846832275390625,0.831451416015625,-0.4482269287109375,1,0.91
2020-05-15 18:20:00.573 -0400,5397.095431000001,-0.2825775146484375,0.8576812744140625,-0.4283447265625,1,0.91
2020-05-15 18:20:00.693 -0400,5397.215153,-0.297698974609375,0.882476806640625,-0.3791656494140625,1,0.91
2020-05-15 18:20:00.813 -0400,5397.334877,-0.29168701171875,0.882049560546875,-0.3830413818359375,1,0.91
2020-05-15 18:20:00.932 -0400,5397.454603,-0.29266357421875,0.8796234130859375,-0.3837432861328125,1,0.91
2020-05-15 18:20:01.052 -0400,5397.574334,-0.29327392578125,0.8844451904296875,-0.38677978515625,1,0.91
2020-05-15 18:20:01.172 -0400,5397.694060000001,-0.290557861328125,0.8927764892578125,-0.37689208984375,1,0.91
2020-05-15 18:20:01.291 -0400,5397.813788375001,-0.2898406982421875,0.823394775390625,-0.475189208984375,1,0.91
2020-05-15 18:20:01.411 -0400,5397.933521375,-0.29376220703125,0.8126983642578125,-0.49407958984375,1,0.91
2020-05-15 18:20:01.531 -0400,5398.053251375,-0.29229736328125,0.7968292236328125,-0.4593353271484375,1,0.91
2020-05-15 18:20:01.651 -0400,5398.172982375,-0.273712158203125,0.8885345458984375,-0.5218505859375,1,0.91
2020-05-15 18:20:01.770 -0400,5398.292712375001,-0.3074493408203125,0.795318603515625,-0.4066619873046875,1,0.91
2020-05-15 18:20:01.890 -0400,5398.412440375,-0.28271484375,0.834136962890625,-0.4440765380859375,1,0.91
2020-05-15 18:20:02.010 -0400,5398.532176375001,-0.295745849609375,0.8805999755859375,-0.423431396484375,1,0.91
2020-05-15 18:20:02.130 -0400,5398.651908375,-0.2861175537109375,0.8319854736328125,-0.45611572265625,1,0.91
2020-05-15 18:20:02.249 -0400,5398.771645041667,-0.295013427734375,0.8340911865234375,-0.4176483154296875,1,0.91
2020-05-15 18:20:02.369 -0400,5398.891380041667,-0.281524658203125,0.866058349609375,-0.425384521484375,1,0.91
2020-05-15 18:20:02.489 -0400,5399.011111041667,-0.2823944091796875,0.8789520263671875,-0.4248809814453125,1,0.91
2020-05-15 18:20:02.608 -0400,5399.130833041667,-0.2909393310546875,0.8540802001953125,-0.42529296875,1,0.91
2020-05-15 18:20:02.728 -0400,5399.250562041667,-0.285980224609375,0.852203369140625,-0.4322967529296875,1,0.91
2020-05-15 18:20:02.848 -0400,5399.370293041667,-0.290313720703125,0.8598480224609375,-0.4164581298828125,1,0.91
2020-05-15 18:20:02.968 -0400,5399.490019041667,-0.2889251708984375,0.8608245849609375,-0.423797607421875,1,0.91
2020-05-15 18:20:03.087 -0400,5399.609752041667,-0.273590087890625,0.8454437255859375,-0.4281158447265625,1,0.91
2020-05-15 18:20:03.207 -0400,5399.729477041667,-0.2838897705078125,0.8636322021484375,-0.394500732421875,1,0.91
2020-05-15 18:20:03.327 -0400,5399.8492035,-0.3155975341796875,0.972259521484375,-0.388519287109375,1,0.91
2020-05-15 18:20:03.447 -0400,5399.968931500001,-0.2895965576171875,0.898406982421875,-0.3668060302734375,1,0.91
2020-05-15 18:20:03.566 -0400,5400.088655500001,-0.2987060546875,0.958465576171875,-0.3425750732421875,1,0.91
2020-05-15 18:20:03.686 -0400,5400.208384500001,-0.285858154296875,0.8705902099609375,-0.3915863037109375,1,0.91
2020-05-15 18:20:03.806 -0400,5400.3281155,-0.296142578125,0.79449462890625,-0.37371826171875,1,0.91
2020-05-15 18:20:03.925 -0400,5400.447850500001,-0.2954559326171875,0.869659423828125,-0.423309326171875,1,0.91
2020-05-15 18:20:04.045 -0400,5400.5675855,-0.2723388671875,0.76019287109375,-0.4441986083984375,1,0.91
2020-05-15 18:20:04.165 -0400,5400.6873315,-0.2784576416015625,0.98309326171875,-0.397796630859375,1,0.91
2020-05-15 18:20:04.285 -0400,5400.807071375,-0.306671142578125,0.943115234375,-0.3991241455078125,1,0.91
2020-05-15 18:20:04.404 -0400,5400.926820375001,-0.2980499267578125,0.8489227294921875,-0.40093994140625,1,0.91
2020-05-15 18:20:04.524 -0400,5401.046566375,-0.29803466796875,0.9142913818359375,-0.3997344970703125,1,0.91
2020-05-15 18:20:04.644 -0400,5401.166311375,-0.2866973876953125,0.89239501953125,-0.386444091796875,1,0.91
2020-05-15 18:20:04.764 -0400,5401.286046375,-0.3109130859375,0.881256103515625,-0.3800506591796875,1,0.91
2020-05-15 18:20:04.883 -0400,5401.405787375001,-0.294708251953125,0.8735198974609375,-0.3481903076171875,1,0.91
2020-05-15 18:20:05.003 -0400,5401.525535375,-0.294677734375,0.8542633056640625,-0.43182373046875,1,0.91
2020-05-15 18:20:05.123 -0400,5401.645283375,-0.2737884521484375,0.8399658203125,-0.4456024169921875,1,0.91
2020-05-15 18:20:05.243 -0400,5401.765033375001,-0.2610931396484375,0.8183441162109375,-0.5063629150390625,1,0.91
2020-05-15 18:20:05.362 -0400,5401.884779166667,-0.2780914306640625,0.812896728515625,-0.50665283203125,1,0.91
2020-05-15 18:20:05.482 -0400,5402.004525166667,-0.28204345703125,0.8460845947265625,-0.3736572265625,1,0.91
2020-05-15 18:20:05.602 -0400,5402.124278166667,-0.2985687255859375,0.818359375,-0.3681793212890625,1,0.91
2020-05-15 18:20:05.722 -0400,5402.244030166667,-0.2628021240234375,0.8818817138671875,-0.4059906005859375,1,0.91
2020-05-15 18:20:05.841 -0400,5402.363784166667,-0.2649383544921875,1.108139038085938,-0.2240142822265625,1,0.91
2020-05-15 18:20:05.961 -0400,5402.483540166667,-0.3117218017578125,0.9341888427734375,-0.2148895263671875,1,0.91
2020-05-15 18:20:06.081 -0400,5402.603283166667,-0.277801513671875,0.94049072265625,-0.2645111083984375,1,0.91
2020-05-15 18:20:06.201 -0400,5402.723027166667,-0.287353515625,0.9539794921875,-0.2658538818359375,1,0.91
2020-05-15 18:20:06.320 -0400,5402.842771041667,-0.27459716796875,0.8958892822265625,-0.3336334228515625,1,0.91
2020-05-15 18:20:06.440 -0400,5402.962519041667,-0.282745361328125,0.9167633056640625,-0.2987823486328125,1,0.91
2020-05-15 18:20:06.560 -0400,5403.082257041667,-0.282470703125,0.897552490234375,-0.32275390625,1,0.91
2020-05-15 18:20:06.680 -0400,5403.201998041667,-0.2779693603515625,0.8951568603515625,-0.34295654296875,1,0.91
2020-05-15 18:20:06.799 -0400,5403.321736041667,-0.2781982421875,0.893951416015625,-0.338775634765625,1,0.91
2020-05-15 18:20:06.919 -0400,5403.441466041667,-0.2814788818359375,0.8898773193359375,-0.341583251953125,1,0.91
2020-05-15 18:20:07.039 -0400,5403.561197041667,-0.2833404541015625,0.938507080078125,-0.337890625,1,0.91
2020-05-15 18:20:07.159 -0400,5403.680932041667,-0.27423095703125,0.831329345703125,-0.3927154541015625,1,0.91
2020-05-15 18:20:07.278 -0400,5403.800669625,-0.271148681640625,0.90325927734375,-0.3649139404296875,1,0.91
2020-05-15 18:20:07.398 -0400,5403.920412625001,-0.277984619140625,0.8777923583984375,-0.3841400146484375,1,0.91
2020-05-15 18:20:07.518 -0400,5404.040155625,-0.28009033203125,0.892181396484375,-0.3497467041015625,1,0.91
2020-05-15 18:20:07.637 -0400,5404.159897625001,-0.2828369140625,0.9020538330078125,-0.3592529296875,1,0.91
2020-05-15 18:20:07.757 -0400,5404.279635625,-0.2745361328125,0.8503265380859375,-0.3722991943359375,1,0.91
2020-05-15 18:20:07.877 -0400,5404.399374625001,-0.278656005859375,0.8941802978515625,-0.349395751953125,1,0.91
2020-05-15 18:20:07.997 -0400,5404.519111625001,-0.2632598876953125,0.9061737060546875,-0.35931396484375,1,0.91
2020-05-15 18:20:08.116 -0400,5404.638850625,-0.2661590576171875,0.8466339111328125,-0.39398193359375,1,0.91
2020-05-15 18:20:08.236 -0400,5404.758581625,-0.31365966796875,0.7725372314453125,-0.382293701171875,1,0.91
2020-05-15 18:20:08.356 -0400,5404.878312916667,-0.2630157470703125,0.8905029296875,-0.366851806640625,1,0.91
2020-05-15 18:20:08.476 -0400,5404.998049916667,-0.2606201171875,0.87274169921875,-0.43121337890625,1,0.91
2020-05-15 18:20:08.595 -0400,5405.117785916667,-0.26904296875,0.882080078125,-0.371002197265625,1,0.91
2020-05-15 18:20:08.715 -0400,5405.237527916667,-0.3289642333984375,1.00103759765625,-0.275177001953125,1,0.91
2020-05-15 18:20:08.835 -0400,5405.357273916667,-0.281585693359375,0.7733917236328125,-0.37799072265625,1,0.91
2020-05-15 18:20:08.955 -0400,5405.477010916667,-0.3090667724609375,0.8312530517578125,-0.4109039306640625,1,0.91
2020-05-15 18:20:09.074 -0400,5405.596741916667,-0.2869720458984375,0.76153564453125,-0.4956512451171875,1,0.91
2020-05-15 18:20:09.194 -0400,5405.716477916667,-0.266845703125,0.7218017578125,-0.4571990966796875,1,0.91
2020-05-15 18:20:09.314 -0400,5405.836215125,-0.34197998046875,0.7501983642578125,-0.6220550537109375,1,0.91
2020-05-15 18:20:09.434 -0400,5405.955955125,-0.279541015625,0.7948150634765625,-0.5532684326171875,1,0.91
2020-05-15 18:20:09.553 -0400,5406.075688125,-0.3134307861328125,0.7923126220703125,-0.668121337890625,1,0.91
2020-05-15 18:20:09.673 -0400,5406.195422125001,-0.225799560546875,0.8211669921875,-0.4033355712890625,1,0.91
2020-05-15 18:20:09.793 -0400,5406.315158125,-0.30218505859375,0.71026611328125,-0.544219970703125,1,0.91
2020-05-15 18:20:09.913 -0400,5406.434897125,-0.3520355224609375,0.9569244384765625,-0.326629638671875,1,0.91
2020-05-15 18:20:10.032 -0400,5406.554636125,-0.257171630859375,0.7305755615234375,-0.599029541015625,1,0.91
2020-05-15 18:20:10.152 -0400,5406.674372125,-0.3018646240234375,0.795867919921875,-0.5433349609375,1,0.91
2020-05-15 18:20:10.272 -0400,5406.7940975,-0.2762603759765625,0.75787353515625,-0.5521087646484375,1,0.91
2020-05-15 18:20:10.391 -0400,5406.913830500001,-0.2876434326171875,0.7743377685546875,-0.569488525390625,1,0.91
2020-05-15 18:20:10.511 -0400,5407.033570500001,-0.289154052734375,0.7899169921875,-0.551849365234375,1,0.91
2020-05-15 18:20:10.631 -0400,5407.1533115,-0.2830047607421875,0.752105712890625,-0.552886962890625,1,0.91
2020-05-15 18:20:10.751 -0400,5407.273049500001,-0.27752685546875,0.7458648681640625,-0.5742645263671875,1,0.91
2020-05-15 18:20:10.871 -0400,5407.3927915,-0.289947509765625,0.7558746337890625,-0.5766143798828125,1,0.91
2020-05-15 18:20:10.990 -0400,5407.5125325,-0.2720489501953125,0.750457763671875,-0.5714569091796875,1,0.91
2020-05-15 18:20:11.110 -0400,5407.6322725,-0.2826995849609375,0.7667236328125,-0.5876617431640625,1,0.91
2020-05-15 18:20:11.230 -0400,5407.7520105,-0.2667999267578125,0.724578857421875,-0.5639190673828125,1,0.91
2020-05-15 18:20:11.349 -0400,5407.871753875001,-0.2838134765625,0.8126678466796875,-0.515625,1,0.91
2020-05-15 18:20:11.469 -0400,5407.991493875001,-0.28387451171875,0.8058319091796875,-0.530670166015625,1,0.91
2020-05-15 18:20:11.589 -0400,5408.111235875001,-0.2798919677734375,0.796295166015625,-0.526275634765625,1,0.91
2020-05-15 18:20:11.709 -0400,5408.230984875,-0.28533935546875,0.804962158203125,-0.5243377685546875,1,0.91
2020-05-15 18:20:11.828 -0400,5408.350731875001,-0.2803802490234375,0.7921905517578125,-0.5247802734375,1,0.91
2020-05-15 18:20:11.948 -0400,5408.470479875,-0.277740478515625,0.81219482421875,-0.52191162109375,1,0.91
2020-05-15 18:20:12.068 -0400,5408.590224875,-0.2883453369140625,0.8183135986328125,-0.521636962890625,1,0.91
2020-05-15 18:20:12.188 -0400,5408.709971875001,-0.2813568115234375,0.8074798583984375,-0.5223541259765625,1,0.91
2020-05-15 18:20:12.307 -0400,5408.829710875,-0.2772674560546875,0.801300048828125,-0.5358734130859375,1,0.91
2020-05-15 18:20:12.427 -0400,5408.949448875001,-0.2982940673828125,0.85400390625,-0.5,1,0.91
2020-05-15 18:20:12.547 -0400,5409.069188875001,-0.279541015625,0.7801055908203125,-0.5283203125,1,0.91
2020-05-15 18:20:12.667 -0400,5409.188925875001,-0.2747039794921875,0.801971435546875,-0.518798828125,1,0.91
2020-05-15 18:20:12.786 -0400,5409.308664875,-0.2762603759765625,0.8023681640625,-0.520721435546875,1,0.91
2020-05-15 18:20:12.915 -0400,5409.428405875,-0.2800750732421875,0.8174285888671875,-0.5247650146484375,1,0.91
2020-05-15 18:20:13.026 -0400,5409.548143875,-0.2917633056640625,0.82379150390625,-0.519378662109375,1,0.91
2020-05-15 18:20:13.146 -0400,5409.667888875,-0.2694091796875,0.7028350830078125,-0.5186767578125,1,0.91
2020-05-15 18:20:13.265 -0400,5409.787638000001,-0.267303466796875,0.737823486328125,-0.5202789306640625,1,0.91
2020-05-15 18:20:13.385 -0400,5409.907381,-0.2885589599609375,0.785064697265625,-0.4923248291015625,1,0.91
2020-05-15 18:20:13.505 -0400,5410.027121,-0.3101043701171875,0.77069091796875,-0.4210968017578125,1,0.91
2020-05-15 18:20:13.624 -0400,5410.146867,-0.2965850830078125,0.8188018798828125,-0.452484130859375,1,0.91
2020-05-15 18:20:13.744 -0400,5410.266607,-0.273773193359375,0.822784423828125,-0.5505828857421875,1,0.91
2020-05-15 18:20:13.864 -0400,5410.386338,-0.2858734130859375,0.7389373779296875,-0.525421142578125,1,0.91
2020-05-15 18:20:13.984 -0400,5410.506078,-0.29193115234375,0.89410400390625,-0.4987945556640625,1,0.91
2020-05-15 18:20:14.103 -0400,5410.625821000001,-0.2776031494140625,0.810943603515625,-0.51300048828125,1,0.91
2020-05-15 18:20:14.223 -0400,5410.745564000001,-0.2964324951171875,0.87750244140625,-0.48077392578125,1,0.91
2020-05-15 18:20:14.343 -0400,5410.865301666667,-0.296722412109375,0.791412353515625,-0.5097198486328125,1,0.91
2020-05-15 18:20:14.463 -0400,5410.985030666667,-0.2795257568359375,0.823486328125,-0.5088958740234375,1,0.91
2020-05-15 18:20:14.582 -0400,5411.104771666667,-0.2877044677734375,0.8154754638671875,-0.4962921142578125,1,0.91
2020-05-15 18:20:14.702 -0400,5411.224508666667,-0.2886505126953125,0.833648681640625,-0.5225677490234375,1,0.91
2020-05-15 18:20:14.822 -0400,5411.344246666667,-0.2809906005859375,0.892425537109375,-0.5010986328125,1,0.91
2020-05-15 18:20:14.942 -0400,5411.463983666667,-0.300537109375,0.9631805419921875,-0.406768798828125,1,0.91
2020-05-15 18:20:15.061 -0400,5411.583723666667,-0.3047027587890625,0.8338165283203125,-0.467498779296875,1,0.91
2020-05-15 18:20:15.182 -0400,5411.703464666667,-0.2927093505859375,0.821319580078125,-0.4736480712890625,1,0.91
2020-05-15 18:20:15.301 -0400,5411.8232005,-0.29571533203125,0.8336029052734375,-0.4547271728515625,1,0.91
2020-05-15 18:20:15.420 -0400,5411.942936500001,-0.2963104248046875,0.8463592529296875,-0.45599365234375,1,0.91
2020-05-15 18:20:15.540 -0400,5412.0626705,-0.293487548828125,0.816925048828125,-0.446685791015625,1,0.91
2020-05-15 18:20:15.660 -0400,5412.1824065,-0.3067626953125,0.856964111328125,-0.4562835693359375,1,0.91
2020-05-15 18:20:15.780 -0400,5412.3021385,-0.364898681640625,0.824066162109375,-0.3049468994140625,1,0.91
2020-05-15 18:20:15.899 -0400,5412.4218625,-0.3152008056640625,0.834075927734375,-0.4092254638671875,1,0.91
2020-05-15 18:20:16.019 -0400,5412.5415915,-0.2764739990234375,0.7759246826171875,-0.4540252685546875,1,0.91
2020-05-15 18:20:16.139 -0400,5412.661324500001,-0.2919921875,0.8157806396484375,-0.489410400390625,1,0.91
2020-05-15 18:20:16.271 -0400,5412.7810565,-0.275421142578125,0.8028564453125,-0.4953155517578125,1,0.91
2020-05-15 18:20:16.378 -0400,5412.90078575,-0.3114471435546875,0.83392333984375,-0.476409912109375,1,0.91
2020-05-15 18:20:16.498 -0400,5413.020518750001,-0.275054931640625,0.837799072265625,-0.469635009765625,1,0.91
2020-05-15 18:20:16.618 -0400,5413.140250750001,-0.287353515625,0.844512939453125,-0.480438232421875,1,0.91
2020-05-15 18:20:16.738 -0400,5413.25998175,-0.2849578857421875,0.8280029296875,-0.4562530517578125,1,0.91
2020-05-15 18:20:16.857 -0400,5413.37971475,-0.2984161376953125,0.8385467529296875,-0.4714202880859375,1,0.91
2020-05-15 18:20:16.977 -0400,5413.49945175,-0.2814178466796875,0.8321533203125,-0.457733154296875,1,0.91
2020-05-15 18:20:17.097 -0400,5413.61918675,-0.28436279296875,0.844818115234375,-0.4502716064453125,1,0.91
2020-05-15 18:20:17.217 -0400,5413.73892075,-0.285858154296875,0.884185791015625,-0.376251220703125,1,0.91
2020-05-15 18:20:17.336 -0400,5413.85865325,-0.3295745849609375,0.8679656982421875,-0.2972412109375,1,0.91
2020-05-15 18:20:17.456 -0400,5413.978386250001,-0.32952880859375,0.9071502685546875,-0.2097625732421875,1,0.91
2020-05-15 18:20:17.576 -0400,5414.09811925,-0.381072998046875,1.004714965820312,-0.1775970458984375,1,0.91
2020-05-15 18:20:17.695 -0400,5414.217844250001,-0.324188232421875,0.882537841796875,-0.2935943603515625,1,0.91
2020-05-15 18:20:17.815 -0400,5414.33756925,-0.312164306640625,0.8870391845703125,-0.2905426025390625,1,0.91
2020-05-15 18:20:17.935 -0400,5414.45730225,-0.318878173828125,0.9194488525390625,-0.3206024169921875,1,0.91
2020-05-15 18:20:18.055 -0400,5414.57703225,-0.309906005859375,0.9105682373046875,-0.3289031982421875,1,0.91
2020-05-15 18:20:18.185 -0400,5414.69676125,-0.3044586181640625,0.8827972412109375,-0.331695556640625,1,0.91
2020-05-15 18:20:18.294 -0400,5414.816489875,-0.32708740234375,0.8776092529296875,-0.355438232421875,1,0.91
2020-05-15 18:20:18.414 -0400,5414.936217875001,-0.1978759765625,0.974853515625,-0.5583038330078125,1,0.91
2020-05-15 18:20:18.534 -0400,5415.055944875,-0.3130340576171875,0.8023529052734375,-0.390594482421875,1,0.91
2020-05-15 18:20:18.653 -0400,5415.175675875001,-0.329742431640625,0.9512176513671875,-0.4020538330078125,1,0.91
2020-05-15 18:20:18.773 -0400,5415.295405875,-0.298309326171875,0.8304595947265625,-0.4069366455078125,1,0.91
2020-05-15 18:20:18.893 -0400,5415.415136875,-0.3138427734375,0.9066619873046875,-0.344757080078125,1,0.91
2020-05-15 18:20:19.013 -0400,5415.534873875,-0.366241455078125,0.925994873046875,-0.351226806640625,1,0.91
2020-05-15 18:20:19.132 -0400,5415.654607875001,-0.308197021484375,0.8552398681640625,-0.4713287353515625,1,0.91
2020-05-15 18:20:19.252 -0400,5415.774337875,-0.269775390625,0.795806884765625,-0.552520751953125,1,0.91
2020-05-15 18:20:19.372 -0400,5415.894073166667,-0.2841339111328125,0.7736358642578125,-0.5410308837890625,1,0.91
2020-05-15 18:20:19.491 -0400,5416.013813166667,-0.2670440673828125,0.7939453125,-0.5524139404296875,1,0.91
2020-05-15 18:20:19.611 -0400,5416.133552166667,-0.2902374267578125,0.7694244384765625,-0.5048675537109375,1,0.91
2020-05-15 18:20:19.731 -0400,5416.253285166667,-0.3010711669921875,0.7696075439453125,-0.508880615234375,1,0.91
2020-05-15 18:20:19.851 -0400,5416.373016166667,-0.3057708740234375,0.8223114013671875,-0.49774169921875,1,0.91
2020-05-15 18:20:19.970 -0400,5416.492749166667,-0.29931640625,0.7052154541015625,-0.5574951171875,1,0.91
2020-05-15 18:20:20.090 -0400,5416.612481166667,-0.2913970947265625,0.781494140625,-0.56121826171875,1,0.91
2020-05-15 18:20:20.210 -0400,5416.732218166667,-0.288604736328125,0.8234100341796875,-0.5534515380859375,1,0.91
2020-05-15 18:20:20.329 -0400,5416.851953375,-0.3091278076171875,0.80078125,-0.5323333740234375,1,0.91
2020-05-15 18:20:20.449 -0400,5416.971685375001,-0.291778564453125,0.8009033203125,-0.5477294921875,1,0.91
2020-05-15 18:20:20.569 -0400,5417.091422375001,-0.3130950927734375,0.8251953125,-0.5046539306640625,1,0.91
2020-05-15 18:20:20.689 -0400,5417.211159375001,-0.3134307861328125,0.845947265625,-0.5072784423828125,1,0.91
2020-05-15 18:20:20.809 -0400,5417.330891375001,-0.2968902587890625,0.82037353515625,-0.5147705078125,1,0.91
2020-05-15 18:20:20.928 -0400,5417.450626375,-0.2807159423828125,0.8009796142578125,-0.5159454345703125,1,0.91
2020-05-15 18:20:21.048 -0400,5417.570356375,-0.3001556396484375,0.79803466796875,-0.5067596435546875,1,0.91
2020-05-15 18:20:21.168 -0400,5417.690086375001,-0.30242919921875,0.843231201171875,-0.477935791015625,1,0.91
2020-05-15 18:20:21.287 -0400,5417.80981325,-0.3060760498046875,0.857025146484375,-0.4906005859375,1,0.91
2020-05-15 18:20:21.407 -0400,5417.92954225,-0.296783447265625,0.7950286865234375,-0.5025787353515625,1,0.91
2020-05-15 18:20:21.527 -0400,5418.049265250001,-0.308685302734375,0.8709564208984375,-0.484588623046875,1,0.91
2020-05-15 18:20:21.647 -0400,5418.16899325,-0.2968902587890625,0.8148651123046875,-0.4803466796875,1,0.91
2020-05-15 18:20:21.766 -0400,5418.28872125,-0.30828857421875,0.822662353515625,-0.4651947021484375,1,0.91
2020-05-15 18:20:21.886 -0400,5418.40844825,-0.3099365234375,0.8396759033203125,-0.4736328125,1,0.91
2020-05-15 18:20:22.006 -0400,5418.52817525,-0.29840087890625,0.8291473388671875,-0.499542236328125,1,0.91
2020-05-15 18:20:22.126 -0400,5418.64791125,-0.290191650390625,0.81475830078125,-0.49383544921875,1,0.91
2020-05-15 18:20:22.245 -0400,5418.76764325,-0.300018310546875,0.824951171875,-0.4839935302734375,1,0.91
2020-05-15 18:20:22.365 -0400,5418.8873755,-0.2943267822265625,0.818389892578125,-0.515899658203125,1,0.91
2020-05-15 18:20:22.485 -0400,5419.007105500001,-0.2975006103515625,0.7984771728515625,-0.5115509033203125,1,0.91
2020-05-15 18:20:22.604 -0400,5419.1268295,-0.2849884033203125,0.8033905029296875,-0.5092926025390625,1,0.91
2020-05-15 18:20:22.724 -0400,5419.2465505,-0.3077850341796875,0.8573150634765625,-0.4793548583984375,1,0.91
2020-05-15 18:20:22.844 -0400,5419.3662725,-0.3103485107421875,0.844512939453125,-0.4786529541015625,1,0.91
2020-05-15 18:20:22.964 -0400,5419.4859935,-0.294189453125,0.7945556640625,-0.52825927734375,1,0.91
2020-05-15 18:20:23.083 -0400,5419.6057165,-0.2883758544921875,0.7626953125,-0.5246429443359375,1,0.91
2020-05-15 18:20:23.203 -0400,5419.725449500001,-0.299835205078125,0.8036956787109375,-0.47271728515625,1,0.91
2020-05-15 18:20:23.323 -0400,5419.845183500001,-0.310699462890625,0.88775634765625,-0.45257568359375,1,0.91
2020-05-15 18:20:23.443 -0400,5419.9649145,-0.2848358154296875,0.817779541015625,-0.5140228271484375,1,0.91
2020-05-15 18:20:23.562 -0400,5420.0846485,-0.2901611328125,0.7874755859375,-0.5151214599609375,1,0.91
2020-05-15 18:20:23.682 -0400,5420.2043905,-0.3199310302734375,0.8023529052734375,-0.5223388671875,1,0.91
2020-05-15 18:20:23.802 -0400,5420.324126500001,-0.2967071533203125,0.722625732421875,-0.34979248046875,1,0.91
2020-05-15 18:20:23.921 -0400,5420.443871500001,-0.2332305908203125,0.6953125,-0.3727874755859375,1,0.91
2020-05-15 18:20:24.041 -0400,5420.5636205,-0.2318572998046875,0.9398345947265625,-0.459228515625,1,0.91
2020-05-15 18:20:24.161 -0400,5420.6833665,-0.3393096923828125,0.70037841796875,-0.5442352294921875,1,0.91
2020-05-15 18:20:24.281 -0400,5420.803104791667,-0.295440673828125,0.837432861328125,-0.4810943603515625,1,0.91
2020-05-15 18:20:24.400 -0400,5420.922842791667,-0.292755126953125,0.8228759765625,-0.5191802978515625,1,0.91
2020-05-15 18:20:24.520 -0400,5421.042573791667,-0.2553863525390625,0.795379638671875,-0.5717926025390625,1,0.91
2020-05-15 18:20:24.640 -0400,5421.162308791667,-0.2951202392578125,0.7469940185546875,-0.4547882080078125,1,0.91
2020-05-15 18:20:24.760 -0400,5421.282046791667,-0.2923126220703125,0.861907958984375,-0.5490264892578125,1,0.91
2020-05-15 18:20:24.879 -0400,5421.401781791667,-0.28082275390625,0.7659149169921875,-0.5421295166015625,1,0.91
2020-05-15 18:20:24.999 -0400,5421.521520791667,-0.262603759765625,0.937591552734375,-0.3465423583984375,1,0.91
2020-05-15 18:20:25.119 -0400,5421.641259791667,-0.247528076171875,0.685546875,-0.4368133544921875,1,0.91
2020-05-15 18:20:25.239 -0400,5421.760998791667,-0.2223968505859375,0.9713287353515625,-0.4033966064453125,1,0.91
2020-05-15 18:20:25.358 -0400,5421.880736125,-0.339141845703125,0.766815185546875,-0.555877685546875,1,0.91
2020-05-15 18:20:25.478 -0400,5422.000463125,-0.2993011474609375,0.7557220458984375,-0.50555419921875,1,0.91
2020-05-15 18:20:25.598 -0400,5422.120192125,-0.2903289794921875,0.8104705810546875,-0.4649200439453125,1,0.91
2020-05-15 18:20:25.718 -0400,5422.239924125,-0.2818145751953125,0.7986907958984375,-0.5186614990234375,1,0.91
2020-05-15 18:20:25.837 -0400,5422.359655125,-0.2969207763671875,0.8533172607421875,-0.470703125,1,0.91
2020-05-15 18:20:25.957 -0400,5422.479394125,-0.2958984375,0.8480224609375,-0.49298095703125,1,0.91
2020-05-15 18:20:26.077 -0400,5422.599131125,-0.295989990234375,0.8436737060546875,-0.505645751953125,1,0.91
2020-05-15 18:20:26.197 -0400,5422.718868125,-0.3132781982421875,0.857513427734375,-0.444061279296875,1,0.91
2020-05-15 18:20:26.316 -0400,5422.838599791667,-0.32232666015625,0.89996337890625,-0.6431121826171875,1,0.91
2020-05-15 18:20:26.436 -0400,5422.958334791667,-0.3216400146484375,0.8673095703125,-0.5139312744140625,1,0.91
2020-05-15 18:20:26.556 -0400,5423.078065791667,-0.360748291015625,0.8376312255859375,-0.6131134033203125,1,0.91
2020-05-15 18:20:26.675 -0400,5423.197799791667,-0.2463836669921875,0.9263153076171875,-0.451080322265625,1,0.91
2020-05-15 18:20:26.795 -0400,5423.317536791667,-0.30621337890625,0.85101318359375,-0.4871368408203125,1,0.91
2020-05-15 18:20:26.915 -0400,5423.437267791667,-0.29473876953125,0.830810546875,-0.482177734375,1,0.91
2020-05-15 18:20:27.035 -0400,5423.556998791667,-0.3038330078125,0.863861083984375,-0.4723663330078125,1,0.91
2020-05-15 18:20:27.154 -0400,5423.676737791667,-0.247344970703125,0.7894744873046875,-0.4342803955078125,1,0.91
2020-05-15 18:20:27.274 -0400,5423.796471291667,-0.2353668212890625,0.6890106201171875,-0.517974853515625,1,0.91
2020-05-15 18:20:27.394 -0400,5423.916209291667,-0.2996978759765625,0.70330810546875,-0.3935394287109375,1,0.91
2020-05-15 18:20:27.514 -0400,5424.035947291667,-0.2416534423828125,0.942962646484375,-0.502716064453125,1,0.91
2020-05-15 18:20:27.633 -0400,5424.155687291667,-0.32293701171875,0.7753753662109375,-0.547454833984375,1,0.91
2020-05-15 18:20:27.753 -0400,5424.275422291667,-0.2743682861328125,0.7665557861328125,-0.5326995849609375,1,0.91
2020-05-15 18:20:27.873 -0400,5424.395169291667,-0.279022216796875,0.74615478515625,-0.5795745849609375,1,0.91
2020-05-15 18:20:27.993 -0400,5424.514915291667,-0.3099212646484375,0.784088134765625,-0.6072845458984375,1,0.91
2020-05-15 18:20:28.112 -0400,5424.634658291667,-0.308013916015625,0.88507080078125,-0.521728515625,1,0.91
2020-05-15 18:20:28.232 -0400,5424.754407291667,-0.3130645751953125,0.90814208984375,-0.46533203125,1,0.91
2020-05-15 18:20:28.352 -0400,5424.874157375,-0.341949462890625,1.087371826171875,-0.4212646484375,1,0.91
2020-05-15 18:20:28.472 -0400,5424.993909375,-0.374603271484375,0.8636474609375,-0.4015350341796875,1,0.91
2020-05-15 18:20:28.591 -0400,5425.113658375,-0.306640625,0.9635467529296875,-0.3605804443359375,1,0.91
2020-05-15 18:20:28.711 -0400,5425.233402375,-0.3586578369140625,1.011001586914062,-0.359222412109375,1,0.91
2020-05-15 18:20:28.831 -0400,5425.353155375,-0.2929840087890625,0.7816619873046875,-0.397430419921875,1,0.91
2020-05-15 18:20:28.950 -0400,5425.472906375,-0.3266448974609375,0.829345703125,-0.329986572265625,1,0.91
2020-05-15 18:20:29.070 -0400,5425.592654375,-0.274993896484375,0.9803009033203125,-0.3174591064453125,1,0.91
2020-05-15 18:20:29.190 -0400,5425.712401375,-0.328857421875,0.947784423828125,-0.3356475830078125,1,0.91
2020-05-15 18:20:29.310 -0400,5425.832141041667,-0.3082122802734375,0.95294189453125,-0.3553009033203125,1,0.91
2020-05-15 18:20:29.430 -0400,5425.951879041667,-0.3533172607421875,0.8230743408203125,-0.242828369140625,1,0.91
2020-05-15 18:20:29.549 -0400,5426.071626041667,-0.2889404296875,0.9285125732421875,-0.450103759765625,1,0.91
2020-05-15 18:20:29.669 -0400,5426.191373041667,-0.3158111572265625,0.8464813232421875,-0.38525390625,1,0.91
2020-05-15 18:20:29.789 -0400,5426.311129041667,-0.2700042724609375,0.8983001708984375,-0.37005615234375,1,0.91
2020-05-15 18:20:29.908 -0400,5426.430881041667,-0.3099517822265625,0.8389739990234375,-0.3623046875,1,0.91
2020-05-15 18:20:30.028 -0400,5426.550623041667,-0.342926025390625,0.805328369140625,-0.3504486083984375,1,0.91
2020-05-15 18:20:30.148 -0400,5426.670366041667,-0.272918701171875,0.867401123046875,-0.409271240234375,1,0.91
2020-05-15 18:20:30.268 -0400,5426.790113041667,-0.2867889404296875,0.87847900390625,-0.3548431396484375,1,0.91
2020-05-15 18:20:30.388 -0400,5426.909860875,-0.285400390625,0.9571380615234375,-0.3324737548828125,1,0.91
2020-05-15 18:20:30.507 -0400,5427.029608875,-0.261566162109375,0.874786376953125,-0.4125518798828125,1,0.91
2020-05-15 18:20:30.627 -0400,5427.149360875001,-0.2910614013671875,0.910308837890625,-0.360626220703125,1,0.91
2020-05-15 18:20:30.747 -0400,5427.269109875,-0.2653350830078125,0.91961669921875,-0.366546630859375,1,0.91
2020-05-15 18:20:30.867 -0400,5427.388858875001,-0.2640228271484375,0.88311767578125,-0.394927978515625,1,0.91
2020-05-15 18:20:30.986 -0400,5427.508604875,-0.2693634033203125,0.8882293701171875,-0.3746795654296875,1,0.91
2020-05-15 18:20:31.106 -0400,5427.628351875001,-0.2785491943359375,0.9331817626953125,-0.3660888671875,1,0.91
2020-05-15 18:20:31.226 -0400,5427.748098875,-0.2590179443359375,0.9158477783203125,-0.407501220703125,1,0.91
2020-05-15 18:20:31.345 -0400,5427.867841875001,-0.290802001953125,0.9122772216796875,-0.381439208984375,1,0.91
2020-05-15 18:20:31.465 -0400,5427.987580875,-0.2979278564453125,0.919189453125,-0.365753173828125,1,0.91
2020-05-15 18:20:31.585 -0400,5428.107317875,-0.2733306884765625,0.89324951171875,-0.3251190185546875,1,0.91
2020-05-15 18:20:31.705 -0400,5428.227054875,-0.2616119384765625,0.8875274658203125,-0.3367156982421875,1,0.91
2020-05-15 18:20:31.824 -0400,5428.346795875001,-0.269744873046875,0.9022979736328125,-0.349365234375,1,0.91
2020-05-15 18:20:31.944 -0400,5428.466539875,-0.2810211181640625,0.8916015625,-0.3309478759765625,1,0.91
2020-05-15 18:20:32.064 -0400,5428.586284875,-0.2766876220703125,0.9478302001953125,-0.3061981201171875,1,0.91
2020-05-15 18:20:32.184 -0400,5428.706036875,-0.270660400390625,0.90484619140625,-0.3379058837890625,1,0.91
2020-05-15 18:20:32.303 -0400,5428.825785875,-0.2722320556640625,0.9365386962890625,-0.31146240234375,1,0.91
2020-05-15 18:20:32.423 -0400,5428.945533875,-0.2879791259765625,0.90631103515625,-0.313232421875,1,0.91
2020-05-15 18:20:32.543 -0400,5429.065274875,-0.2796783447265625,0.9103851318359375,-0.3267974853515625,1,0.91
2020-05-15 18:20:32.663 -0400,5429.185014875,-0.2664337158203125,0.9036865234375,-0.347625732421875,1,0.91
2020-05-15 18:20:32.782 -0400,5429.304757875,-0.2696075439453125,0.88177490234375,-0.3062591552734375,1,0.91
2020-05-15 18:20:32.902 -0400,5429.424505875,-0.26226806640625,0.8818817138671875,-0.3466644287109375,1,0.91
2020-05-15 18:20:33.022 -0400,5429.544249875,-0.260498046875,0.901641845703125,-0.3509674072265625,1,0.91
2020-05-15 18:20:33.142 -0400,5429.663988875001,-0.248687744140625,0.9480133056640625,-0.3289947509765625,1,0.91
2020-05-15 18:20:33.261 -0400,5429.783733875001,-0.2696533203125,0.9114227294921875,-0.32818603515625,1,0.91
2020-05-15 18:20:33.381 -0400,5429.903475916667,-0.261871337890625,0.96112060546875,-0.3393096923828125,1,0.91
2020-05-15 18:20:33.501 -0400,5430.023209916667,-0.27313232421875,0.9363555908203125,-0.3652191162109375,1,0.91
2020-05-15 18:20:33.621 -0400,5430.142954916667,-0.2507781982421875,0.9514617919921875,-0.3933563232421875,1,0.91
2020-05-15 18:20:33.740 -0400,5430.262694916667,-0.254364013671875,0.81634521484375,-0.4711761474609375,1,0.91
2020-05-15 18:20:33.860 -0400,5430.382430916667,-0.2761993408203125,0.863677978515625,-0.41387939453125,1,0.91
2020-05-15 18:20:33.980 -0400,5430.502168916667,-0.2628021240234375,0.880828857421875,-0.4022369384765625,1,0.91
2020-05-15 18:20:34.099 -0400,5430.621906916667,-0.2722930908203125,0.8696441650390625,-0.3842315673828125,1,0.91
2020-05-15 18:20:34.219 -0400,5430.741641916667,-0.265960693359375,0.88201904296875,-0.4026336669921875,1,0.91
2020-05-15 18:20:34.339 -0400,5430.861384000001,-0.26776123046875,0.8892669677734375,-0.3804168701171875,1,0.91
2020-05-15 18:20:34.459 -0400,5430.981135,-0.2530975341796875,0.9106903076171875,-0.396026611328125,1,0.91
2020-05-15 18:20:34.579 -0400,5431.100884,-0.2634735107421875,0.8766021728515625,-0.3914642333984375,1,0.91
2020-05-15 18:20:34.698 -0400,5431.220632,-0.2728424072265625,0.8874053955078125,-0.378021240234375,1,0.91
2020-05-15 18:20:34.818 -0400,5431.340368,-0.259429931640625,0.861846923828125,-0.408050537109375,1,0.91
2020-05-15 18:20:34.938 -0400,5431.460108,-0.27215576171875,0.8795928955078125,-0.384857177734375,1,0.91
2020-05-15 18:20:35.058 -0400,5431.579849000001,-0.2720947265625,0.8991851806640625,-0.3837738037109375,1,0.91
2020-05-15 18:20:35.184 -0400,5431.699595,-0.276458740234375,0.892303466796875,-0.3841552734375,1,0.91
2020-05-15 18:20:35.297 -0400,5431.819346791667,-0.2728729248046875,0.8864898681640625,-0.382843017578125,1,0.91
2020-05-15 18:20:35.417 -0400,5431.939093791667,-0.2745361328125,0.8931121826171875,-0.3730316162109375,1,0.91
2020-05-15 18:20:35.537 -0400,5432.058841791667,-0.263153076171875,0.8942108154296875,-0.3735504150390625,1,0.91
2020-05-15 18:20:35.656 -0400,5432.178585791667,-0.275360107421875,0.8909912109375,-0.3755950927734375,1,0.91
2020-05-15 18:20:35.776 -0400,5432.298328791667,-0.2793121337890625,0.89361572265625,-0.3683013916015625,1,0.91
2020-05-15 18:20:35.896 -0400,5432.418065791667,-0.2863616943359375,0.8985137939453125,-0.3563079833984375,1,0.91
2020-05-15 18:20:36.015 -0400,5432.537812791667,-0.2705078125,0.8706512451171875,-0.373992919921875,1,0.91
2020-05-15 18:20:36.135 -0400,5432.657557791667,-0.278411865234375,0.890380859375,-0.361083984375,1,0.91
2020-05-15 18:20:36.255 -0400,5432.777297791667,-0.2753448486328125,0.89263916015625,-0.359405517578125,1,0.91
2020-05-15 18:20:36.375 -0400,5432.897041625,-0.2769317626953125,0.909149169921875,-0.3617706298828125,1,0.91
2020-05-15 18:20:36.494 -0400,5433.016789625,-0.279083251953125,0.905609130859375,-0.351470947265625,1,0.91
2020-05-15 18:20:36.614 -0400,5433.136533625,-0.27374267578125,0.88525390625,-0.364593505859375,1,0.91
2020-05-15 18:20:36.734 -0400,5433.256280625001,-0.2805938720703125,0.9036102294921875,-0.3492431640625,1,0.91
2020-05-15 18:20:36.854 -0400,5433.376023625,-0.280426025390625,0.8870391845703125,-0.3501434326171875,1,0.91
2020-05-15 18:20:36.973 -0400,5433.495777625,-0.2770233154296875,0.89251708984375,-0.34832763671875,1,0.91
2020-05-15 18:20:37.093 -0400,5433.615528625,-0.2799530029296875,0.89453125,-0.3454742431640625,1,0.91
2020-05-15 18:20:37.213 -0400,5433.735273625,-0.27392578125,0.90521240234375,-0.3407745361328125,1,0.91
2020-05-15 18:20:37.333 -0400,5433.855020375,-0.27618408203125,0.901519775390625,-0.3399505615234375,1,0.91
2020-05-15 18:20:37.452 -0400,5433.974762375,-0.2725830078125,0.9016571044921875,-0.34307861328125,1,0.91
2020-05-15 18:20:37.572 -0400,5434.094502375,-0.2700347900390625,0.9015655517578125,-0.3429718017578125,1,0.91
2020-05-15 18:20:37.692 -0400,5434.214240375,-0.27618408203125,0.897064208984375,-0.3460540771484375,1,0.91
2020-05-15 18:20:37.812 -0400,5434.333974375,-0.274322509765625,0.885650634765625,-0.3465728759765625,1,0.91
2020-05-15 18:20:37.931 -0400,5434.453701375,-0.2793731689453125,0.930389404296875,-0.326171875,1,0.91
2020-05-15 18:20:38.051 -0400,5434.573429375,-0.2811126708984375,0.91485595703125,-0.3229217529296875,1,0.91
2020-05-15 18:20:38.171 -0400,5434.693167375,-0.28204345703125,0.897979736328125,-0.3354339599609375,1,0.91
2020-05-15 18:20:38.291 -0400,5434.812900125,-0.279052734375,0.9058074951171875,-0.3326568603515625,1,0.91
2020-05-15 18:20:38.410 -0400,5434.932636125,-0.2779693603515625,0.905059814453125,-0.3420257568359375,1,0.91
2020-05-15 18:20:38.530 -0400,5435.052371125001,-0.1815643310546875,0.868438720703125,-0.532928466796875,1,0.91
2020-05-15 18:20:38.650 -0400,5435.172111125,-0.2735443115234375,0.8183746337890625,-0.401702880859375,1,0.91
2020-05-15 18:20:38.769 -0400,5435.291857125,-0.3458709716796875,1.0234375,-0.3047637939453125,1,0.91
2020-05-15 18:20:38.889 -0400,5435.411610125,-0.265228271484375,0.8183135986328125,-0.306793212890625,1,0.91
2020-05-15 18:20:39.009 -0400,5435.531357125,-0.286865234375,0.926300048828125,-0.3213958740234375,1,0.91
2020-05-15 18:20:39.129 -0400,5435.651093125,-0.28729248046875,0.9478302001953125,-0.33685302734375,1,0.91
2020-05-15 18:20:39.249 -0400,5435.770827125,-0.303436279296875,0.9223175048828125,-0.3141326904296875,1,0.91
2020-05-15 18:20:39.368 -0400,5435.890560625,-0.288726806640625,0.8748321533203125,-0.3514251708984375,1,0.91
2020-05-15 18:20:39.488 -0400,5436.010287625,-0.2769775390625,0.9727935791015625,-0.28460693359375,1,0.91
2020-05-15 18:20:39.608 -0400,5436.130020625001,-0.271697998046875,0.9063568115234375,-0.43768310546875,1,0.91
2020-05-15 18:20:39.727 -0400,5436.249754625001,-0.273040771484375,0.8828582763671875,-0.3675537109375,1,0.91
2020-05-15 18:20:39.847 -0400,5436.369490625,-0.291778564453125,0.833038330078125,-0.4924163818359375,1,0.91
2020-05-15 18:20:39.967 -0400,5436.489227625,-0.258819580078125,0.9979400634765625,-0.356353759765625,1,0.91
2020-05-15 18:20:40.087 -0400,5436.608964625,-0.258209228515625,0.88134765625,-0.4014892578125,1,0.91
2020-05-15 18:20:40.207 -0400,5436.728700625001,-0.301849365234375,0.86248779296875,-0.3870849609375,1,0.91
2020-05-15 18:20:40.326 -0400,5436.848436875001,-0.2839813232421875,0.897125244140625,-0.387420654296875,1,0.91
2020-05-15 18:20:40.446 -0400,5436.968172875,-0.304168701171875,0.96533203125,-0.2965240478515625,1,0.91
2020-05-15 18:20:40.566 -0400,5437.087908875001,-0.33563232421875,0.811248779296875,-0.322723388671875,1,0.91
2020-05-15 18:20:40.685 -0400,5437.207647875,-0.29302978515625,0.8074188232421875,-0.386016845703125,1,0.91
2020-05-15 18:20:40.805 -0400,5437.327382875001,-0.290802001953125,0.855987548828125,-0.337432861328125,1,0.91
2020-05-15 18:20:40.925 -0400,5437.447117875,-0.2685394287109375,0.8582000732421875,-0.3964080810546875,1,0.91
2020-05-15 18:20:41.044 -0400,5437.566853875001,-0.25994873046875,0.869293212890625,-0.3929290771484375,1,0.91
2020-05-15 18:20:41.164 -0400,5437.686582875001,-0.2804412841796875,0.9079742431640625,-0.3740386962890625,1,0.91
2020-05-15 18:20:41.284 -0400,5437.806313875,-0.273345947265625,0.8587646484375,-0.351959228515625,1,0.91
2020-05-15 18:20:41.404 -0400,5437.92604725,-0.2850189208984375,0.8962554931640625,-0.39801025390625,1,0.91
2020-05-15 18:20:41.523 -0400,5438.045786250001,-0.2672119140625,0.907684326171875,-0.405792236328125,1,0.91
2020-05-15 18:20:41.643 -0400,5438.16551925,-0.2232666015625,0.884490966796875,-0.4516448974609375,1,0.91
2020-05-15 18:20:41.763 -0400,5438.285255250001,-0.281707763671875,0.8133087158203125,-0.4094390869140625,1,0.91
2020-05-15 18:20:41.883 -0400,5438.40499925,-0.2229156494140625,0.875732421875,-0.413421630859375,1,0.91
2020-05-15 18:20:42.002 -0400,5438.52473925,-0.276885986328125,0.894805908203125,-0.40753173828125,1,0.91
2020-05-15 18:20:42.122 -0400,5438.64447225,-0.2305755615234375,0.8296051025390625,-0.4597015380859375,1,0.91
2020-05-15 18:20:42.242 -0400,5438.764208250001,-0.2529449462890625,0.83563232421875,-0.4620208740234375,1,0.91
2020-05-15 18:20:42.362 -0400,5438.883949291667,-0.26934814453125,0.8759613037109375,-0.3668365478515625,1,0.91
2020-05-15 18:20:42.481 -0400,5439.003687291667,-0.2235565185546875,0.8341217041015625,-0.5472259521484375,1,0.91
2020-05-15 18:20:42.601 -0400,5439.123418291667,-0.26123046875,0.7958221435546875,-0.450531005859375,1,0.91
2020-05-15 18:20:42.721 -0400,5439.243156291667,-0.2433929443359375,0.823577880859375,-0.4444580078125,1,0.91
2020-05-15 18:20:42.841 -0400,5439.362888291667,-0.2646331787109375,0.8918609619140625,-0.40496826171875,1,0.91
2020-05-15 18:20:42.960 -0400,5439.482621291667,-0.2590484619140625,0.8042144775390625,-0.4496002197265625,1,0.91
2020-05-15 18:20:43.080 -0400,5439.602349291667,-0.255218505859375,0.9166259765625,-0.46142578125,1,0.91
2020-05-15 18:20:43.200 -0400,5439.722082291667,-0.2805328369140625,0.7948455810546875,-0.522430419921875,1,0.91
2020-05-15 18:20:43.319 -0400,5439.84181925,-0.2623291015625,0.7899627685546875,-0.4308013916015625,1,0.91
2020-05-15 18:20:43.439 -0400,5439.96156225,-0.27947998046875,0.8134307861328125,-0.4803009033203125,1,0.91
2020-05-15 18:20:43.559 -0400,5440.08129925,-0.1928558349609375,0.8077545166015625,-0.483642578125,1,0.91
2020-05-15 18:20:43.679 -0400,5440.20103625,-0.2731170654296875,0.8835601806640625,-0.4278717041015625,1,0.91
2020-05-15 18:20:43.798 -0400,5440.320779250001,-0.235809326171875,0.837432861328125,-0.4683837890625,1,0.91
2020-05-15 18:20:43.918 -0400,5440.44052625,-0.24664306640625,0.847320556640625,-0.46875,1,0.91
2020-05-15 18:20:44.038 -0400,5440.56027525,-0.252655029296875,0.920501708984375,-0.3586883544921875,1,0.91
2020-05-15 18:20:44.158 -0400,5440.680017250001,-0.25054931640625,0.8577728271484375,-0.3947906494140625,1,0.91
2020-05-15 18:20:44.277 -0400,5440.799759250001,-0.255035400390625,0.8827056884765625,-0.406036376953125,1,0.91
2020-05-15 18:20:44.397 -0400,5440.919506375,-0.254730224609375,0.9326324462890625,-0.361297607421875,1,0.91
2020-05-15 18:20:44.517 -0400,5441.039257375,-0.239410400390625,0.8929443359375,-0.3900299072265625,1,0.91
2020-05-15 18:20:44.637 -0400,5441.159001375,-0.252105712890625,0.89691162109375,-0.3707427978515625,1,0.91
2020-05-15 18:20:44.756 -0400,5441.278738375,-0.2579193115234375,0.9002227783203125,-0.4020843505859375,1,0.91
2020-05-15 18:20:44.876 -0400,5441.398477375001,-0.2434539794921875,0.8742828369140625,-0.3716278076171875,1,0.91
2020-05-15 18:20:44.996 -0400,5441.518221375,-0.2509613037109375,0.885711669921875,-0.3733367919921875,1,0.91
2020-05-15 18:20:45.116 -0400,5441.637967375001,-0.2515411376953125,0.9557952880859375,-0.3304290771484375,1,0.91
2020-05-15 18:20:45.235 -0400,5441.757717375001,-0.254791259765625,0.9108428955078125,-0.359771728515625,1,0.91
2020-05-15 18:20:45.355 -0400,5441.877461125,-0.2674713134765625,0.880889892578125,-0.340179443359375,1,0.91
2020-05-15 18:20:45.475 -0400,5441.997201125,-0.259490966796875,0.86346435546875,-0.3909454345703125,1,0.91
2020-05-15 18:20:45.595 -0400,5442.116932125,-0.2527313232421875,0.8721160888671875,-0.3896484375,1,0.91
2020-05-15 18:20:45.714 -0400,5442.236660125001,-0.2558135986328125,0.9267425537109375,-0.3548583984375,1,0.91
2020-05-15 18:20:45.834 -0400,5442.356398125,-0.253326416015625,0.880035400390625,-0.388885498046875,1,0.91
2020-05-15 18:20:45.954 -0400,5442.476138125,-0.2607879638671875,0.8585052490234375,-0.392547607421875,1,0.91
2020-05-15 18:20:46.073 -0400,5442.595873125,-0.2633056640625,0.9320526123046875,-0.3145294189453125,1,0.91
2020-05-15 18:20:46.193 -0400,5442.715602125,-0.2667388916015625,0.9046173095703125,-0.33978271484375,1,0.91
2020-05-15 18:20:46.313 -0400,5442.835335875,-0.2584075927734375,0.9133148193359375,-0.3407745361328125,1,0.91
2020-05-15 18:20:46.433 -0400,5442.955075875,-0.251617431640625,0.8910980224609375,-0.37744140625,1,0.91
2020-05-15 18:20:46.552 -0400,5443.074806875,-0.2624053955078125,0.9095001220703125,-0.3477783203125,1,0.91
2020-05-15 18:20:46.672 -0400,5443.194540875001,-0.259124755859375,0.8733978271484375,-0.37969970703125,1,0.91
2020-05-15 18:20:46.792 -0400,5443.314270875,-0.2618560791015625,0.8924407958984375,-0.3497161865234375,1,0.91
2020-05-15 18:20:46.912 -0400,5443.433996875,-0.25738525390625,0.9031219482421875,-0.3454437255859375,1,0.91
2020-05-15 18:20:47.032 -0400,5443.553723875,-0.258087158203125,0.9276123046875,-0.3419189453125,1,0.91
2020-05-15 18:20:47.151 -0400,5443.673455875,-0.242218017578125,0.8868560791015625,-0.3794403076171875,1,0.91
2020-05-15 18:20:47.271 -0400,5443.793183875,-0.25439453125,0.8706207275390625,-0.3823699951171875,1,0.91
2020-05-15 18:20:47.391 -0400,5443.912911041667,-0.2598114013671875,0.887176513671875,-0.3680419921875,1,0.91
2020-05-15 18:20:47.510 -0400,5444.032637041667,-0.25274658203125,0.866546630859375,-0.3639068603515625,1,0.91
2020-05-15 18:20:47.630 -0400,5444.152355041667,-0.2626800537109375,0.874114990234375,-0.349090576171875,1,0.91
2020-05-15 18:20:47.750 -0400,5444.272074041667,-0.2431488037109375,0.90838623046875,-0.3859100341796875,1,0.91
2020-05-15 18:20:47.869 -0400,5444.391791041667,-0.2511444091796875,0.894866943359375,-0.3629150390625,1,0.91
2020-05-15 18:20:47.989 -0400,5444.511512041667,-0.2562103271484375,0.902130126953125,-0.35394287109375,1,0.91
2020-05-15 18:20:48.109 -0400,5444.631231041667,-0.254547119140625,0.9000244140625,-0.3890533447265625,1,0.91
2020-05-15 18:20:48.229 -0400,5444.750951041667,-0.248199462890625,0.8697357177734375,-0.425628662109375,1,0.91
2020-05-15 18:20:48.348 -0400,5444.870675625,-0.250396728515625,0.875579833984375,-0.416290283203125,1,0.91
2020-05-15 18:20:48.468 -0400,5444.990402625001,-0.2544708251953125,0.871673583984375,-0.397064208984375,1,0.91
2020-05-15 18:20:48.588 -0400,5445.110128625,-0.2435760498046875,0.8482208251953125,-0.420440673828125,1,0.91
2020-05-15 18:20:48.707 -0400,5445.229845625,-0.2482147216796875,0.884307861328125,-0.3981475830078125,1,0.91
2020-05-15 18:20:48.827 -0400,5445.349566625,-0.256866455078125,0.898345947265625,-0.38104248046875,1,0.91
2020-05-15 18:20:48.947 -0400,5445.469293625,-0.2415008544921875,0.9181365966796875,-0.38775634765625,1,0.91
2020-05-15 18:20:49.067 -0400,5445.589018625,-0.26324462890625,0.9258880615234375,-0.3733978271484375,1,0.91
2020-05-15 18:20:49.187 -0400,5445.708739625,-0.2589111328125,0.907989501953125,-0.39013671875,1,0.91
2020-05-15 18:20:49.306 -0400,5445.828469875,-0.2693634033203125,0.89654541015625,-0.35797119140625,1,0.91
2020-05-15 18:20:49.426 -0400,5445.948199875001,-0.278839111328125,0.868377685546875,-0.3719329833984375,1,0.91
2020-05-15 18:20:49.546 -0400,5446.067929875,-0.266815185546875,0.8841552734375,-0.36041259765625,1,0.91
2020-05-15 18:20:49.665 -0400,5446.187656875,-0.2721099853515625,0.89312744140625,-0.3553009033203125,1,0.91
2020-05-15 18:20:49.785 -0400,5446.307380875,-0.2794342041015625,0.909820556640625,-0.3520660400390625,1,0.91
2020-05-15 18:20:49.905 -0400,5446.427101875001,-0.267578125,0.8818511962890625,-0.37255859375,1,0.91
2020-05-15 18:20:50.024 -0400,5446.546826875,-0.2705078125,0.8723602294921875,-0.36492919921875,1,0.91
2020-05-15 18:20:50.144 -0400,5446.666545875,-0.283599853515625,0.8925933837890625,-0.3485260009765625,1,0.91
2020-05-15 18:20:50.264 -0400,5446.786271875,-0.26763916015625,0.8795318603515625,-0.372467041015625,1,0.91
2020-05-15 18:20:50.384 -0400,5446.905995791667,-0.27728271484375,0.8859710693359375,-0.35052490234375,1,0.91
2020-05-15 18:20:50.503 -0400,5447.025726791667,-0.276123046875,0.889007568359375,-0.3577423095703125,1,0.91
2020-05-15 18:20:50.623 -0400,5447.145451791667,-0.272125244140625,0.8984222412109375,-0.36590576171875,1,0.91
2020-05-15 18:20:50.743 -0400,5447.265173791667,-0.272247314453125,0.88104248046875,-0.356201171875,1,0.91
2020-05-15 18:20:50.863 -0400,5447.384900791667,-0.2711029052734375,0.924346923828125,-0.350677490234375,1,0.91
2020-05-15 18:20:50.982 -0400,5447.504633791667,-0.2601470947265625,0.8762664794921875,-0.3785552978515625,1,0.91
2020-05-15 18:20:51.102 -0400,5447.624363791667,-0.263427734375,0.843231201171875,-0.3829803466796875,1,0.91
2020-05-15 18:20:51.222 -0400,5447.744085791667,-0.2678985595703125,0.88531494140625,-0.380767822265625,1,0.91
2020-05-15 18:20:51.341 -0400,5447.863808041667,-0.2541961669921875,0.8779144287109375,-0.4058074951171875,1,0.91
2020-05-15 18:20:51.461 -0400,5447.983531041667,-0.2569122314453125,0.867340087890625,-0.41497802734375,1,0.91
2020-05-15 18:20:51.581 -0400,5448.103249041667,-0.256195068359375,0.865997314453125,-0.418365478515625,1,0.91
2020-05-15 18:20:51.701 -0400,5448.222975041667,-0.258209228515625,0.8672332763671875,-0.4251708984375,1,0.91
2020-05-15 18:20:51.820 -0400,5448.342694041667,-0.2575531005859375,0.8698272705078125,-0.4135894775390625,1,0.91
2020-05-15 18:20:51.940 -0400,5448.462413041667,-0.2565155029296875,0.8757476806640625,-0.4179229736328125,1,0.91
2020-05-15 18:20:52.060 -0400,5448.582136041667,-0.25762939453125,0.86663818359375,-0.4312286376953125,1,0.91
2020-05-15 18:20:52.181 -0400,5448.701864041667,-0.2612762451171875,0.8526611328125,-0.426849365234375,1,0.91
2020-05-15 18:20:52.299 -0400,5448.821581416667,-0.2573699951171875,0.865692138671875,-0.4307861328125,1,0.91
2020-05-15 18:20:52.419 -0400,5448.941299416667,-0.261474609375,0.8637847900390625,-0.425506591796875,1,0.91
2020-05-15 18:20:52.539 -0400,5449.061026416667,-0.255279541015625,0.867431640625,-0.42742919921875,1,0.91
2020-05-15 18:20:52.658 -0400,5449.180745416667,-0.2559967041015625,0.8623809814453125,-0.4295806884765625,1,0.91
2020-05-15 18:20:52.778 -0400,5449.300466416667,-0.2528228759765625,0.8596954345703125,-0.4360504150390625,1,0.91
2020-05-15 18:20:52.898 -0400,5449.420190416667,-0.25030517578125,0.8645477294921875,-0.434539794921875,1,0.91
2020-05-15 18:20:53.017 -0400,5449.539914416667,-0.2510528564453125,0.8705596923828125,-0.4500274658203125,1,0.91
2020-05-15 18:20:53.137 -0400,5449.659638416667,-0.2533416748046875,0.8565216064453125,-0.442230224609375,1,0.91
2020-05-15 18:20:53.257 -0400,5449.779360416667,-0.249237060546875,0.8556365966796875,-0.4333038330078125,1,0.91
2020-05-15 18:20:53.377 -0400,5449.899084500001,-0.2470703125,0.8658294677734375,-0.4398345947265625,1,0.91
2020-05-15 18:20:53.497 -0400,5450.0188125,-0.2546539306640625,0.8502960205078125,-0.4420928955078125,1,0.91
2020-05-15 18:20:53.616 -0400,5450.1385385,-0.260498046875,0.8808441162109375,-0.4120941162109375,1,0.91
2020-05-15 18:20:53.736 -0400,5450.258268500001,-0.25653076171875,0.8904876708984375,-0.4173736572265625,1,0.91
2020-05-15 18:20:53.856 -0400,5450.3779965,-0.2577667236328125,0.8797760009765625,-0.41510009765625,1,0.91
2020-05-15 18:20:53.975 -0400,5450.4977215,-0.2592926025390625,0.8567962646484375,-0.435455322265625,1,0.91
2020-05-15 18:20:54.095 -0400,5450.6174505,-0.2581939697265625,0.8825225830078125,-0.4000091552734375,1,0.91
2020-05-15 18:20:54.215 -0400,5450.7371875,-0.2514495849609375,0.917724609375,-0.3679962158203125,1,0.91
2020-05-15 18:20:54.335 -0400,5450.856921125001,-0.2555999755859375,0.87640380859375,-0.371368408203125,1,0.91
2020-05-15 18:20:54.454 -0400,5450.976658125001,-0.246307373046875,0.87103271484375,-0.4110565185546875,1,0.91
2020-05-15 18:20:54.574 -0400,5451.096395125001,-0.255126953125,0.8922271728515625,-0.3865814208984375,1,0.91
2020-05-15 18:20:54.694 -0400,5451.216134125,-0.2532501220703125,0.8787078857421875,-0.3789215087890625,1,0.91
2020-05-15 18:20:54.813 -0400,5451.335864125001,-0.257965087890625,0.8897552490234375,-0.3819580078125,1,0.91
2020-05-15 18:20:54.933 -0400,5451.455603125,-0.2706451416015625,0.9901275634765625,-0.3073272705078125,1,0.91
2020-05-15 18:20:55.053 -0400,5451.575339125,-0.2657470703125,0.876251220703125,-0.3551177978515625,1,0.91
2020-05-15 18:20:55.182 -0400,5451.695069125,-0.2725677490234375,0.8965301513671875,-0.38116455078125,1,0.91
2020-05-15 18:20:55.292 -0400,5451.814801125,-0.274688720703125,0.8726654052734375,-0.3073272705078125,1,0.91
2020-05-15 18:20:55.412 -0400,5451.934536000001,-0.27081298828125,1.008041381835938,-0.3020477294921875,1,0.91
2020-05-15 18:20:55.532 -0400,5452.054266,-0.2714996337890625,0.91912841796875,-0.322723388671875,1,0.91
2020-05-15 18:20:55.652 -0400,5452.173993,-0.278228759765625,0.8944549560546875,-0.342376708984375,1,0.91
2020-05-15 18:20:55.771 -0400,5452.293720000001,-0.271209716796875,0.8990478515625,-0.356536865234375,1,0.91
2020-05-15 18:20:55.891 -0400,5452.413449000001,-0.2734222412109375,0.9135894775390625,-0.3491973876953125,1,0.91
2020-05-15 18:20:56.011 -0400,5452.533177,-0.2592010498046875,0.8688201904296875,-0.3628387451171875,1,0.91
2020-05-15 18:20:56.131 -0400,5452.652907000001,-0.285858154296875,0.8968048095703125,-0.360992431640625,1,0.91
2020-05-15 18:20:56.250 -0400,5452.772643,-0.2738037109375,0.8706207275390625,-0.348297119140625,1,0.91
2020-05-15 18:20:56.370 -0400,5452.892378625001,-0.28192138671875,0.8630218505859375,-0.403076171875,1,0.91
2020-05-15 18:20:56.490 -0400,5453.012109625,-0.2847137451171875,0.9876708984375,-0.3094940185546875,1,0.91
2020-05-15 18:20:56.609 -0400,5453.131837625,-0.277923583984375,0.889617919921875,-0.3398284912109375,1,0.91
2020-05-15 18:20:56.729 -0400,5453.251572625,-0.2896881103515625,0.8435516357421875,-0.36749267578125,1,0.91
2020-05-15 18:20:56.849 -0400,5453.371304625,-0.2796478271484375,0.8957977294921875,-0.3726654052734375,1,0.91
2020-05-15 18:20:56.969 -0400,5453.491035625,-0.2887725830078125,0.910919189453125,-0.3734893798828125,1,0.91
2020-05-15 18:20:57.093 -0400,5453.610768625001,-0.275787353515625,0.845306396484375,-0.4336090087890625,1,0.91
2020-05-15 18:20:57.208 -0400,5453.730502625001,-0.274749755859375,0.8410797119140625,-0.4342193603515625,1,0.91
2020-05-15 18:20:57.328 -0400,5453.85023275,-0.2615814208984375,0.8651275634765625,-0.48529052734375,1,0.91
2020-05-15 18:20:57.448 -0400,5453.969957750001,-0.277557373046875,0.8740081787109375,-0.3967742919921875,1,0.91
2020-05-15 18:20:57.567 -0400,5454.08968575,-0.2805938720703125,0.8996124267578125,-0.3963775634765625,1,0.91
2020-05-15 18:20:57.687 -0400,5454.20941475,-0.274658203125,0.8444061279296875,-0.422821044921875,1,0.91
2020-05-15 18:20:57.807 -0400,5454.32914675,-0.26739501953125,0.8819427490234375,-0.4199981689453125,1,0.91
2020-05-15 18:20:57.927 -0400,5454.448884750001,-0.270660400390625,0.8589935302734375,-0.4206695556640625,1,0.91
2020-05-15 18:20:58.046 -0400,5454.56861575,-0.2747650146484375,0.90997314453125,-0.3470001220703125,1,0.91
2020-05-15 18:20:58.166 -0400,5454.688339750001,-0.26416015625,0.8394317626953125,-0.464447021484375,1,0.91
2020-05-15 18:20:58.286 -0400,5454.80807075,-0.262664794921875,0.8821563720703125,-0.4295806884765625,1,0.91
2020-05-15 18:20:58.406 -0400,5454.927805125,-0.2575836181640625,0.8308868408203125,-0.438446044921875,1,0.91
2020-05-15 18:20:58.525 -0400,5455.047547125,-0.263153076171875,0.861480712890625,-0.4071044921875,1,0.91
2020-05-15 18:20:58.645 -0400,5455.167280125001,-0.254547119140625,0.81817626953125,-0.4644012451171875,1,0.91
2020-05-15 18:20:58.765 -0400,5455.287022125,-0.2577972412109375,0.847930908203125,-0.46063232421875,1,0.91
2020-05-15 18:20:58.884 -0400,5455.406762125001,-0.232147216796875,0.7459716796875,-0.4953460693359375,1,0.91
2020-05-15 18:20:59.004 -0400,5455.526495125,-0.2723388671875,0.884246826171875,-0.4155731201171875,1,0.91
2020-05-15 18:20:59.124 -0400,5455.646238125,-0.251739501953125,0.8295745849609375,-0.452911376953125,1,0.91
2020-05-15 18:20:59.244 -0400,5455.765988125,-0.257843017578125,0.8494720458984375,-0.450897216796875,1,0.91
2020-05-15 18:20:59.363 -0400,5455.885734500001,-0.2583160400390625,0.8764495849609375,-0.4475250244140625,1,0.91
2020-05-15 18:20:59.483 -0400,5456.005477500001,-0.2576904296875,0.850677490234375,-0.4534912109375,1,0.91
2020-05-15 18:20:59.603 -0400,5456.125222500001,-0.2531890869140625,0.8437042236328125,-0.4395599365234375,1,0.91
2020-05-15 18:20:59.723 -0400,5456.2449665,-0.2658843994140625,0.8705902099609375,-0.4150390625,1,0.91
2020-05-15 18:20:59.842 -0400,5456.3647115,-0.2577056884765625,0.8751373291015625,-0.402374267578125,1,0.91
2020-05-15 18:20:59.962 -0400,5456.484452500001,-0.2620697021484375,0.8703155517578125,-0.401214599609375,1,0.91
2020-05-15 18:21:00.082 -0400,5456.604189500001,-0.2602996826171875,0.89056396484375,-0.404388427734375,1,0.91
2020-05-15 18:21:00.202 -0400,5456.7239225,-0.2661895751953125,0.8869171142578125,-0.4228363037109375,1,0.91
2020-05-15 18:21:00.321 -0400,5456.843660500001,-0.2585296630859375,0.885894775390625,-0.3979034423828125,1,0.91
2020-05-15 18:21:00.441 -0400,5456.9634065,-0.2577362060546875,0.884307861328125,-0.3840179443359375,1,0.91
2020-05-15 18:21:00.561 -0400,5457.0831555,-0.2518310546875,0.8899993896484375,-0.3949127197265625,1,0.91
2020-05-15 18:21:00.681 -0400,5457.2028995,-0.24267578125,0.892730712890625,-0.401123046875,1,0.91
2020-05-15 18:21:00.800 -0400,5457.3226405,-0.256072998046875,0.8869171142578125,-0.39434814453125,1,0.91
2020-05-15 18:21:00.920 -0400,5457.4423765,-0.2531585693359375,0.888427734375,-0.401275634765625,1,0.91
2020-05-15 18:21:01.040 -0400,5457.5621145,-0.25628662109375,0.86639404296875,-0.3904571533203125,1,0.91
2020-05-15 18:21:01.160 -0400,5457.6818515,-0.2373504638671875,0.8006591796875,-0.45013427734375,1,0.91
2020-05-15 18:21:01.279 -0400,5457.8015825,-0.279327392578125,0.7999114990234375,-0.3930816650390625,1,0.91
2020-05-15 18:21:01.399 -0400,5457.921317875001,-0.2480621337890625,0.887603759765625,-0.4702911376953125,1,0.91
2020-05-15 18:21:01.519 -0400,5458.041050875,-0.2011260986328125,0.856414794921875,-0.5714111328125,1,0.91
2020-05-15 18:21:01.638 -0400,5458.160785875,-0.2617950439453125,0.8685150146484375,-0.4424896240234375,1,0.91
2020-05-15 18:21:01.758 -0400,5458.280523875001,-0.2591552734375,0.874420166015625,-0.44384765625,1,0.91
2020-05-15 18:21:01.878 -0400,5458.400263875001,-0.250152587890625,0.813232421875,-0.4418182373046875,1,0.91
2020-05-15 18:21:01.998 -0400,5458.520000875001,-0.2900238037109375,0.933349609375,-0.3260955810546875,1,0.91
2020-05-15 18:21:02.117 -0400,5458.639734875001,-0.270263671875,0.8844757080078125,-0.3659515380859375,1,0.91
2020-05-15 18:21:02.237 -0400,5458.759470875,-0.2751007080078125,0.8932342529296875,-0.34637451171875,1,0.91
2020-05-15 18:21:02.357 -0400,5458.87920425,-0.2733154296875,0.9038543701171875,-0.3336029052734375,1,0.91
2020-05-15 18:21:02.477 -0400,5458.99893925,-0.2801055908203125,0.918121337890625,-0.3228759765625,1,0.91
2020-05-15 18:21:02.596 -0400,5459.11867425,-0.277557373046875,0.90435791015625,-0.3300323486328125,1,0.91
2020-05-15 18:21:02.716 -0400,5459.23841525,-0.2732391357421875,0.876007080078125,-0.3618011474609375,1,0.91
2020-05-15 18:21:02.836 -0400,5459.358154250001,-0.276824951171875,0.9020843505859375,-0.3339080810546875,1,0.91
2020-05-15 18:21:02.955 -0400,5459.477891250001,-0.2803497314453125,0.90118408203125,-0.338653564453125,1,0.91
2020-05-15 18:21:03.075 -0400,5459.59763225,-0.2756500244140625,0.891510009765625,-0.3421478271484375,1,0.91
2020-05-15 18:21:03.207 -0400,5459.717371250001,-0.276123046875,0.9322662353515625,-0.3602294921875,1,0.91
2020-05-15 18:21:03.315 -0400,5459.837110166667,-0.2744140625,0.89569091796875,-0.3450469970703125,1,0.91
2020-05-15 18:21:03.434 -0400,5459.956847166667,-0.2729644775390625,0.898712158203125,-0.3578338623046875,1,0.91
2020-05-15 18:21:03.554 -0400,5460.076581166667,-0.2731170654296875,0.906402587890625,-0.3522491455078125,1,0.91
2020-05-15 18:21:03.674 -0400,5460.196315166667,-0.2737579345703125,0.89208984375,-0.3585662841796875,1,0.91
2020-05-15 18:21:03.794 -0400,5460.316054166667,-0.27105712890625,0.8887176513671875,-0.3609466552734375,1,0.91
2020-05-15 18:21:03.913 -0400,5460.435791166667,-0.27239990234375,0.8994140625,-0.3583831787109375,1,0.91
2020-05-15 18:21:04.033 -0400,5460.555527166667,-0.2754669189453125,0.897216796875,-0.34954833984375,1,0.91
2020-05-15 18:21:04.153 -0400,5460.675261166667,-0.2732696533203125,0.8968353271484375,-0.35211181640625,1,0.91
2020-05-15 18:21:04.273 -0400,5460.794992166667,-0.2764434814453125,0.8931884765625,-0.3460540771484375,1,0.91
2020-05-15 18:21:04.392 -0400,5460.914723625,-0.270050048828125,0.894622802734375,-0.3519287109375,1,0.91
2020-05-15 18:21:04.512 -0400,5461.034449625,-0.2748870849609375,0.8909454345703125,-0.3548583984375,1,0.91
2020-05-15 18:21:04.632 -0400,5461.154183625001,-0.271942138671875,0.8978424072265625,-0.3501129150390625,1,0.91
2020-05-15 18:21:04.751 -0400,5461.273913625,-0.2741241455078125,0.9056854248046875,-0.3513946533203125,1,0.91
2020-05-15 18:21:04.871 -0400,5461.393644625,-0.27691650390625,0.8989410400390625,-0.3492889404296875,1,0.91
2020-05-15 18:21:04.991 -0400,5461.513373625,-0.2711181640625,0.9059600830078125,-0.350250244140625,1,0.91
2020-05-15 18:21:05.111 -0400,5461.633098625,-0.2710418701171875,0.903228759765625,-0.3570404052734375,1,0.91
2020-05-15 18:21:05.231 -0400,5461.752820625,-0.271636962890625,0.8990936279296875,-0.3524169921875,1,0.91
2020-05-15 18:21:05.350 -0400,5461.87255125,-0.3155517578125,1.024551391601562,-0.309112548828125,1,0.91
2020-05-15 18:21:05.470 -0400,5461.99228025,-0.25115966796875,0.746185302734375,-0.408447265625,1,0.91
2020-05-15 18:21:05.590 -0400,5462.11200925,-0.3153076171875,0.896575927734375,-0.54986572265625,1,0.91
2020-05-15 18:21:05.709 -0400,5462.23173725,-0.262939453125,0.7666015625,-0.4257965087890625,1,0.91
2020-05-15 18:21:05.829 -0400,5462.351470250001,-0.2973785400390625,1.080978393554688,-0.5291595458984375,1,0.91
2020-05-15 18:21:05.949 -0400,5462.47120525,-0.230499267578125,0.9268035888671875,-0.4197540283203125,1,0.91
2020-05-15 18:21:06.069 -0400,5462.59094025,-0.29315185546875,0.845489501953125,-0.4259796142578125,1,0.91
2020-05-15 18:21:06.189 -0400,5462.71067425,-0.260955810546875,0.8746185302734375,-0.3707733154296875,1,0.91
2020-05-15 18:21:06.308 -0400,5462.830405250001,-0.2453765869140625,0.958587646484375,-0.3863983154296875,1,0.91
2020-05-15 18:21:06.428 -0400,5462.950142250001,-0.2570648193359375,0.8724212646484375,-0.3725738525390625,1,0.91
