loggingTime(txt),accelerometerTimestamp_sinceReboot(s),accelerometerAccelerationX(G),accelerometerAccelerationY(G),accelerometerAccelerationZ(G),batteryState,batteryLevel
2020-05-17 14:58:06.312 -0400,30464.150046375,0.3302764892578125,0.2297210693359375,-2.270965576171875,1,0.61
2020-05-17 14:58:06.352 -0400,30464.190026375,0.192718505859375,0.32891845703125,-2.033782958984375,1,0.61
2020-05-17 14:58:06.392 -0400,30464.230006375,-0.16925048828125,0.005157470703125,-1.316146850585938,1,0.61
2020-05-17 14:58:06.432 -0400,30464.269986375,-0.3563690185546875,0.0559844970703125,-0.729278564453125,1,0.61
2020-05-17 14:58:06.472 -0400,30464.309966375,-0.490570068359375,0.140411376953125,-0.263153076171875,1,0.61
2020-05-17 14:58:06.512 -0400,30464.349945375,-0.51739501953125,0.09552001953125,-0.0165557861328125,1,0.61
2020-05-17 14:58:06.552 -0400,30464.389925375,-0.507293701171875,-0.017578125,-0.1519775390625,1,0.61
2020-05-17 14:58:06.592 -0400,30464.429905375,-0.4765167236328125,0.102264404296875,-0.5271148681640625,1,0.61
2020-05-17 14:58:06.632 -0400,30464.469885375,-0.50555419921875,0.1901397705078125,-0.8909912109375,1,0.61
2020-05-17 14:58:06.684 -0400,30464.509865375,0.2342071533203125,0.08343505859375,-1.595428466796875,1,0.61
2020-05-17 14:58:06.712 -0400,30464.549844375,0.5366668701171875,0.2889404296875,-1.511489868164062,1,0.61
2020-05-17 14:58:06.752 -0400,30464.589824375,0.591064453125,0.7599639892578125,-1.644790649414062,1,0.61
2020-05-17 14:58:06.792 -0400,30464.629804375,0.4965362548828125,0.9056549072265625,-1.234878540039062,1,0.61
2020-05-17 14:58:06.832 -0400,30464.669784375,0.2163848876953125,0.3631744384765625,-0.415191650390625,1,0.61
2020-05-17 14:58:06.872 -0400,30464.709764375,0.13421630859375,-0.0919036865234375,0.091796875,1,0.61
2020-05-17 14:58:06.912 -0400,30464.749744375,0.081756591796875,-0.4866180419921875,0.059417724609375,1,0.61
2020-05-17 14:58:06.952 -0400,30464.789723375,0.3441925048828125,-0.3604736328125,-0.0062255859375,1,0.61
2020-05-17 14:58:06.992 -0400,30464.829703375,0.6927490234375,0.4206695556640625,-0.142486572265625,1,0.61
2020-05-17 14:58:07.032 -0400,30464.869683375,2.366943359375,2.359085083007812,-0.9550933837890625,1,0.61
2020-05-17 14:58:07.072 -0400,30464.90966475,3.245880126953125,2.314407348632812,-1.97845458984375,1,0.61
2020-05-17 14:58:07.112 -0400,30464.94964475,1.104461669921875,2.3011474609375,-1.353866577148438,1,0.61
2020-05-17 14:58:07.152 -0400,30464.98962375,-0.249908447265625,1.079360961914062,-0.819915771484375,1,0.61
2020-05-17 14:58:07.205 -0400,30465.02960375,-1.029739379882812,0.373291015625,-0.4189910888671875,1,0.61
2020-05-17 14:58:07.232 -0400,30465.06958375,-1.185531616210938,0.2032318115234375,-0.3448638916015625,1,0.61
2020-05-17 14:58:07.272 -0400,30465.10956375,-0.8036346435546875,-0.244171142578125,-0.1185150146484375,1,0.61
2020-05-17 14:58:07.312 -0400,30465.14954375,-0.4938201904296875,-0.1804046630859375,-0.1818084716796875,1,0.61
2020-05-17 14:58:07.352 -0400,30465.18952275,-0.3331298828125,0.31427001953125,-0.221466064453125,1,0.61
2020-05-17 14:58:07.392 -0400,30465.22950275,-0.277374267578125,1.589675903320312,-0.558837890625,1,0.61
2020-05-17 14:58:07.432 -0400,30465.26948275,0.2634735107421875,3.356002807617188,-1.097198486328125,1,0.61
2020-05-17 14:58:07.471 -0400,30465.30946275,1.162368774414062,2.622116088867188,-0.6717376708984375,1,0.61
2020-05-17 14:58:07.522 -0400,30465.34944275,0.6742095947265625,1.318038940429688,-0.2358856201171875,1,0.61
2020-05-17 14:58:07.552 -0400,30465.38942275,0.3946380615234375,0.54736328125,-0.1569061279296875,1,0.61
2020-05-17 14:58:07.592 -0400,30465.42940175,0.36212158203125,-0.50830078125,0.0728759765625,1,0.61
2020-05-17 14:58:07.632 -0400,30465.46938175,0.4441680908203125,-0.572845458984375,0.2248077392578125,1,0.61
2020-05-17 14:58:07.671 -0400,30465.50936175,0.44110107421875,-0.6015472412109375,0.3526763916015625,1,0.61
2020-05-17 14:58:07.711 -0400,30465.54934175,0.694549560546875,-0.21844482421875,0.233673095703125,1,0.61
2020-05-17 14:58:07.752 -0400,30465.58932175,1.001724243164062,-0.04327392578125,0.1996307373046875,1,0.61
2020-05-17 14:58:07.791 -0400,30465.62930075,2.3968505859375,2.339157104492188,-1.242919921875,1,0.61
2020-05-17 14:58:07.832 -0400,30465.66928075,3.219146728515625,3.0457763671875,-1.5189208984375,1,0.61
2020-05-17 14:58:07.872 -0400,30465.70926075,1.250625610351562,2.307479858398438,-1.090621948242188,1,0.61
2020-05-17 14:58:07.912 -0400,30465.74924075,0.1898651123046875,1.177505493164062,-0.6607818603515625,1,0.61
2020-05-17 14:58:07.952 -0400,30465.78922075,-0.5139007568359375,0.6122283935546875,-0.411102294921875,1,0.61
2020-05-17 14:58:07.992 -0400,30465.82920075,-0.9175872802734375,0.1909332275390625,-0.4297943115234375,1,0.61
2020-05-17 14:58:08.032 -0400,30465.86917975,-0.8153076171875,-0.0516510009765625,-0.2879791259765625,1,0.61
2020-05-17 14:58:08.072 -0400,30465.909159375,-0.5320281982421875,-0.080718994140625,-0.070159912109375,1,0.61
2020-05-17 14:58:08.112 -0400,30465.949139375,-0.38262939453125,0.067352294921875,-0.08038330078125,1,0.61
2020-05-17 14:58:08.155 -0400,30465.989119375,-0.208953857421875,0.8903656005859375,-0.0641937255859375,1,0.61
2020-05-17 14:58:08.192 -0400,30466.029099375,0.1598968505859375,3.19757080078125,-0.2213897705078125,1,0.61
2020-05-17 14:58:08.232 -0400,30466.069079375,1.877975463867188,3.701522827148438,0.0677032470703125,1,0.61
2020-05-17 14:58:08.271 -0400,30466.109058375,0.888031005859375,1.594955444335938,-0.0342864990234375,1,0.61
2020-05-17 14:58:08.311 -0400,30466.149038375,0.5737762451171875,0.8150177001953125,-0.0994720458984375,1,0.61
2020-05-17 14:58:08.351 -0400,30466.189018375,0.3106536865234375,0.0810546875,-0.116424560546875,1,0.61
2020-05-17 14:58:08.391 -0400,30466.228998375,0.2995147705078125,-0.8144378662109375,0.03564453125,1,0.61
2020-05-17 14:58:08.431 -0400,30466.268978375,0.30059814453125,-0.772979736328125,0.1035919189453125,1,0.61
2020-05-17 14:58:08.471 -0400,30466.308957375,0.4542083740234375,-0.6605682373046875,0.029144287109375,1,0.61
2020-05-17 14:58:08.511 -0400,30466.348937375,0.83233642578125,-0.297515869140625,0.0694427490234375,1,0.61
2020-05-17 14:58:08.551 -0400,30466.388917375,1.654434204101562,0.84405517578125,0.0482940673828125,1,0.61
2020-05-17 14:58:08.606 -0400,30466.428897375,4.049911499023438,3.8843994140625,-0.486053466796875,1,0.61
2020-05-17 14:58:08.632 -0400,30466.468877375,1.750244140625,2.912368774414062,-0.838165283203125,1,0.61
2020-05-17 14:58:08.713 -0400,30466.508857375,0.2045440673828125,1.663497924804688,-0.6342926025390625,1,0.61
2020-05-17 14:58:08.714 -0400,30466.548836375,-0.60565185546875,0.797576904296875,-0.4392852783203125,1,0.61
2020-05-17 14:58:08.751 -0400,30466.588816375,-1.038375854492188,0.2955474853515625,-0.4923095703125,1,0.61
2020-05-17 14:58:08.791 -0400,30466.628796375,-0.8518829345703125,0.12347412109375,-0.2413330078125,1,0.61
2020-05-17 14:58:08.831 -0400,30466.668776375,-0.5616455078125,-0.01873779296875,-0.127838134765625,1,0.61
2020-05-17 14:58:08.871 -0400,30466.708756375,-0.368408203125,0.155029296875,-0.0687103271484375,1,0.61
2020-05-17 14:58:08.925 -0400,30466.748736375,-0.1774444580078125,0.944244384765625,0.0591278076171875,1,0.61
2020-05-17 14:58:08.951 -0400,30466.788715375,0.4634552001953125,3.367218017578125,0.16448974609375,1,0.61
2020-05-17 14:58:08.991 -0400,30466.828695375,1.896728515625,3.3682861328125,0.2798919677734375,1,0.61
2020-05-17 14:58:09.031 -0400,30466.868675375,0.93841552734375,1.546829223632812,-0.1339111328125,1,0.61
2020-05-17 14:58:09.071 -0400,30466.90865525,0.4489593505859375,0.5442047119140625,-0.0439910888671875,1,0.61
2020-05-17 14:58:09.111 -0400,30466.94863525,0.3101959228515625,-0.2486572265625,-0.1058197021484375,1,0.61
2020-05-17 14:58:09.151 -0400,30466.98861525,0.45562744140625,-0.62066650390625,-0.130828857421875,1,0.61
2020-05-17 14:58:09.191 -0400,30467.02859425,0.44927978515625,-0.8629150390625,0.032958984375,1,0.61
2020-05-17 14:58:09.231 -0400,30467.06857425,0.501953125,-0.5577392578125,0.039886474609375,1,0.61
2020-05-17 14:58:09.276 -0400,30467.10855425,0.93017578125,-0.0849151611328125,-0.030029296875,1,0.61
2020-05-17 14:58:09.311 -0400,30467.14853425,2.2672119140625,2.024658203125,-0.2280731201171875,1,0.61
2020-05-17 14:58:09.351 -0400,30467.18851425,3.471939086914062,3.921157836914062,-0.9693603515625,1,0.61
2020-05-17 14:58:09.391 -0400,30467.22849325,1.333145141601562,2.42059326171875,-0.878173828125,1,0.61
2020-05-17 14:58:09.431 -0400,30467.26847325,0.2620086669921875,1.311080932617188,-0.3634490966796875,1,0.61
2020-05-17 14:58:09.471 -0400,30467.30845325,-0.545440673828125,0.3921051025390625,-0.3253326416015625,1,0.61
2020-05-17 14:58:09.511 -0400,30467.34843325,-0.93304443359375,0.160736083984375,-0.426910400390625,1,0.61
2020-05-17 14:58:09.551 -0400,30467.38841325,-0.8332061767578125,-0.00750732421875,-0.1938934326171875,1,0.61
2020-05-17 14:58:09.591 -0400,30467.42839325,-0.6600494384765625,-0.1141815185546875,-0.0341644287109375,1,0.61
2020-05-17 14:58:09.631 -0400,30467.46837225,-0.4767608642578125,0.102508544921875,-0.08502197265625,1,0.61
2020-05-17 14:58:09.671 -0400,30467.50835225,-0.363861083984375,0.6328887939453125,0.0196990966796875,1,0.61
2020-05-17 14:58:09.711 -0400,30467.54833225,-0.3058929443359375,2.47357177734375,-0.024200439453125,1,0.61
2020-05-17 14:58:09.750 -0400,30467.58831225,1.93206787109375,3.968612670898438,0.502899169921875,1,0.61
2020-05-17 14:58:09.791 -0400,30467.62829225,0.7370758056640625,1.9615478515625,-0.4418792724609375,1,0.61
2020-05-17 14:58:09.831 -0400,30467.66827225,0.541259765625,0.8994903564453125,-0.0489654541015625,1,0.61
2020-05-17 14:58:09.871 -0400,30467.70825125,0.37274169921875,-0.1858978271484375,-0.1779022216796875,1,0.61
2020-05-17 14:58:09.911 -0400,30467.74823125,0.3629608154296875,-0.6538848876953125,0.026885986328125,1,0.61
2020-05-17 14:58:09.952 -0400,30467.78821125,0.3800811767578125,-0.89300537109375,0.1317291259765625,1,0.61
2020-05-17 14:58:09.991 -0400,30467.82819125,0.401275634765625,-0.559295654296875,0.0044097900390625,1,0.61
2020-05-17 14:58:10.031 -0400,30467.86817125,0.819305419921875,-0.3131103515625,0.2288055419921875,1,0.61
2020-05-17 14:58:10.071 -0400,30467.90815141667,1.550323486328125,0.793060302734375,-0.2738800048828125,1,0.61
2020-05-17 14:58:10.111 -0400,30467.94813041667,3.736434936523438,2.80755615234375,-0.6840667724609375,1,0.61
2020-05-17 14:58:10.151 -0400,30467.98811041667,2.175888061523438,3.39459228515625,-0.8519744873046875,1,0.61
2020-05-17 14:58:10.190 -0400,30468.02809041667,0.3704071044921875,1.790512084960938,-0.5521392822265625,1,0.61
2020-05-17 14:58:10.231 -0400,30468.06807041667,-0.431488037109375,0.9325714111328125,-0.3177032470703125,1,0.61
2020-05-17 14:58:10.272 -0400,30468.10805041667,-0.8672027587890625,0.59429931640625,-0.3918609619140625,1,0.61
2020-05-17 14:58:10.310 -0400,30468.14803041667,-0.79302978515625,0.181976318359375,-0.25738525390625,1,0.61
2020-05-17 14:58:10.350 -0400,30468.18800941667,-0.50482177734375,0.028564453125,-0.1865692138671875,1,0.61
2020-05-17 14:58:10.390 -0400,30468.22798941667,-0.2958221435546875,0.0311737060546875,-0.1633148193359375,1,0.61
2020-05-17 14:58:10.430 -0400,30468.26796941667,-0.22906494140625,0.19879150390625,-0.0001678466796875,1,0.61
2020-05-17 14:58:10.470 -0400,30468.30794941667,-0.2787322998046875,1.673538208007812,0.0799407958984375,1,0.61
2020-05-17 14:58:10.510 -0400,30468.34792941667,1.192520141601562,4.404541015625,0.007904052734375,1,0.61
2020-05-17 14:58:10.550 -0400,30468.38790941667,1.002227783203125,2.642929077148438,-0.1449127197265625,1,0.61
2020-05-17 14:58:10.590 -0400,30468.42788841667,0.6756134033203125,1.130203247070312,-0.05804443359375,1,0.61
2020-05-17 14:58:10.630 -0400,30468.46786841667,0.2505645751953125,0.0963287353515625,-0.29443359375,1,0.61
2020-05-17 14:58:10.670 -0400,30468.50784841667,0.25555419921875,-0.7581939697265625,-0.079345703125,1,0.61
2020-05-17 14:58:10.710 -0400,30468.54782841667,0.3282012939453125,-0.9017791748046875,0.178009033203125,1,0.61
2020-05-17 14:58:10.750 -0400,30468.58780841667,0.372772216796875,-0.6890716552734375,0.1126556396484375,1,0.61
2020-05-17 14:58:10.790 -0400,30468.62778841667,0.7784423828125,-0.3065643310546875,0.09814453125,1,0.61
2020-05-17 14:58:10.830 -0400,30468.66776741667,1.251876831054688,0.1317291259765625,-0.065399169921875,1,0.61
2020-05-17 14:58:10.870 -0400,30468.70774741667,4.167556762695312,3.860504150390625,-0.225341796875,1,0.61
2020-05-17 14:58:10.910 -0400,30468.74772741667,2.561386108398438,3.75311279296875,-1.038665771484375,1,0.61
2020-05-17 14:58:10.950 -0400,30468.78770741667,0.63958740234375,1.844146728515625,-0.5499725341796875,1,0.61
2020-05-17 14:58:10.991 -0400,30468.82768741667,-0.2667236328125,0.8104705810546875,-0.33929443359375,1,0.61
2020-05-17 14:58:11.030 -0400,30468.86766741667,-0.8915863037109375,0.3252410888671875,-0.3927764892578125,1,0.61
2020-05-17 14:58:11.070 -0400,30468.90764675,-0.9348297119140625,0.1051483154296875,-0.2689056396484375,1,0.61
2020-05-17 14:58:11.110 -0400,30468.94762675,-0.686737060546875,-0.062652587890625,-0.0404205322265625,1,0.61
2020-05-17 14:58:11.150 -0400,30468.98760675,-0.5079803466796875,-0.0133819580078125,-0.071533203125,1,0.61
2020-05-17 14:58:11.190 -0400,30469.02758675,-0.29119873046875,0.19140625,-0.005584716796875,1,0.61
2020-05-17 14:58:11.230 -0400,30469.06756675,-0.3555908203125,1.041671752929688,0.2257232666015625,1,0.61
2020-05-17 14:58:11.270 -0400,30469.10754575,0.6885833740234375,5.222885131835938,0.55926513671875,1,0.61
2020-05-17 14:58:11.310 -0400,30469.14752575,1.500137329101562,3.157440185546875,0.4004669189453125,1,0.61
2020-05-17 14:58:11.350 -0400,30469.18750575,0.8916168212890625,1.421142578125,0.0287017822265625,1,0.61
2020-05-17 14:58:11.390 -0400,30469.22748575,0.417572021484375,0.0335693359375,-0.2055816650390625,1,0.61
2020-05-17 14:58:11.430 -0400,30469.26746575,0.4867706298828125,-0.638702392578125,-0.2523040771484375,1,0.61
2020-05-17 14:58:11.470 -0400,30469.30744575,0.3810577392578125,-0.8982086181640625,-0.1069183349609375,1,0.61
2020-05-17 14:58:11.510 -0400,30469.34742475,0.396514892578125,-0.8034820556640625,0.1744537353515625,1,0.61
2020-05-17 14:58:11.550 -0400,30469.38740475,0.6339874267578125,-0.3529510498046875,0.0229644775390625,1,0.61
2020-05-17 14:58:11.590 -0400,30469.42738475,1.006683349609375,0.149627685546875,-0.187164306640625,1,0.61
2020-05-17 14:58:11.630 -0400,30469.46736475,3.139404296875,2.84661865234375,-0.2611236572265625,1,0.61
2020-05-17 14:58:11.670 -0400,30469.50734475,3.074020385742188,3.461654663085938,-0.702117919921875,1,0.61
2020-05-17 14:58:11.710 -0400,30469.54732475,1.020401000976562,2.1761474609375,-0.6299896240234375,1,0.61
2020-05-17 14:58:11.750 -0400,30469.58730375,0.006439208984375,1.249053955078125,-0.3070526123046875,1,0.61
2020-05-17 14:58:11.790 -0400,30469.62728375,-0.7344207763671875,0.4786376953125,-0.24261474609375,1,0.61
2020-05-17 14:58:11.829 -0400,30469.66726375,-0.9713897705078125,0.112274169921875,-0.1846771240234375,1,0.61
2020-05-17 14:58:11.869 -0400,30469.70724375,-0.7322998046875,-0.0172119140625,-0.044525146484375,1,0.61
2020-05-17 14:58:11.910 -0400,30469.74722375,-0.5112457275390625,0.0329132080078125,-0.074676513671875,1,0.61
2020-05-17 14:58:11.950 -0400,30469.78720275,-0.344879150390625,0.069915771484375,0.05364990234375,1,0.61
2020-05-17 14:58:11.990 -0400,30469.82718275,-0.23284912109375,0.9997100830078125,0.2498321533203125,1,0.61
2020-05-17 14:58:12.029 -0400,30469.86716275,0.4632720947265625,4.305267333984375,0.1615142822265625,1,0.61
2020-05-17 14:58:12.070 -0400,30469.90714229167,1.657562255859375,3.248580932617188,0.4740753173828125,1,0.61
2020-05-17 14:58:12.109 -0400,30469.94712229167,0.8097381591796875,1.633834838867188,-0.160552978515625,1,0.61
2020-05-17 14:58:12.149 -0400,30469.98710229167,0.3707275390625,0.482757568359375,-0.16033935546875,1,0.61
2020-05-17 14:58:12.189 -0400,30470.02708129167,0.3470458984375,-0.49395751953125,-0.2186279296875,1,0.61
2020-05-17 14:58:12.229 -0400,30470.06706129167,0.3484954833984375,-0.727386474609375,-0.03155517578125,1,0.61
2020-05-17 14:58:12.269 -0400,30470.10704129167,0.3927459716796875,-0.87615966796875,0.0571136474609375,1,0.61
2020-05-17 14:58:12.309 -0400,30470.14702129167,0.481597900390625,-0.4219970703125,-0.0324859619140625,1,0.61
2020-05-17 14:58:12.350 -0400,30470.18700129167,0.8248291015625,-0.2157745361328125,0.1466522216796875,1,0.61
2020-05-17 14:58:12.390 -0400,30470.22698029167,1.810348510742188,1.994277954101562,-0.291015625,1,0.61
2020-05-17 14:58:12.430 -0400,30470.26696029167,3.469253540039062,4.387359619140625,-0.8741455078125,1,0.61
2020-05-17 14:58:12.469 -0400,30470.30694029167,1.470840454101562,2.539901733398438,-0.7116546630859375,1,0.61
2020-05-17 14:58:12.509 -0400,30470.34692029167,0.1956634521484375,1.496978759765625,-0.5359649658203125,1,0.61
2020-05-17 14:58:12.549 -0400,30470.38690029167,-0.53485107421875,0.3645782470703125,-0.3713531494140625,1,0.61
2020-05-17 14:58:12.591 -0400,30470.42688029167,-1.079147338867188,0.1024169921875,-0.3262786865234375,1,0.61
2020-05-17 14:58:12.637 -0400,30470.46685929167,-0.8792572021484375,-0.124847412109375,-0.107879638671875,1,0.61
2020-05-17 14:58:37.298 -0400,30495.13418079167,0.31475830078125,-0.3173370361328125,-0.2028656005859375,1,0.61
2020-05-17 14:58:37.336 -0400,30495.17415979167,0.5140380859375,0.02825927734375,-0.66583251953125,1,0.61
2020-05-17 14:58:37.377 -0400,30495.21413879167,0.4589691162109375,0.287139892578125,-1.30511474609375,1,0.61
2020-05-17 14:58:37.417 -0400,30495.25411879167,0.5212554931640625,0.237396240234375,-2.195022583007812,1,0.61
2020-05-17 14:58:37.456 -0400,30495.29409779167,0.358001708984375,0.3405914306640625,-2.033721923828125,1,0.61
2020-05-17 14:58:37.497 -0400,30495.33407679167,-0.2637786865234375,0.1921234130859375,-1.344757080078125,1,0.61
2020-05-17 14:58:37.536 -0400,30495.37405579167,-0.4193115234375,0.1721038818359375,-0.8400421142578125,1,0.61
2020-05-17 14:58:37.576 -0400,30495.41403479167,-0.5608673095703125,0.07781982421875,-0.41229248046875,1,0.61
2020-05-17 14:58:37.616 -0400,30495.45401379167,-0.7172088623046875,0.0745697021484375,-0.1650848388671875,1,0.61
2020-05-17 14:58:37.656 -0400,30495.49399379167,-0.63958740234375,0.057281494140625,-0.3623809814453125,1,0.61
2020-05-17 14:58:37.696 -0400,30495.53397279167,-0.4411773681640625,0.0643310546875,-0.6514739990234375,1,0.61
2020-05-17 14:58:37.736 -0400,30495.57395179167,-0.73046875,0.1670379638671875,-1.10516357421875,1,0.61
2020-05-17 14:58:37.791 -0400,30495.61393079167,-0.34454345703125,0.1042938232421875,-1.851242065429688,1,0.61
2020-05-17 14:58:37.816 -0400,30495.65390979167,-0.1005096435546875,0.1240997314453125,-1.746124267578125,1,0.61
2020-05-17 14:58:37.856 -0400,30495.69388879167,0.028411865234375,-0.0228271484375,-1.464950561523438,1,0.61
2020-05-17 14:58:37.896 -0400,30495.73386879167,0.1850738525390625,-0.0778656005859375,-1.047378540039062,1,0.61
2020-05-17 14:58:37.936 -0400,30495.77384779167,0.2566680908203125,-0.07525634765625,-0.704376220703125,1,0.61
2020-05-17 14:58:37.976 -0400,30495.81382679167,0.265472412109375,-0.0762176513671875,-0.38519287109375,1,0.61
2020-05-17 14:58:38.016 -0400,30495.85380579167,0.262786865234375,-0.113433837890625,-0.2450714111328125,1,0.61
2020-05-17 14:58:38.056 -0400,30495.89378479167,0.2722930908203125,-0.0505523681640625,-0.32330322265625,1,0.61
2020-05-17 14:58:38.096 -0400,30495.93376316667,0.2670745849609375,-0.130279541015625,-0.845062255859375,1,0.61
2020-05-17 14:58:38.136 -0400,30495.97374316667,0.3086090087890625,0.061187744140625,-1.688140869140625,1,0.61
2020-05-17 14:58:38.176 -0400,30496.01372216667,0.187835693359375,0.4382171630859375,-2.2579345703125,1,0.61
2020-05-17 14:58:38.216 -0400,30496.05370116667,-0.088836669921875,0.20379638671875,-1.87115478515625,1,0.61
2020-05-17 14:58:38.256 -0400,30496.09368016667,-0.3277740478515625,-0.069122314453125,-1.273834228515625,1,0.61
2020-05-17 14:58:38.303 -0400,30496.13365916667,-0.596893310546875,0.0250396728515625,-0.731536865234375,1,0.61
2020-05-17 14:58:38.336 -0400,30496.17363816667,-0.65380859375,-0.0553741455078125,-0.30157470703125,1,0.61
2020-05-17 14:58:38.376 -0400,30496.21361816667,-0.583526611328125,-0.0997772216796875,-0.1000823974609375,1,0.61
2020-05-17 14:58:38.416 -0400,30496.25359716667,-0.5355377197265625,-0.0296478271484375,-0.083465576171875,1,0.61
2020-05-17 14:58:38.456 -0400,30496.29357616667,-0.382843017578125,0.089080810546875,-0.4237518310546875,1,0.61
2020-05-17 14:58:38.496 -0400,30496.33355516667,-0.5452880859375,0.5690765380859375,-0.8005828857421875,1,0.61
2020-05-17 14:58:38.536 -0400,30496.37353416667,-0.42230224609375,1.060867309570312,-1.495468139648438,1,0.61
2020-05-17 14:58:38.576 -0400,30496.41351316667,0.064697265625,1.228530883789062,-1.6004638671875,1,0.61
2020-05-17 14:58:38.616 -0400,30496.45349316667,0.347442626953125,0.9925537109375,-1.143600463867188,1,0.61
2020-05-17 14:58:38.656 -0400,30496.49347216667,0.53680419921875,0.6229248046875,-0.786041259765625,1,0.61
2020-05-17 14:58:38.696 -0400,30496.53345116667,0.6796417236328125,-0.0284881591796875,-0.2382049560546875,1,0.61
2020-05-17 14:58:38.736 -0400,30496.57343016667,0.7523193359375,-0.679412841796875,0.027069091796875,1,0.61
2020-05-17 14:58:38.776 -0400,30496.61340916667,0.4906463623046875,-0.411895751953125,0.0445404052734375,1,0.61
2020-05-17 14:58:38.816 -0400,30496.65338816667,0.72442626953125,-0.224884033203125,0.082122802734375,1,0.61
2020-05-17 14:58:38.856 -0400,30496.69336716667,1.119308471679688,0.037200927734375,0.016876220703125,1,0.61
2020-05-17 14:58:38.896 -0400,30496.73334716667,3.477401733398438,2.648361206054688,-1.469009399414062,1,0.61
2020-05-17 14:58:38.936 -0400,30496.77332616667,3.187911987304688,2.49652099609375,-1.491592407226562,1,0.61
2020-05-17 14:58:38.976 -0400,30496.81330516667,1.070953369140625,2.076370239257812,-1.177841186523438,1,0.61
2020-05-17 14:58:39.016 -0400,30496.85328416667,-0.18304443359375,1.19158935546875,-0.79443359375,1,0.61
2020-05-17 14:58:39.056 -0400,30496.89326316667,-0.9196014404296875,0.3306732177734375,-0.6435699462890625,1,0.61
2020-05-17 14:58:39.096 -0400,30496.933242875,-0.951507568359375,0.031951904296875,-0.36151123046875,1,0.61
2020-05-17 14:58:39.136 -0400,30496.973222875,-0.60845947265625,-0.10015869140625,-0.1620025634765625,1,0.61
2020-05-17 14:58:39.176 -0400,30497.013201875,-0.2644195556640625,0.008941650390625,-0.1701202392578125,1,0.61
2020-05-17 14:58:39.216 -0400,30497.053180875,-0.08172607421875,0.5108642578125,-0.249725341796875,1,0.61
2020-05-17 14:58:39.256 -0400,30497.093159875,0.0534820556640625,1.742568969726562,-0.290069580078125,1,0.61
2020-05-17 14:58:39.304 -0400,30497.133138875,0.559906005859375,3.482086181640625,-0.4827117919921875,1,0.61
2020-05-17 14:58:39.335 -0400,30497.173117875,0.8786163330078125,2.151153564453125,-0.3250885009765625,1,0.61
2020-05-17 14:58:39.375 -0400,30497.213096875,0.4989013671875,1.205490112304688,-0.0369720458984375,1,0.61
2020-05-17 14:58:39.415 -0400,30497.253076875,0.3241729736328125,0.3502197265625,-0.1225738525390625,1,0.61
2020-05-17 14:58:39.455 -0400,30497.293055875,0.394134521484375,-0.410675048828125,0.123382568359375,1,0.61
2020-05-17 14:58:39.495 -0400,30497.333034875,0.3642425537109375,-0.505157470703125,0.0214691162109375,1,0.61
2020-05-17 14:58:39.535 -0400,30497.373013875,0.4662628173828125,-0.4851837158203125,0.0751495361328125,1,0.61
2020-05-17 14:58:39.575 -0400,30497.412992875,0.674774169921875,-0.2932891845703125,0.2019500732421875,1,0.61
2020-05-17 14:58:39.615 -0400,30497.452971875,0.9792327880859375,-0.0250701904296875,0.0432281494140625,1,0.61
2020-05-17 14:58:39.655 -0400,30497.492951875,3.19354248046875,3.356414794921875,-0.70452880859375,1,0.61
2020-05-17 14:58:39.695 -0400,30497.532930875,3.089767456054688,3.848968505859375,-0.78497314453125,1,0.61
2020-05-17 14:58:39.735 -0400,30497.572909875,0.993743896484375,2.238327026367188,-0.8318634033203125,1,0.61
2020-05-17 14:58:39.775 -0400,30497.612888875,0.0396575927734375,0.9168548583984375,-0.3197784423828125,1,0.61
2020-05-17 14:58:39.815 -0400,30497.652867875,-0.815673828125,0.25799560546875,-0.3936004638671875,1,0.61
2020-05-17 14:58:39.855 -0400,30497.692846875,-0.845489501953125,0.054443359375,-0.3975830078125,1,0.61
2020-05-17 14:58:39.895 -0400,30497.732825875,-0.6388092041015625,-0.1960906982421875,-0.0607452392578125,1,0.61
2020-05-17 14:58:39.935 -0400,30497.772805875,-0.516204833984375,-0.195556640625,-0.0191497802734375,1,0.61
2020-05-17 14:58:39.975 -0400,30497.812784875,-0.3970794677734375,-0.1375579833984375,0.0308380126953125,1,0.61
2020-05-17 14:58:40.015 -0400,30497.852763875,-0.5194549560546875,0.7149810791015625,0.08135986328125,1,0.61
2020-05-17 14:58:40.055 -0400,30497.892742875,-0.599884033203125,3.901412963867188,0.012542724609375,1,0.61
2020-05-17 14:58:40.095 -0400,30497.932722,1.446075439453125,3.647415161132812,0.2593231201171875,1,0.61
2020-05-17 14:58:40.135 -0400,30497.972701,0.6360321044921875,1.735443115234375,-0.27728271484375,1,0.61
2020-05-17 14:58:40.175 -0400,30498.01268,0.3296356201171875,0.6746673583984375,-0.10638427734375,1,0.61
2020-05-17 14:58:40.215 -0400,30498.05266,0.410980224609375,-0.4227447509765625,-0.1764068603515625,1,0.61
2020-05-17 14:58:40.288 -0400,30498.092639,0.433624267578125,-0.700286865234375,-0.13311767578125,1,0.61
2020-05-17 14:58:40.297 -0400,30498.132618,0.4512939453125,-1.001739501953125,0.080230712890625,1,0.61
2020-05-17 14:58:40.350 -0400,30498.172597,0.6478729248046875,-0.5226287841796875,-0.1340789794921875,1,0.61
2020-05-17 14:58:40.398 -0400,30498.212576,0.9520263671875,-0.0724029541015625,-0.0002899169921875,1,0.61
2020-05-17 14:58:40.415 -0400,30498.252555,2.428298950195312,2.400253295898438,-0.533721923828125,1,0.61
2020-05-17 14:58:40.455 -0400,30498.292535,3.597579956054688,4.205352783203125,-1.287429809570312,1,0.61
2020-05-17 14:58:40.495 -0400,30498.332514,1.002944946289062,2.513595581054688,-0.8193359375,1,0.61
2020-05-17 14:58:40.535 -0400,30498.372493,-0.110443115234375,1.44696044921875,-0.392181396484375,1,0.61
2020-05-17 14:58:40.575 -0400,30498.412472,-0.752716064453125,0.442596435546875,-0.3086700439453125,1,0.61
2020-05-17 14:58:40.615 -0400,30498.452451,-1.161712646484375,0.1641693115234375,-0.2915191650390625,1,0.61
2020-05-17 14:58:40.655 -0400,30498.49243,-0.976776123046875,-0.0370941162109375,-0.0614166259765625,1,0.61
2020-05-17 14:58:40.695 -0400,30498.532409,-0.7058868408203125,-0.0575714111328125,-0.0740203857421875,1,0.61
2020-05-17 14:58:40.735 -0400,30498.572389,-0.459503173828125,0.171478271484375,-0.036956787109375,1,0.61
2020-05-17 14:58:40.775 -0400,30498.612368,-0.3726806640625,1.183273315429688,0.1754302978515625,1,0.61
2020-05-17 14:58:40.815 -0400,30498.652347,-0.3136749267578125,4.148605346679688,0.7303924560546875,1,0.61
2020-05-17 14:58:40.855 -0400,30498.692326,1.286483764648438,3.404388427734375,0.4314422607421875,1,0.61
2020-05-17 14:58:40.895 -0400,30498.732305,0.638671875,1.5128173828125,-0.0063323974609375,1,0.61
2020-05-17 14:58:40.935 -0400,30498.772284,0.3879241943359375,0.6118621826171875,-0.0925445556640625,1,0.61
2020-05-17 14:58:40.975 -0400,30498.812263,0.504974365234375,-0.20965576171875,-0.3470916748046875,1,0.61
2020-05-17 14:58:41.015 -0400,30498.852243,0.5711822509765625,-0.7514495849609375,-0.10858154296875,1,0.61
2020-05-17 14:58:41.055 -0400,30498.892222,0.5688629150390625,-1.017288208007812,0.164581298828125,1,0.61
2020-05-17 14:58:41.095 -0400,30498.932201,0.65069580078125,-0.511810302734375,0.008148193359375,1,0.61
2020-05-17 14:58:41.135 -0400,30498.97217891667,0.9272308349609375,-0.0699310302734375,-0.087554931640625,1,0.61
2020-05-17 14:58:41.174 -0400,30499.01215791667,2.988449096679688,4.146041870117188,-0.82110595703125,1,0.61
2020-05-17 14:58:41.215 -0400,30499.05213691667,2.682205200195312,4.484954833984375,-1.174819946289062,1,0.61
2020-05-17 14:58:41.255 -0400,30499.09211591667,0.4778900146484375,2.088882446289062,-0.7506103515625,1,0.61
2020-05-17 14:58:41.294 -0400,30499.13209591667,-0.2034454345703125,0.8730010986328125,-0.48187255859375,1,0.61
2020-05-17 14:58:41.335 -0400,30499.17207491667,-0.81378173828125,0.280670166015625,-0.49432373046875,1,0.61
2020-05-17 14:58:41.375 -0400,30499.21205391667,-0.8807373046875,-0.00885009765625,-0.3321075439453125,1,0.61
2020-05-17 14:58:41.415 -0400,30499.25203291667,-0.704345703125,-0.230377197265625,0.0396575927734375,1,0.61
2020-05-17 14:58:41.455 -0400,30499.29201191667,-0.5995941162109375,-0.1563568115234375,-0.0301971435546875,1,0.61
2020-05-17 14:58:41.494 -0400,30499.33199091667,-0.4234161376953125,-0.0731353759765625,0.0137786865234375,1,0.61
2020-05-17 14:58:41.534 -0400,30499.37196991667,-0.6256561279296875,1.154739379882812,0.2230224609375,1,0.61
2020-05-17 14:58:41.574 -0400,30499.41194991667,-0.3267974853515625,4.726608276367188,0.433441162109375,1,0.61
2020-05-17 14:58:41.614 -0400,30499.45192891667,1.068588256835938,3.075637817382812,0.4494476318359375,1,0.61
2020-05-17 14:58:41.654 -0400,30499.49190791667,0.5111236572265625,1.7529296875,-0.013427734375,1,0.61
2020-05-17 14:58:41.694 -0400,30499.53188691667,0.316986083984375,0.5852203369140625,-0.106109619140625,1,0.61
2020-05-17 14:58:41.734 -0400,30499.57186591667,0.5157012939453125,-0.4717864990234375,-0.3270263671875,1,0.61
2020-05-17 14:58:41.774 -0400,30499.61184491667,0.57373046875,-0.7314453125,-0.171173095703125,1,0.61
2020-05-17 14:58:41.814 -0400,30499.65182391667,0.5665130615234375,-1.080673217773438,0.1463165283203125,1,0.61
2020-05-17 14:58:41.854 -0400,30499.69180391667,0.64825439453125,-0.48931884765625,-0.003570556640625,1,0.61
2020-05-17 14:58:41.894 -0400,30499.73178291667,0.97406005859375,0.15606689453125,-0.2670440673828125,1,0.61
2020-05-17 14:58:41.934 -0400,30499.77176191667,3.154678344726562,3.071731567382812,-0.9275970458984375,1,0.61
2020-05-17 14:58:41.974 -0400,30499.81174091667,3.024383544921875,4.1844482421875,-0.792266845703125,1,0.61
2020-05-17 14:58:42.014 -0400,30499.85171991667,0.56451416015625,2.338333129882812,-0.7183380126953125,1,0.61
2020-05-17 14:58:42.054 -0400,30499.89169891667,-0.38446044921875,1.002685546875,-0.3646240234375,1,0.61
2020-05-17 14:58:42.094 -0400,30499.93167791667,-1.066741943359375,0.3109588623046875,-0.54248046875,1,0.61
2020-05-17 14:58:42.134 -0400,30499.971657125,-1.0037841796875,-0.0020904541015625,-0.209747314453125,1,0.61
2020-05-17 14:58:42.174 -0400,30500.011637125,-0.6812896728515625,-0.1894683837890625,-0.113983154296875,1,0.61
2020-05-17 14:58:42.214 -0400,30500.051616125,-0.459442138671875,-0.1164398193359375,-0.155548095703125,1,0.61
2020-05-17 14:58:42.254 -0400,30500.091595125,-0.3784637451171875,0.037872314453125,0.064208984375,1,0.61
2020-05-17 14:58:42.294 -0400,30500.131574125,-0.651092529296875,1.986190795898438,0.1626434326171875,1,0.61
2020-05-17 14:58:42.334 -0400,30500.171553125,1.427947998046875,4.031982421875,0.4959259033203125,1,0.61
2020-05-17 14:58:42.374 -0400,30500.211532125,0.957000732421875,2.418121337890625,-0.1648101806640625,1,0.61
2020-05-17 14:58:42.414 -0400,30500.251511125,0.61663818359375,1.119049072265625,0.0557708740234375,1,0.61
2020-05-17 14:58:42.454 -0400,30500.291491125,0.3629302978515625,0.1682891845703125,-0.187896728515625,1,0.61
2020-05-17 14:58:42.494 -0400,30500.331470125,0.43670654296875,-0.7536468505859375,-0.168853759765625,1,0.61
2020-05-17 14:58:42.534 -0400,30500.371449125,0.4361572265625,-0.8382110595703125,0.1018218994140625,1,0.61
2020-05-17 14:58:42.574 -0400,30500.411428125,0.4784088134765625,-0.63824462890625,-0.031097412109375,1,0.61
2020-05-17 14:58:42.614 -0400,30500.451407125,0.835418701171875,-0.22467041015625,-0.18731689453125,1,0.61
2020-05-17 14:58:42.654 -0400,30500.491386125,1.515182495117188,0.900787353515625,-0.2172088623046875,1,0.61
2020-05-17 14:58:42.694 -0400,30500.531365125,3.375274658203125,3.736343383789062,-0.9194793701171875,1,0.61
2020-05-17 14:58:42.734 -0400,30500.571344125,1.515655517578125,2.866363525390625,-0.70074462890625,1,0.61
2020-05-17 14:58:42.774 -0400,30500.611324125,0.2257232666015625,1.808609008789062,-0.6780242919921875,1,0.61
2020-05-17 14:58:42.814 -0400,30500.651303125,-0.5001220703125,0.614898681640625,-0.4080352783203125,1,0.61
2020-05-17 14:58:42.854 -0400,30500.691282125,-0.950439453125,0.1280364990234375,-0.2655792236328125,1,0.61
2020-05-17 14:58:42.894 -0400,30500.731261125,-0.8566131591796875,-0.07598876953125,-0.1876983642578125,1,0.61
2020-05-17 14:58:42.934 -0400,30500.771240125,-0.6922454833984375,-0.111968994140625,-0.1017303466796875,1,0.61
2020-05-17 14:58:42.974 -0400,30500.811219125,-0.4521942138671875,0.0360565185546875,-0.0815277099609375,1,0.61
2020-05-17 14:58:43.013 -0400,30500.851198125,-0.3004913330078125,1.184921264648438,0.0467681884765625,1,0.61
2020-05-17 14:58:43.054 -0400,30500.891177125,0.3840179443359375,3.636703491210938,-0.1931610107421875,1,0.61
2020-05-17 14:58:43.095 -0400,30500.931157125,1.036956787109375,3.378097534179688,0.1518707275390625,1,0.61
2020-05-17 14:58:43.133 -0400,30500.9711355,0.66802978515625,1.607757568359375,-0.0578765869140625,1,0.61
2020-05-17 14:58:43.173 -0400,30501.0111145,0.404754638671875,0.476654052734375,-0.1685791015625,1,0.61
2020-05-17 14:58:43.213 -0400,30501.0510935,0.3470001220703125,-0.2913818359375,-0.0351715087890625,1,0.61
2020-05-17 14:58:43.253 -0400,30501.0910725,0.435211181640625,-0.6247406005859375,-0.0390625,1,0.61
2020-05-17 14:58:43.294 -0400,30501.1310515,0.4184417724609375,-0.82470703125,0.03369140625,1,0.61
2020-05-17 14:58:43.333 -0400,30501.1710305,0.661956787109375,-0.4757080078125,0.0223236083984375,1,0.61
2020-05-17 14:58:43.374 -0400,30501.2110095,0.967010498046875,-0.0483551025390625,0.180023193359375,1,0.61
2020-05-17 14:58:43.413 -0400,30501.2509895,2.41064453125,2.923187255859375,-0.77655029296875,1,0.61
2020-05-17 14:58:43.453 -0400,30501.2909685,2.888504028320312,3.874053955078125,-1.092361450195312,1,0.61
2020-05-17 14:58:43.493 -0400,30501.3309475,0.8983154296875,2.32733154296875,-1.003936767578125,1,0.61
2020-05-17 14:58:43.533 -0400,30501.3709265,-0.160369873046875,1.173751831054688,-0.75762939453125,1,0.61
2020-05-17 14:58:43.573 -0400,30501.4109055,-0.980194091796875,0.49468994140625,-0.670654296875,1,0.61
2020-05-17 14:58:43.613 -0400,30501.4508845,-1.07244873046875,0.1464996337890625,-0.43707275390625,1,0.61
2020-05-17 14:58:43.653 -0400,30501.4908635,-0.799713134765625,-0.1417083740234375,-0.0992584228515625,1,0.61
2020-05-17 14:58:43.693 -0400,30501.5308425,-0.58056640625,-0.1598358154296875,-0.084075927734375,1,0.61
2020-05-17 14:58:43.733 -0400,30501.5708215,-0.4200592041015625,0.0153656005859375,0.0144805908203125,1,0.61
2020-05-17 14:58:43.773 -0400,30501.6108015,-0.456085205078125,1.040939331054688,0.1445465087890625,1,0.61
2020-05-17 14:58:43.813 -0400,30501.6507805,0.39129638671875,4.5997314453125,0.1391754150390625,1,0.61
2020-05-17 14:58:43.853 -0400,30501.6907595,1.212539672851562,3.201522827148438,0.1038360595703125,1,0.61
2020-05-17 14:58:43.893 -0400,30501.7307385,0.7496490478515625,1.524429321289062,-0.1801910400390625,1,0.61
2020-05-17 14:58:43.933 -0400,30501.7707175,0.439971923828125,0.3418426513671875,-0.18072509765625,1,0.61
2020-05-17 14:58:43.973 -0400,30501.8106965,0.46466064453125,-0.649749755859375,-0.152496337890625,1,0.61
2020-05-17 14:58:44.013 -0400,30501.8506755,0.5288848876953125,-0.9021453857421875,0.1102142333984375,1,0.61
2020-05-17 14:58:44.053 -0400,30501.8906545,0.64111328125,-0.68951416015625,0.1713104248046875,1,0.61
2020-05-17 14:58:44.093 -0400,30501.9306335,0.904541015625,-0.1479949951171875,-0.0211181640625,1,0.61
2020-05-17 14:58:44.133 -0400,30501.97061504167,1.119842529296875,0.1830902099609375,-0.03802490234375,1,0.61
2020-05-17 14:58:44.173 -0400,30502.01059404167,2.986373901367188,3.307357788085938,-0.46832275390625,1,0.61
2020-05-17 14:58:44.213 -0400,30502.05057304167,2.464675903320312,4.01422119140625,-0.8382415771484375,1,0.61
2020-05-17 14:58:44.253 -0400,30502.09055204167,0.8245697021484375,2.100784301757812,-0.750732421875,1,0.61
2020-05-17 14:58:44.293 -0400,30502.13053104167,0.0303497314453125,1.107757568359375,-0.4242401123046875,1,0.61
2020-05-17 14:58:44.333 -0400,30502.17051004167,-0.702911376953125,0.4362335205078125,-0.409698486328125,1,0.61
2020-05-17 14:58:44.373 -0400,30502.21048904167,-1.013275146484375,-0.0023345947265625,-0.337005615234375,1,0.61
2020-05-17 14:58:44.413 -0400,30502.25046804167,-0.7805023193359375,-0.16259765625,-0.0216217041015625,1,0.61
2020-05-17 14:58:44.453 -0400,30502.29044704167,-0.559661865234375,-0.1286163330078125,-0.0350341796875,1,0.61
2020-05-17 14:58:44.493 -0400,30502.33042704167,-0.3673248291015625,0.3007965087890625,-0.01806640625,1,0.61
2020-05-17 14:58:44.533 -0400,30502.37040604167,-0.4592742919921875,2.006591796875,0.068023681640625,1,0.61
2020-05-17 14:58:44.573 -0400,30502.41038504167,1.291183471679688,4.6075439453125,0.3149871826171875,1,0.61
2020-05-17 14:58:44.613 -0400,30502.45036404167,0.842376708984375,2.510696411132812,-0.1553802490234375,1,0.61
2020-05-17 14:58:44.653 -0400,30502.49034304167,0.6544952392578125,1.237503051757812,-0.1168975830078125,1,0.61
2020-05-17 14:58:44.693 -0400,30502.53032204167,0.30487060546875,0.1530303955078125,-0.22125244140625,1,0.61
2020-05-17 14:58:44.734 -0400,30502.57030104167,0.463287353515625,-0.76922607421875,-0.04815673828125,1,0.61
2020-05-17 15:00:30.116 -0400,30607.95305179167,-0.3313751220703125,0.51971435546875,-0.6442718505859375,1,0.61
2020-05-17 15:00:30.155 -0400,30607.99302979167,-0.5163421630859375,0.401153564453125,-1.357940673828125,1,0.61
2020-05-17 15:00:30.195 -0400,30608.03300679167,-0.4834747314453125,0.8175201416015625,-2.024734497070312,1,0.61
2020-05-17 15:00:30.235 -0400,30608.072983375,-0.089263916015625,0.4933013916015625,-1.95550537109375,1,0.61
2020-05-17 15:00:30.275 -0400,30608.112961375,0.3372955322265625,0.04327392578125,-1.547454833984375,1,0.61
2020-05-17 15:00:30.317 -0400,30608.152938375,0.37908935546875,-0.25665283203125,-1.049087524414062,1,0.61
2020-05-17 15:00:30.355 -0400,30608.192916375,0.3662261962890625,-0.2390289306640625,-0.3360595703125,1,0.61
2020-05-17 15:00:30.395 -0400,30608.232893375,0.384796142578125,-0.312896728515625,-0.1683502197265625,1,0.61
2020-05-17 15:00:30.435 -0400,30608.272871375,0.3310546875,-0.175628662109375,-0.1675567626953125,1,0.61
2020-05-17 15:00:30.475 -0400,30608.312848375,0.399810791015625,0.0141754150390625,-0.6700439453125,1,0.61
2020-05-17 15:00:30.515 -0400,30608.352826375,0.358367919921875,0.1990509033203125,-1.578445434570312,1,0.61
2020-05-17 15:00:30.555 -0400,30608.392803375,0.4753265380859375,0.5281524658203125,-2.354888916015625,1,0.61
2020-05-17 15:00:30.597 -0400,30608.432781375,-0.0547332763671875,0.2304534912109375,-1.81988525390625,1,0.61
2020-05-17 15:00:30.635 -0400,30608.472758375,-0.4064178466796875,0.0784759521484375,-1.381820678710938,1,0.61
2020-05-17 15:00:30.675 -0400,30608.512736375,-0.430419921875,0.2089385986328125,-0.726837158203125,1,0.61
