loggingTime(txt),accelerometerTimestamp_sinceReboot(s),accelerometerAccelerationX(G),accelerometerAccelerationY(G),accelerometerAccelerationZ(G),batteryState,batteryLevel
2020-05-17 15:00:32.411 -0400,30610.2317705,-0.11572265625,0.5826568603515625,-1.991104125976562,1,0.61
2020-05-17 15:00:32.435 -0400,30610.2717475,0.0237579345703125,0.1734771728515625,-1.890167236328125,1,0.61
2020-05-17 15:00:32.474 -0400,30610.3117255,0.5910186767578125,0.178009033203125,-1.472564697265625,1,0.61
2020-05-17 15:00:32.514 -0400,30610.3517025,0.435394287109375,0.0660552978515625,-0.9758148193359375,1,0.61
2020-05-17 15:00:32.554 -0400,30610.3916805,0.3336334228515625,0.1798858642578125,-0.40594482421875,1,0.61
2020-05-17 15:00:32.597 -0400,30610.4316575,0.413726806640625,-0.07806396484375,0.1635284423828125,1,0.61
2020-05-17 15:00:32.634 -0400,30610.4716355,0.4622039794921875,-0.42718505859375,-0.1137542724609375,1,0.61
2020-05-17 15:00:32.674 -0400,30610.5116125,0.62890625,0.0325927734375,-0.8695220947265625,1,0.61
2020-05-17 15:00:32.715 -0400,30610.5515905,1.223312377929688,0.5463104248046875,-1.235809326171875,1,0.61
2020-05-17 15:00:32.754 -0400,30610.5915675,1.117233276367188,1.371856689453125,-2.02197265625,1,0.61
2020-05-17 15:00:32.794 -0400,30610.6315455,0.413421630859375,0.914337158203125,-2.068756103515625,1,0.61
2020-05-17 15:00:32.834 -0400,30610.6715225,-0.1290740966796875,0.5665130615234375,-1.2713623046875,1,0.61
2020-05-17 15:00:32.874 -0400,30610.7115005,-0.4945068359375,0.3489227294921875,-0.84869384765625,1,0.61
2020-05-17 15:00:32.914 -0400,30610.7514775,-0.7213897705078125,0.02252197265625,-0.4050140380859375,1,0.61
2020-05-17 15:00:32.954 -0400,30610.7914555,-0.8785552978515625,0.1983489990234375,-0.1668853759765625,1,0.61
2020-05-17 15:00:32.994 -0400,30610.8314325,-0.6910858154296875,0.2831573486328125,-0.4243316650390625,1,0.61
2020-05-17 15:00:33.034 -0400,30610.8714105,-0.43890380859375,0.517364501953125,-0.5624847412109375,1,0.61
2020-05-17 15:00:33.074 -0400,30610.9113875,-0.355499267578125,1.273696899414062,-0.2541961669921875,1,0.61
2020-05-17 15:00:33.114 -0400,30610.9513655,0.3718414306640625,2.861541748046875,-1.033279418945312,1,0.61
2020-05-17 15:00:33.154 -0400,30610.9913435,1.101287841796875,2.689239501953125,-0.6984710693359375,1,0.61
2020-05-17 15:00:33.194 -0400,30611.0313205,0.7796478271484375,1.450973510742188,-0.2950286865234375,1,0.61
2020-05-17 15:00:33.234 -0400,30611.07129741667,0.5272674560546875,0.1134185791015625,0.1859130859375,1,0.61
2020-05-17 15:00:33.274 -0400,30611.11127441667,0.5946502685546875,-0.6301422119140625,-0.190673828125,1,0.61
2020-05-17 15:00:33.314 -0400,30611.15125241667,0.432220458984375,-0.782806396484375,0.089111328125,1,0.61
2020-05-17 15:00:33.354 -0400,30611.19122941667,0.4477996826171875,-0.523590087890625,0.1782379150390625,1,0.61
2020-05-17 15:00:33.394 -0400,30611.23120741667,0.6447906494140625,-0.050628662109375,-0.0569610595703125,1,0.61
2020-05-17 15:00:33.434 -0400,30611.27118441667,0.926544189453125,0.345184326171875,-0.0734100341796875,1,0.61
2020-05-17 15:00:33.474 -0400,30611.31116241667,3.084136962890625,2.671829223632812,-0.2955322265625,1,0.61
2020-05-17 15:00:33.514 -0400,30611.35113941667,3.150100708007812,3.037979125976562,-0.741241455078125,1,0.61
2020-05-17 15:00:33.554 -0400,30611.39111741667,1.248809814453125,2.170364379882812,-0.56011962890625,1,0.61
2020-05-17 15:00:33.607 -0400,30611.43109441667,0.0186767578125,1.203933715820312,-0.43115234375,1,0.61
2020-05-17 15:00:33.634 -0400,30611.47107241667,-0.9488372802734375,0.6402435302734375,-0.5193939208984375,1,0.61
2020-05-17 15:00:33.674 -0400,30611.51104941667,-1.214797973632812,0.1437530517578125,-0.5395660400390625,1,0.61
2020-05-17 15:00:33.714 -0400,30611.55102741667,-0.9425048828125,-0.1385498046875,-0.189239501953125,1,0.61
2020-05-17 15:00:33.754 -0400,30611.59100441667,-0.6581878662109375,-0.0482635498046875,-0.2368316650390625,1,0.61
2020-05-17 15:00:33.793 -0400,30611.63098241667,-0.28021240234375,0.381317138671875,-0.2370147705078125,1,0.61
2020-05-17 15:00:33.833 -0400,30611.67095941667,0.29107666015625,2.080245971679688,-0.1832733154296875,1,0.61
2020-05-17 15:00:33.873 -0400,30611.71093741667,0.905548095703125,3.653167724609375,-0.120635986328125,1,0.61
2020-05-17 15:00:33.914 -0400,30611.75091441667,1.468460083007812,2.9365234375,-0.0341949462890625,1,0.61
2020-05-17 15:00:33.953 -0400,30611.79089241667,0.9095458984375,1.200881958007812,-0.061370849609375,1,0.61
2020-05-17 15:00:33.993 -0400,30611.83086941667,0.379150390625,0.249603271484375,0.014373779296875,1,0.61
2020-05-17 15:00:34.034 -0400,30611.87084741667,0.3270721435546875,-0.551239013671875,0.04437255859375,1,0.61
2020-05-17 15:00:34.073 -0400,30611.91082441667,0.3587188720703125,-0.846771240234375,0.0043792724609375,1,0.61
2020-05-17 15:00:34.113 -0400,30611.95080241667,0.46490478515625,-0.80255126953125,0.0343780517578125,1,0.61
2020-05-17 15:00:34.153 -0400,30611.99077941667,0.7116546630859375,-0.482574462890625,0.0281982421875,1,0.61
2020-05-17 15:00:34.193 -0400,30612.03075741667,1.1064453125,-0.2014923095703125,0.1585235595703125,1,0.61
2020-05-17 15:00:34.233 -0400,30612.070735375,3.573928833007812,3.022308349609375,0.2385101318359375,1,0.61
2020-05-17 15:00:34.273 -0400,30612.110713375,3.25860595703125,3.576736450195312,-0.3966827392578125,1,0.61
2020-05-17 15:00:34.313 -0400,30612.150690375,1.08251953125,2.399002075195312,-0.6582489013671875,1,0.61
2020-05-17 15:00:34.353 -0400,30612.190668375,-0.1920318603515625,1.433685302734375,-0.5025482177734375,1,0.61
2020-05-17 15:00:34.393 -0400,30612.230645375,-0.840240478515625,1.126602172851562,-0.5788421630859375,1,0.61
2020-05-17 15:00:34.433 -0400,30612.270623375,-0.94500732421875,0.53997802734375,-0.427215576171875,1,0.61
2020-05-17 15:00:34.473 -0400,30612.310600375,-0.7000885009765625,0.01361083984375,-0.1763458251953125,1,0.61
2020-05-17 15:00:34.513 -0400,30612.350578375,-0.5160980224609375,-0.0028533935546875,-0.147674560546875,1,0.61
2020-05-17 15:00:34.553 -0400,30612.390555375,-0.3633880615234375,0.0384521484375,-0.0008544921875,1,0.61
2020-05-17 15:00:34.607 -0400,30612.430533375,-0.1396636962890625,1.646896362304688,0.0389251708984375,1,0.61
2020-05-17 15:00:34.633 -0400,30612.470511375,0.837646484375,3.727157592773438,0.3950653076171875,1,0.61
2020-05-17 15:00:34.673 -0400,30612.510488375,1.434982299804688,3.3282470703125,0.069610595703125,1,0.61
2020-05-17 15:00:34.713 -0400,30612.550466375,1.010269165039062,1.569442749023438,-0.0451202392578125,1,0.61
2020-05-17 15:00:34.753 -0400,30612.590443375,0.388946533203125,0.1824951171875,0.0113983154296875,1,0.61
2020-05-17 15:00:34.793 -0400,30612.630421375,0.3704833984375,-0.7731170654296875,-0.2382354736328125,1,0.61
2020-05-17 15:00:34.833 -0400,30612.670398375,0.4912109375,-1.027786254882812,-0.1793365478515625,1,0.61
2020-05-17 15:00:34.873 -0400,30612.710376375,0.459991455078125,-0.8571014404296875,0.09625244140625,1,0.61
2020-05-17 15:00:34.913 -0400,30612.750353375,0.8121490478515625,-0.2991790771484375,0.0874786376953125,1,0.61
2020-05-17 15:00:34.952 -0400,30612.790331375,1.187576293945312,-0.09796142578125,0.1631317138671875,1,0.61
2020-05-17 15:00:34.992 -0400,30612.830308375,2.719146728515625,2.074325561523438,-0.369598388671875,1,0.61
2020-05-17 15:00:35.032 -0400,30612.870286375,3.2781982421875,3.826644897460938,-0.2917633056640625,1,0.61
2020-05-17 15:00:35.072 -0400,30612.910263375,1.293838500976562,2.48114013671875,-0.841705322265625,1,0.61
2020-05-17 15:00:35.113 -0400,30612.950241375,-0.26373291015625,1.5118408203125,-0.535308837890625,1,0.61
2020-05-17 15:00:35.152 -0400,30612.990218375,-1.031631469726562,0.5191650390625,-0.5239410400390625,1,0.61
2020-05-17 15:00:35.192 -0400,30613.030196375,-1.308563232421875,0.2474365234375,-0.3492431640625,1,0.61
2020-05-17 15:00:35.232 -0400,30613.070173625,-0.8956298828125,0.11199951171875,0.0221405029296875,1,0.61
2020-05-17 15:00:35.272 -0400,30613.110151625,-0.522216796875,0.19964599609375,-0.1114654541015625,1,0.61
2020-05-17 15:00:35.312 -0400,30613.150128625,-0.2199859619140625,0.5966339111328125,-0.073822021484375,1,0.61
2020-05-17 15:00:35.352 -0400,30613.190106625,0.3141937255859375,2.778274536132812,-0.099853515625,1,0.61
2020-05-17 15:00:35.392 -0400,30613.230083625,2.080947875976562,4.407501220703125,0.366729736328125,1,0.61
2020-05-17 15:00:35.432 -0400,30613.270061625,1.21429443359375,2.329742431640625,-0.170684814453125,1,0.61
2020-05-17 15:00:35.473 -0400,30613.310038625,0.7821502685546875,0.7722625732421875,-0.136566162109375,1,0.61
2020-05-17 15:00:35.512 -0400,30613.350016625,0.249481201171875,-0.2209320068359375,-0.22674560546875,1,0.61
2020-05-17 15:00:35.552 -0400,30613.389993625,0.4390716552734375,-0.8797454833984375,0.0068817138671875,1,0.61
2020-05-17 15:00:35.606 -0400,30613.429971625,0.3956451416015625,-0.9694061279296875,0.0147857666015625,1,0.61
2020-05-17 15:00:35.632 -0400,30613.469948625,0.340118408203125,-0.5648345947265625,0.0702972412109375,1,0.61
2020-05-17 15:00:35.673 -0400,30613.509926625,0.735321044921875,-0.337615966796875,0.225006103515625,1,0.61
2020-05-17 15:00:35.712 -0400,30613.549903625,1.41015625,-0.04656982421875,0.2303009033203125,1,0.61
2020-05-17 15:00:35.752 -0400,30613.589881625,4.423019409179688,3.624557495117188,-0.3932647705078125,1,0.61
2020-05-17 15:00:35.792 -0400,30613.629858625,3.477142333984375,3.171432495117188,-1.056838989257812,1,0.61
2020-05-17 15:00:35.832 -0400,30613.669836625,0.6370697021484375,2.11602783203125,-0.5381011962890625,1,0.61
2020-05-17 15:00:35.872 -0400,30613.709813625,-0.57867431640625,1.048583984375,-0.3804779052734375,1,0.61
2020-05-17 15:00:35.912 -0400,30613.749791625,-1.145736694335938,0.6980438232421875,-0.5864410400390625,1,0.61
2020-05-17 15:00:35.952 -0400,30613.789768625,-1.043563842773438,0.2762908935546875,-0.36212158203125,1,0.61
2020-05-17 15:00:35.992 -0400,30613.829746625,-0.6938323974609375,0.07415771484375,-0.1626739501953125,1,0.61
2020-05-17 15:00:36.032 -0400,30613.869723625,-0.471649169921875,0.2480010986328125,-0.2501068115234375,1,0.61
2020-05-17 15:00:36.072 -0400,30613.909701625,-0.247802734375,0.4740447998046875,-0.1575469970703125,1,0.61
2020-05-17 15:00:36.119 -0400,30613.949678625,0.112945556640625,2.386764526367188,0.4150390625,1,0.61
2020-05-17 15:00:36.152 -0400,30613.989656625,2.331024169921875,4.303619384765625,0.5570220947265625,1,0.61
2020-05-17 15:00:36.192 -0400,30614.029633625,1.64990234375,2.6014404296875,0.0189666748046875,1,0.61
2020-05-17 15:00:36.232 -0400,30614.06961191667,1.01617431640625,0.9781951904296875,0.0684661865234375,1,0.61
2020-05-17 15:00:36.272 -0400,30614.10958991667,0.2693328857421875,-0.2301025390625,-0.028167724609375,1,0.61
2020-05-17 15:00:36.312 -0400,30614.14956691667,0.5499114990234375,-0.7014923095703125,-0.218292236328125,1,0.61
2020-05-17 15:00:36.352 -0400,30614.18954491667,0.4498443603515625,-1.149627685546875,-0.0162506103515625,1,0.61
2020-05-17 15:00:36.392 -0400,30614.22952191667,0.4686126708984375,-0.8842315673828125,0.1700286865234375,1,0.61
2020-05-17 15:00:36.432 -0400,30614.26949991667,1.036651611328125,-0.207611083984375,0.0547637939453125,1,0.61
2020-05-17 15:00:36.472 -0400,30614.30947691667,1.490676879882812,-0.01861572265625,0.2380523681640625,1,0.61
2020-05-17 15:00:36.512 -0400,30614.34945491667,4.766250610351562,4.06768798828125,-0.7905120849609375,1,0.61
2020-05-17 15:00:36.552 -0400,30614.38943191667,2.28106689453125,3.459121704101562,-1.060211181640625,1,0.61
2020-05-17 15:00:36.607 -0400,30614.42940991667,0.403778076171875,1.8099365234375,-0.4769134521484375,1,0.61
2020-05-17 15:00:36.632 -0400,30614.46938691667,-0.6215972900390625,0.7536163330078125,-0.4630279541015625,1,0.61
2020-05-17 15:00:36.672 -0400,30614.50936491667,-1.140380859375,0.539459228515625,-0.6404571533203125,1,0.61
2020-05-17 15:00:36.712 -0400,30614.54934191667,-1.006637573242188,0.1763763427734375,-0.2313690185546875,1,0.61
2020-05-17 15:00:36.752 -0400,30614.58931991667,-0.714263916015625,-0.0732421875,-0.0847930908203125,1,0.61
2020-05-17 15:00:36.792 -0400,30614.62929691667,-0.51397705078125,0.0893707275390625,-0.160430908203125,1,0.61
2020-05-17 15:00:36.832 -0400,30614.66927491667,-0.262237548828125,0.59063720703125,-0.0975341796875,1,0.61
2020-05-17 15:00:36.872 -0400,30614.70925191667,-0.0704803466796875,2.468185424804688,-0.208953857421875,1,0.61
2020-05-17 15:00:36.912 -0400,30614.74922991667,1.961395263671875,4.130340576171875,-0.09844970703125,1,0.61
2020-05-17 15:00:36.952 -0400,30614.78920691667,0.94573974609375,2.057022094726562,-0.3270721435546875,1,0.61
2020-05-17 15:00:36.992 -0400,30614.82918491667,0.619964599609375,0.90875244140625,-0.2181549072265625,1,0.61
2020-05-17 15:00:37.032 -0400,30614.86916191667,0.311614990234375,-0.092193603515625,-0.18902587890625,1,0.61
2020-05-17 15:00:37.072 -0400,30614.90913991667,0.4075164794921875,-0.7499542236328125,0.0121307373046875,1,0.61
2020-05-17 15:00:37.118 -0400,30614.94911691667,0.41632080078125,-0.9028778076171875,0.0195159912109375,1,0.61
2020-05-17 15:00:37.152 -0400,30614.98909491667,0.43353271484375,-0.6753692626953125,-0.0161895751953125,1,0.61
2020-05-17 15:00:37.192 -0400,30615.02907191667,0.82940673828125,-0.3225860595703125,0.1162872314453125,1,0.61
2020-05-17 15:00:37.231 -0400,30615.06904966667,1.423797607421875,0.4068756103515625,-0.093780517578125,1,0.61
2020-05-17 15:00:37.271 -0400,30615.10902666667,4.150543212890625,3.26953125,-0.9189300537109375,1,0.61
2020-05-17 15:00:37.311 -0400,30615.14900466667,2.596450805664062,3.218414306640625,-1.083175659179688,1,0.61
2020-05-17 15:00:37.351 -0400,30615.18898166667,0.4646148681640625,1.956146240234375,-0.777435302734375,1,0.61
2020-05-17 15:00:37.391 -0400,30615.22895966667,-0.6296234130859375,0.7528076171875,-0.5372314453125,1,0.61
2020-05-17 15:00:37.432 -0400,30615.26893666667,-1.220565795898438,0.34283447265625,-0.5641632080078125,1,0.61
2020-05-17 15:00:37.471 -0400,30615.30891466667,-0.966033935546875,0.033294677734375,-0.3386993408203125,1,0.61
2020-05-17 15:00:37.511 -0400,30615.34889166667,-0.6200408935546875,-0.1514892578125,-0.1644287109375,1,0.61
2020-05-17 15:00:37.551 -0400,30615.38886966667,-0.4854888916015625,0.37628173828125,-0.2135467529296875,1,0.61
2020-05-17 15:00:37.607 -0400,30615.42884666667,-0.1104888916015625,0.784637451171875,-0.0367889404296875,1,0.61
2020-05-17 15:00:37.631 -0400,30615.46882466667,0.0045166015625,2.415985107421875,0.0194244384765625,1,0.61
2020-05-17 15:00:37.671 -0400,30615.50880166667,1.701980590820312,3.96630859375,0.2864532470703125,1,0.61
2020-05-17 15:00:37.711 -0400,30615.54877966667,0.928924560546875,2.152435302734375,-0.221038818359375,1,0.61
2020-05-17 15:00:37.751 -0400,30615.58875666667,0.485260009765625,0.891571044921875,-0.0174560546875,1,0.61
2020-05-17 15:00:37.791 -0400,30615.62873466667,0.24786376953125,-0.256622314453125,0.01666259765625,1,0.61
2020-05-17 15:00:37.831 -0400,30615.66871166667,0.4850616455078125,-0.736541748046875,-0.1571044921875,1,0.61
2020-05-17 15:00:37.871 -0400,30615.70868966667,0.481719970703125,-1.121658325195312,0.14874267578125,1,0.61
2020-05-17 15:00:37.911 -0400,30615.74866666667,0.636993408203125,-0.8098602294921875,0.1028289794921875,1,0.61
2020-05-17 15:00:37.951 -0400,30615.78864466667,1.105682373046875,-0.242584228515625,0.04254150390625,1,0.61
2020-05-17 15:00:37.991 -0400,30615.82862166667,2.003189086914062,1.318161010742188,0.05902099609375,1,0.61
2020-05-17 15:00:38.031 -0400,30615.86859966667,3.909683227539062,4.207260131835938,-0.3647003173828125,1,0.61
2020-05-17 15:00:38.071 -0400,30615.90857666667,1.514053344726562,3.248519897460938,-0.95233154296875,1,0.61
2020-05-17 15:00:38.118 -0400,30615.94855466667,-0.09466552734375,1.807586669921875,-0.411102294921875,1,0.61
2020-05-17 15:00:38.151 -0400,30615.98853166667,-1.125595092773438,0.7317047119140625,-0.501495361328125,1,0.61
2020-05-17 15:00:38.191 -0400,30616.02850966667,-1.317306518554688,0.4883270263671875,-0.518829345703125,1,0.61
2020-05-17 15:00:38.231 -0400,30616.06848675,-0.9175872802734375,-0.0276641845703125,-0.0595245361328125,1,0.61
2020-05-17 15:00:38.271 -0400,30616.10846475,-0.6866302490234375,0.018310546875,0.032928466796875,1,0.61
2020-05-17 15:00:38.311 -0400,30616.14844175,-0.4487152099609375,0.2605743408203125,-0.0172882080078125,1,0.61
2020-05-17 15:00:38.351 -0400,30616.18841975,-0.2727508544921875,0.7027587890625,0.178863525390625,1,0.61
2020-05-17 15:00:38.391 -0400,30616.22839675,0.563934326171875,4.13006591796875,0.267181396484375,1,0.61
2020-05-17 15:00:38.431 -0400,30616.26837475,2.224807739257812,3.453353881835938,0.8307647705078125,1,0.61
2020-05-17 15:00:38.471 -0400,30616.30835175,1.072540283203125,1.659194946289062,-0.097259521484375,1,0.61
2020-05-17 15:00:38.511 -0400,30616.34832975,0.4339141845703125,0.457000732421875,-0.0418701171875,1,0.61
2020-05-17 15:00:38.551 -0400,30616.38830675,0.22821044921875,-0.491851806640625,-0.2553253173828125,1,0.61
2020-05-17 15:00:38.606 -0400,30616.42828475,0.4658050537109375,-0.6418609619140625,-0.2686767578125,1,0.61
2020-05-17 15:00:38.631 -0400,30616.46826175,0.3932342529296875,-0.842193603515625,-0.087310791015625,1,0.61
2020-05-17 15:00:38.671 -0400,30616.50823975,0.565704345703125,-0.5250091552734375,-0.0308837890625,1,0.61
2020-05-17 15:00:38.711 -0400,30616.54821675,0.9197845458984375,-0.26953125,0.1243896484375,1,0.61
2020-05-17 15:00:38.751 -0400,30616.58819475,2.083160400390625,1.330841064453125,-0.2116851806640625,1,0.61
2020-05-17 15:00:38.791 -0400,30616.62817175,3.639434814453125,3.852432250976562,-0.73712158203125,1,0.61
2020-05-17 15:00:38.831 -0400,30616.66814975,1.596206665039062,2.593399047851562,-0.62249755859375,1,0.61
2020-05-17 15:00:38.871 -0400,30616.70812675,0.1669464111328125,1.384048461914062,-0.233856201171875,1,0.61
2020-05-17 15:00:38.911 -0400,30616.74810475,-0.9718475341796875,0.6576690673828125,-0.3642730712890625,1,0.61
2020-05-17 15:00:38.951 -0400,30616.78808175,-1.390304565429688,0.3682403564453125,-0.6048583984375,1,0.61
2020-05-17 15:00:38.990 -0400,30616.82805975,-0.972137451171875,0.0829315185546875,-0.2155914306640625,1,0.61
2020-05-17 15:00:39.031 -0400,30616.86803675,-0.5691680908203125,0.053955078125,-0.0575408935546875,1,0.61
2020-05-17 15:00:39.070 -0400,30616.90801475,-0.3185577392578125,0.1930694580078125,-0.11004638671875,1,0.61
2020-05-17 15:00:39.118 -0400,30616.94799175,-0.135528564453125,0.98077392578125,0.0865325927734375,1,0.61
2020-05-17 15:00:39.150 -0400,30616.98796975,1.056243896484375,3.873382568359375,0.49151611328125,1,0.61
2020-05-17 15:00:39.191 -0400,30617.02794675,1.779342651367188,3.556747436523438,0.6787872314453125,1,0.61
2020-05-17 15:00:39.230 -0400,30617.06792525,1.178909301757812,2.078811645507812,-0.196533203125,1,0.61
2020-05-17 15:00:39.270 -0400,30617.10790225,0.5535736083984375,0.101715087890625,-0.2177734375,1,0.61
2020-05-17 15:00:39.310 -0400,30617.14788025,0.3772430419921875,-0.79632568359375,-0.2143402099609375,1,0.61
2020-05-17 15:00:39.350 -0400,30617.18785725,0.3951263427734375,-0.892730712890625,-0.14697265625,1,0.61
2020-05-17 15:00:39.390 -0400,30617.22783525,0.372222900390625,-0.7364959716796875,0.012176513671875,1,0.61
2020-05-17 15:00:39.430 -0400,30617.26781225,0.4991607666015625,-0.3729400634765625,0.1951141357421875,1,0.61
2020-05-17 15:00:39.470 -0400,30617.30779025,0.8870391845703125,-0.086090087890625,0.223052978515625,1,0.61
2020-05-17 15:00:39.510 -0400,30617.34776725,2.00482177734375,1.452972412109375,0.0091400146484375,1,0.61
2020-05-17 15:00:39.550 -0400,30617.38774525,3.988006591796875,3.963851928710938,-0.1042938232421875,1,0.61
2020-05-17 15:00:39.590 -0400,30617.42772225,1.631622314453125,2.768157958984375,-0.78912353515625,1,0.61
2020-05-17 15:00:39.630 -0400,30617.46770025,0.0681304931640625,1.450027465820312,-0.37591552734375,1,0.61
2020-05-17 15:00:39.670 -0400,30617.50767725,-0.9673309326171875,0.5620269775390625,-0.3792266845703125,1,0.61
2020-05-17 15:00:39.710 -0400,30617.54765525,-1.401641845703125,0.396087646484375,-0.45050048828125,1,0.61
2020-05-17 15:00:39.750 -0400,30617.58763225,-0.9636383056640625,0.04425048828125,-0.0965728759765625,1,0.61
2020-05-17 15:00:39.790 -0400,30617.62760925,-0.6494293212890625,0.011016845703125,-0.060638427734375,1,0.61
2020-05-17 15:00:39.830 -0400,30617.66758725,-0.394378662109375,0.1761474609375,-0.07952880859375,1,0.61
2020-05-17 15:00:39.870 -0400,30617.70756425,-0.2286376953125,0.9809722900390625,0.1501922607421875,1,0.61
2020-05-17 15:00:39.910 -0400,30617.74754225,0.6221771240234375,4.17669677734375,0.3902587890625,1,0.61
2020-05-17 15:00:39.950 -0400,30617.78751925,2.084762573242188,3.201614379882812,0.422760009765625,1,0.61
2020-05-17 15:00:39.990 -0400,30617.82749725,1.144271850585938,1.646499633789062,-0.2472991943359375,1,0.61
2020-05-17 15:00:40.030 -0400,30617.86747425,0.6023406982421875,0.356414794921875,-0.207733154296875,1,0.61
2020-05-17 15:00:40.070 -0400,30617.90745225,0.459136962890625,-0.747039794921875,-0.176849365234375,1,0.61
2020-05-17 15:00:40.119 -0400,30617.94742925,0.4261474609375,-0.880462646484375,-0.022979736328125,1,0.61
2020-05-17 15:00:40.150 -0400,30617.98740725,0.33343505859375,-0.790130615234375,0.1082000732421875,1,0.61
2020-05-17 15:00:40.190 -0400,30618.02738425,0.575164794921875,-0.2289581298828125,0.0673828125,1,0.61
2020-05-17 15:00:40.230 -0400,30618.06736025,0.9008636474609375,-0.0494842529296875,0.141357421875,1,0.61
2020-05-17 15:00:40.270 -0400,30618.10733725,2.900314331054688,2.171478271484375,-0.3272705078125,1,0.61
2020-05-17 15:00:40.310 -0400,30618.14731525,3.485519409179688,2.946914672851562,-0.619537353515625,1,0.61
2020-05-17 15:00:40.350 -0400,30618.18729225,1.403472900390625,2.139694213867188,-0.623565673828125,1,0.61
2020-05-17 15:00:40.390 -0400,30618.22727025,0.206878662109375,1.34783935546875,-0.47674560546875,1,0.61
2020-05-17 15:00:40.430 -0400,30618.26724725,-0.7934417724609375,0.627777099609375,-0.521484375,1,0.61
2020-05-17 15:00:40.470 -0400,30618.30722525,-1.167022705078125,0.3329925537109375,-0.632537841796875,1,0.61
2020-05-17 15:00:40.510 -0400,30618.34720225,-0.86468505859375,0.050567626953125,-0.25811767578125,1,0.61
2020-05-17 15:00:40.550 -0400,30618.38718025,-0.62945556640625,0.0976409912109375,-0.456634521484375,1,0.61
2020-05-17 15:00:40.590 -0400,30618.42715725,-0.36376953125,0.34832763671875,-0.2536468505859375,1,0.61
2020-05-17 15:00:40.630 -0400,30618.46713525,0.0770263671875,2.229965209960938,-0.01751708984375,1,0.61
2020-05-17 15:00:40.670 -0400,30618.50711225,1.750885009765625,3.941055297851562,-0.155364990234375,1,0.61
2020-05-17 15:00:40.709 -0400,30618.54708925,1.2022705078125,2.290542602539062,0.108734130859375,1,0.61
2020-05-17 15:00:40.750 -0400,30618.58706725,0.9251861572265625,1.265380859375,-0.0169219970703125,1,0.61
2020-05-17 15:00:40.789 -0400,30618.62704525,0.5511474609375,0.288421630859375,-0.1671142578125,1,0.61
2020-05-17 15:00:40.830 -0400,30618.66702225,0.5181732177734375,-0.67578125,-0.06793212890625,1,0.61
2020-05-17 15:00:40.869 -0400,30618.70699925,0.4395751953125,-0.7691650390625,0.006927490234375,1,0.61
2020-05-17 15:00:40.909 -0400,30618.74697725,0.4116058349609375,-0.7616424560546875,0.0001068115234375,1,0.61
2020-05-17 15:00:40.949 -0400,30618.78695425,0.63543701171875,-0.287445068359375,-0.14556884765625,1,0.61
2020-05-17 15:00:40.989 -0400,30618.82693225,1.09820556640625,0.142486572265625,-0.2331695556640625,1,0.61
2020-05-17 15:00:41.030 -0400,30618.86690925,3.226470947265625,2.489471435546875,-0.192626953125,1,0.61
2020-05-17 15:00:41.069 -0400,30618.90688725,2.831680297851562,3.157470703125,-0.7156982421875,1,0.61
2020-05-17 15:00:41.121 -0400,30618.94686425,1.051025390625,2.295089721679688,-0.74200439453125,1,0.61
2020-05-17 15:00:41.149 -0400,30618.98684225,0.0127105712890625,1.372589111328125,-0.41485595703125,1,0.61
2020-05-17 15:00:41.189 -0400,30619.02681925,-0.882171630859375,0.5069122314453125,-0.32647705078125,1,0.61
2020-05-17 15:00:41.229 -0400,30619.06679866667,-1.232406616210938,0.2071685791015625,-0.10394287109375,1,0.61
2020-05-17 15:00:41.269 -0400,30619.10677566667,-0.8773651123046875,0.0391693115234375,-0.0037384033203125,1,0.61
2020-05-17 15:00:41.309 -0400,30619.14675366667,-0.595947265625,-0.0247955322265625,-0.089111328125,1,0.61
2020-05-17 15:00:41.349 -0400,30619.18673066667,-0.370819091796875,0.1695404052734375,-0.1473236083984375,1,0.61
2020-05-17 15:00:41.389 -0400,30619.22670866667,-0.319854736328125,1.457717895507812,-0.14141845703125,1,0.61
2020-05-17 15:00:41.429 -0400,30619.26668566667,1.061981201171875,4.9703369140625,-0.38323974609375,1,0.61
2020-05-17 15:00:41.469 -0400,30619.30666366667,1.107315063476562,2.664047241210938,-0.1826324462890625,1,0.61
2020-05-17 15:00:41.509 -0400,30619.34664066667,0.657623291015625,1.286468505859375,-0.19903564453125,1,0.61
2020-05-17 15:00:41.549 -0400,30619.38661766667,0.2780303955078125,0.2484283447265625,-0.122589111328125,1,0.61
2020-05-17 15:00:41.589 -0400,30619.42659566667,0.406463623046875,-0.6267852783203125,0.0373382568359375,1,0.61
2020-05-17 15:00:41.629 -0400,30619.46657266667,0.420745849609375,-0.66888427734375,0.020751953125,1,0.61
2020-05-17 15:00:41.669 -0400,30619.50655066667,0.35626220703125,-0.7343902587890625,0.0515594482421875,1,0.61
2020-05-17 15:00:41.709 -0400,30619.54652766667,0.665863037109375,-0.377685546875,-0.0460662841796875,1,0.61
2020-05-17 15:00:41.749 -0400,30619.58650566667,1.005126953125,-0.1985626220703125,0.0139007568359375,1,0.61
2020-05-17 15:00:41.789 -0400,30619.62648266667,3.459609985351562,2.596954345703125,-0.078643798828125,1,0.61
2020-05-17 15:00:41.829 -0400,30619.66646066667,3.243606567382812,3.977813720703125,-0.8861083984375,1,0.61
2020-05-17 15:00:41.869 -0400,30619.70643766667,0.7554473876953125,2.17822265625,-0.8487091064453125,1,0.61
2020-05-17 15:00:41.909 -0400,30619.74641566667,-0.4106292724609375,1.248580932617188,-0.3743896484375,1,0.61
2020-05-17 15:00:41.949 -0400,30619.78639266667,-1.128631591796875,0.504913330078125,-0.4766082763671875,1,0.61
2020-05-17 15:00:41.989 -0400,30619.82637066667,-1.066482543945312,0.209136962890625,-0.480560302734375,1,0.61
2020-05-17 15:00:42.029 -0400,30619.86634766667,-0.638946533203125,0.0457305908203125,-0.1474456787109375,1,0.61
2020-05-17 15:00:42.069 -0400,30619.90632566667,-0.3811187744140625,-0.0400238037109375,-0.129547119140625,1,0.61
2020-05-17 15:00:42.120 -0400,30619.94630266667,-0.2980194091796875,0.055419921875,-0.0067596435546875,1,0.61
2020-05-17 15:00:42.149 -0400,30619.98628066667,-0.4970855712890625,1.243453979492188,0.2205047607421875,1,0.61
2020-05-17 15:00:42.189 -0400,30620.02625766667,0.968963623046875,4.970901489257812,-0.1608428955078125,1,0.61
2020-05-17 15:00:42.229 -0400,30620.066234125,0.87823486328125,2.746734619140625,-0.1400604248046875,1,0.61
2020-05-17 15:00:42.268 -0400,30620.106212125,0.7077789306640625,1.28912353515625,-0.0796051025390625,1,0.61
2020-05-17 15:00:42.309 -0400,30620.146189125,0.4014434814453125,0.0715484619140625,-0.2989654541015625,1,0.61
2020-05-17 15:00:42.349 -0400,30620.186167125,0.5061187744140625,-0.67010498046875,-0.0939788818359375,1,0.61
2020-05-17 15:00:42.388 -0400,30620.226144125,0.4990386962890625,-0.7703704833984375,0.1634063720703125,1,0.61
2020-05-17 15:00:42.429 -0400,30620.266122125,0.50213623046875,-0.6639862060546875,0.32421875,1,0.61
2020-05-17 15:00:42.469 -0400,30620.306099125,0.846099853515625,-0.236175537109375,0.1640777587890625,1,0.61
2020-05-17 15:00:42.508 -0400,30620.346077125,1.448196411132812,0.0306549072265625,-0.0475006103515625,1,0.61
2020-05-17 15:00:42.548 -0400,30620.386054125,4.35467529296875,4.46783447265625,-0.5322265625,1,0.61
2020-05-17 15:00:42.589 -0400,30620.426032125,3.0609130859375,3.312362670898438,-0.8089752197265625,1,0.61
2020-05-17 15:00:42.628 -0400,30620.466009125,0.721588134765625,1.8448486328125,-0.649749755859375,1,0.61
2020-05-17 15:00:42.668 -0400,30620.505986125,-0.51904296875,0.976959228515625,-0.3896942138671875,1,0.61
2020-05-17 15:00:42.708 -0400,30620.545964125,-1.245849609375,0.5261993408203125,-0.4546966552734375,1,0.61
2020-05-17 15:00:42.749 -0400,30620.585941125,-1.070419311523438,0.281646728515625,-0.178863525390625,1,0.61
2020-05-17 15:00:42.788 -0400,30620.625919125,-0.7011871337890625,-0.0054168701171875,0.0312347412109375,1,0.61
2020-05-17 15:00:42.828 -0400,30620.665896125,-0.50579833984375,0.0750885009765625,-0.0303955078125,1,0.61
2020-05-17 15:00:42.868 -0400,30620.705874125,-0.324798583984375,0.33245849609375,0.058624267578125,1,0.61
2020-05-17 15:00:42.908 -0400,30620.745851125,-0.3472900390625,2.327011108398438,0.3301849365234375,1,0.61
2020-05-17 15:00:42.949 -0400,30620.785829125,1.604446411132812,4.688674926757812,0.279998779296875,1,0.61
2020-05-17 15:00:42.988 -0400,30620.825806125,0.9112548828125,2.254791259765625,-0.0802001953125,1,0.61
2020-05-17 15:00:43.028 -0400,30620.865784125,0.710113525390625,0.972412109375,-0.0915069580078125,1,0.61
2020-05-17 15:00:43.068 -0400,30620.905761125,0.3716888427734375,-0.046142578125,-0.2571258544921875,1,0.61
2020-05-17 15:00:43.118 -0400,30620.945739125,0.558990478515625,-0.7588348388671875,-0.10345458984375,1,0.61
2020-05-17 15:00:43.148 -0400,30620.985716125,0.525238037109375,-0.784820556640625,-0.0062713623046875,1,0.61
2020-05-17 15:00:43.188 -0400,30621.025693125,0.593780517578125,-0.587310791015625,-0.0086212158203125,1,0.61
2020-05-17 15:00:43.228 -0400,30621.06567175,0.86883544921875,-0.32476806640625,0.007904052734375,1,0.61
2020-05-17 15:00:43.268 -0400,30621.10564875,1.29498291015625,0.00640869140625,-0.004425048828125,1,0.61
2020-05-17 15:00:43.308 -0400,30621.14562675,4.174850463867188,4.184173583984375,-0.9605712890625,1,0.61
2020-05-17 15:00:43.348 -0400,30621.18560375,2.879837036132812,3.683517456054688,-0.95648193359375,1,0.61
2020-05-17 15:00:43.388 -0400,30621.22558175,0.3819732666015625,1.976531982421875,-0.635101318359375,1,0.61
2020-05-17 15:00:43.428 -0400,30621.26555875,-0.6718292236328125,0.8987884521484375,-0.393280029296875,1,0.61
2020-05-17 15:00:43.468 -0400,30621.30553675,-1.273773193359375,0.404754638671875,-0.4060821533203125,1,0.61
2020-05-17 15:00:43.508 -0400,30621.34551375,-1.149276733398438,0.0574493408203125,-0.2457122802734375,1,0.61
2020-05-17 15:00:43.548 -0400,30621.38549175,-0.7621917724609375,0.030120849609375,-0.108795166015625,1,0.61
2020-05-17 15:00:43.588 -0400,30621.42546875,-0.5403289794921875,0.0999755859375,-0.2294158935546875,1,0.61
2020-05-17 15:00:43.628 -0400,30621.46544575,-0.2533111572265625,0.334686279296875,-0.0882110595703125,1,0.61
2020-05-17 15:00:43.668 -0400,30621.50542375,0.43328857421875,3.429916381835938,-0.4022064208984375,1,0.61
2020-05-17 15:00:43.708 -0400,30621.54540075,2.365234375,4.002700805664062,-0.13134765625,1,0.61
2020-05-17 15:00:43.748 -0400,30621.58537875,1.049819946289062,1.786544799804688,-0.20904541015625,1,0.61
2020-05-17 15:00:43.788 -0400,30621.62535575,0.7545013427734375,0.596221923828125,-0.2298126220703125,1,0.61
2020-05-17 15:00:43.828 -0400,30621.66533375,0.3421630859375,-0.2066192626953125,-0.1193084716796875,1,0.61
2020-05-17 15:00:43.868 -0400,30621.70531075,0.415771484375,-0.9420013427734375,0.0553131103515625,1,0.61
2020-05-17 15:00:43.908 -0400,30621.74528875,0.384307861328125,-0.7360076904296875,0.0546722412109375,1,0.61
2020-05-17 15:00:43.948 -0400,30621.78526575,0.383697509765625,-0.469879150390625,0.1827545166015625,1,0.61
2020-05-17 15:00:43.988 -0400,30621.82524275,0.55023193359375,-0.0314178466796875,0.23046875,1,0.61
2020-05-17 15:00:44.028 -0400,30621.86522075,1.341461181640625,0.8331146240234375,-0.4106597900390625,1,0.61
2020-05-17 15:00:44.068 -0400,30621.90519775,3.912643432617188,3.103775024414062,-0.3577728271484375,1,0.61
2020-05-17 15:00:44.118 -0400,30621.94517575,2.5340576171875,2.706436157226562,-0.9207305908203125,1,0.61
2020-05-17 15:00:44.148 -0400,30621.98515275,0.7453460693359375,1.82196044921875,-0.622650146484375,1,0.61
2020-05-17 15:00:44.188 -0400,30622.02513075,-0.2990875244140625,0.8762969970703125,-0.22210693359375,1,0.61
2020-05-17 15:00:44.228 -0400,30622.06510741667,-1.150985717773438,0.5207977294921875,-0.16961669921875,1,0.61
2020-05-17 15:00:44.268 -0400,30622.10508541667,-1.17083740234375,0.3464508056640625,-0.0792388916015625,1,0.61
2020-05-17 15:00:44.308 -0400,30622.14506241667,-0.6835174560546875,0.0702362060546875,0.023345947265625,1,0.61
2020-05-17 15:00:44.347 -0400,30622.18503941667,-0.2132110595703125,0.1925201416015625,-0.0697174072265625,1,0.61
2020-05-17 15:00:44.387 -0400,30622.22501741667,0.0206146240234375,1.222549438476562,-0.024505615234375,1,0.61
2020-05-17 15:00:44.427 -0400,30622.26499441667,0.3935699462890625,2.462112426757812,-0.0975189208984375,1,0.61
2020-05-17 15:00:44.467 -0400,30622.30497241667,1.63702392578125,3.6636962890625,0.355865478515625,1,0.61
2020-05-17 15:00:44.508 -0400,30622.34494941667,1.219573974609375,2.1236572265625,-0.11346435546875,1,0.61
2020-05-17 15:00:44.547 -0400,30622.38492741667,0.70318603515625,0.912628173828125,-0.1210174560546875,1,0.61
2020-05-17 15:00:44.587 -0400,30622.42490441667,0.2766571044921875,-0.182403564453125,-0.2219390869140625,1,0.61
2020-05-17 15:00:44.627 -0400,30622.46488141667,0.221099853515625,-0.96820068359375,0.110382080078125,1,0.61
2020-05-17 15:00:44.667 -0400,30622.50485941667,0.200836181640625,-0.9199676513671875,0.0921783447265625,1,0.61
2020-05-17 15:00:44.707 -0400,30622.54483641667,0.678985595703125,-0.4142303466796875,-0.2244873046875,1,0.61
2020-05-17 15:00:44.747 -0400,30622.58481441667,1.124801635742188,-0.1986083984375,0.0546417236328125,1,0.61
2020-05-17 15:00:44.787 -0400,30622.62479141667,1.975570678710938,1.32159423828125,-0.1347503662109375,1,0.61
2020-05-17 15:00:44.827 -0400,30622.66476941667,3.151901245117188,3.669113159179688,-0.43524169921875,1,0.61
2020-05-17 15:00:44.867 -0400,30622.70474641667,1.542144775390625,2.903213500976562,-0.5684661865234375,1,0.61
2020-05-17 15:00:44.907 -0400,30622.74472441667,0.0928955078125,1.862136840820312,-0.2928619384765625,1,0.61
2020-05-17 15:00:44.947 -0400,30622.78470141667,-0.6749420166015625,0.8343658447265625,-0.30108642578125,1,0.61
2020-05-17 15:00:44.987 -0400,30622.82467841667,-1.318328857421875,0.3648834228515625,-0.398193359375,1,0.61
2020-05-17 15:00:45.027 -0400,30622.86465641667,-1.140777587890625,0.0450439453125,-0.112640380859375,1,0.61
2020-05-17 15:00:45.067 -0400,30622.90463341667,-0.68218994140625,-0.04595947265625,-0.0512542724609375,1,0.61
2020-05-17 15:00:45.118 -0400,30622.94461141667,-0.3737945556640625,0.1133270263671875,-0.18109130859375,1,0.61
2020-05-17 15:00:45.147 -0400,30622.98458841667,-0.2105865478515625,0.8744659423828125,0.06610107421875,1,0.61
2020-05-17 15:00:45.187 -0400,30623.02456641667,0.2103271484375,4.346771240234375,0.2547149658203125,1,0.61
2020-05-17 15:00:45.227 -0400,30623.064543,1.6484375,3.620376586914062,0.4269256591796875,1,0.61
2020-05-17 15:00:45.267 -0400,30623.10452,0.8898773193359375,1.539169311523438,0.082672119140625,1,0.61
2020-05-17 15:00:45.307 -0400,30623.144498,0.61968994140625,0.6125335693359375,-0.28094482421875,1,0.61
2020-05-17 15:00:45.347 -0400,30623.184475,0.38385009765625,-0.2894744873046875,-0.2045135498046875,1,0.61
2020-05-17 15:00:45.387 -0400,30623.224453,0.3480987548828125,-0.763031005859375,0.0322418212890625,1,0.61
2020-05-17 15:00:45.427 -0400,30623.26443,0.397705078125,-0.7702178955078125,0.0481414794921875,1,0.61
2020-05-17 15:00:45.467 -0400,30623.304408,0.4617156982421875,-0.493621826171875,0.0010223388671875,1,0.61
2020-05-17 15:00:45.507 -0400,30623.344385,0.74200439453125,-0.3215789794921875,0.212860107421875,1,0.61
2020-05-17 15:00:45.547 -0400,30623.384362,1.8453369140625,1.920623779296875,-0.2535400390625,1,0.61
2020-05-17 15:00:45.587 -0400,30623.42434,3.57537841796875,3.393722534179688,-1.151138305664062,1,0.61
2020-05-17 15:00:45.627 -0400,30623.464317,1.308319091796875,3.024932861328125,-0.7025604248046875,1,0.61
2020-05-17 15:00:45.667 -0400,30623.504295,0.006591796875,1.578857421875,-1.011581420898438,1,0.61
2020-05-17 15:00:45.707 -0400,30623.544272,-0.788970947265625,0.4970703125,-0.582427978515625,1,0.61
2020-05-17 15:00:45.747 -0400,30623.58425,-1.09857177734375,0.2237548828125,-0.416534423828125,1,0.61
2020-05-17 15:00:45.787 -0400,30623.624227,-0.7843170166015625,0.12164306640625,-0.06585693359375,1,0.61
2020-05-17 15:00:45.827 -0400,30623.664204,-0.5363616943359375,0.0082855224609375,-0.113128662109375,1,0.61
2020-05-17 15:00:45.867 -0400,30623.704182,-0.3125762939453125,0.1591339111328125,-0.1233673095703125,1,0.61
2020-05-17 15:00:45.907 -0400,30623.744159,-0.1834716796875,1.221145629882812,-0.04180908203125,1,0.61
2020-05-17 15:00:45.947 -0400,30623.784137,0.66180419921875,4.52630615234375,-0.157470703125,1,0.61
2020-05-17 15:00:45.986 -0400,30623.824114,1.276077270507812,2.678543090820312,-0.0805816650390625,1,0.61
2020-05-17 15:00:46.027 -0400,30623.864092,0.6331634521484375,1.553329467773438,-0.12860107421875,1,0.61
2020-05-17 15:00:46.067 -0400,30623.904069,0.3299560546875,0.515777587890625,-0.2671661376953125,1,0.61
2020-05-17 15:00:46.118 -0400,30623.944046,0.3420562744140625,-0.2803497314453125,-0.2592620849609375,1,0.61
2020-05-17 15:00:46.147 -0400,30623.984024,0.372314453125,-0.826385498046875,-0.0092315673828125,1,0.61
2020-05-17 15:00:46.187 -0400,30624.024001,0.442901611328125,-0.935791015625,0.13482666015625,1,0.61
2020-05-17 15:00:46.226 -0400,30624.06397975,0.5540924072265625,-0.6553802490234375,0.139404296875,1,0.61
2020-05-17 15:00:46.266 -0400,30624.10395675,0.88299560546875,-0.2627105712890625,0.08514404296875,1,0.61
2020-05-17 15:00:46.306 -0400,30624.14393375,3.459732055664062,3.920166015625,-0.732269287109375,1,0.61
2020-05-17 15:00:46.346 -0400,30624.18391175,3.377182006835938,3.91571044921875,-0.9905853271484375,1,0.61
2020-05-17 15:00:46.386 -0400,30624.22388875,0.7614898681640625,2.166473388671875,-0.783447265625,1,0.61
2020-05-17 15:00:46.426 -0400,30624.26386675,-0.3623046875,1.0400390625,-0.4429473876953125,1,0.61
2020-05-17 15:00:46.466 -0400,30624.30384375,-1.070144653320312,0.417083740234375,-0.5282745361328125,1,0.61
2020-05-17 15:00:46.506 -0400,30624.34382175,-1.140579223632812,0.05908203125,-0.330078125,1,0.61
2020-05-17 15:00:46.546 -0400,30624.38379875,-0.8220672607421875,-0.089874267578125,-0.0562744140625,1,0.61
2020-05-17 15:00:46.587 -0400,30624.42377575,-0.612884521484375,0.08160400390625,-0.1755523681640625,1,0.61
2020-05-17 15:00:46.627 -0400,30624.46375375,-0.3632049560546875,0.1154632568359375,-0.0643310546875,1,0.61
2020-05-17 15:00:46.666 -0400,30624.50373075,-0.4050750732421875,1.322662353515625,0.1338043212890625,1,0.61
2020-05-17 15:00:46.706 -0400,30624.54370875,0.8224029541015625,4.885147094726562,0.4261016845703125,1,0.61
2020-05-17 15:00:46.746 -0400,30624.58368575,1.180160522460938,3.17083740234375,0.1829833984375,1,0.61
2020-05-17 15:00:46.786 -0400,30624.62366275,0.7285919189453125,1.524139404296875,-0.0463714599609375,1,0.61
2020-05-17 15:00:46.826 -0400,30624.66364075,0.3663330078125,0.2599029541015625,-0.151824951171875,1,0.61
2020-05-17 15:00:46.866 -0400,30624.70361775,0.5888824462890625,-0.6763916015625,-0.230621337890625,1,0.61
2020-05-17 15:00:46.906 -0400,30624.74359575,0.44732666015625,-0.883392333984375,-0.0352325439453125,1,0.61
2020-05-17 15:00:46.946 -0400,30624.78357275,0.4947967529296875,-0.98187255859375,0.148773193359375,1,0.61
2020-05-17 15:00:46.986 -0400,30624.82355075,0.897064208984375,-0.4729766845703125,0.044464111328125,1,0.61
2020-05-17 15:00:47.026 -0400,30624.86352775,1.330078125,-0.132293701171875,0.142303466796875,1,0.61
2020-05-17 15:00:47.066 -0400,30624.90350475,4.147308349609375,3.612060546875,-0.5595855712890625,1,0.61
2020-05-17 15:00:47.107 -0400,30624.94348275,3.020751953125,4.448654174804688,-0.9752960205078125,1,0.61
2020-05-17 15:00:47.146 -0400,30624.98345975,0.4546356201171875,2.131027221679688,-0.888458251953125,1,0.61
2020-05-17 15:00:47.186 -0400,30625.02343775,-0.569610595703125,0.8294830322265625,-0.630126953125,1,0.61
2020-05-17 15:00:47.226 -0400,30625.06341525,-1.012176513671875,0.3217315673828125,-0.574432373046875,1,0.61
2020-05-17 15:00:47.266 -0400,30625.10339225,-0.9189910888671875,-0.0137481689453125,-0.2817840576171875,1,0.61
2020-05-17 15:00:47.306 -0400,30625.14337025,-0.6858978271484375,-0.14312744140625,-0.12799072265625,1,0.61
2020-05-17 15:00:47.346 -0400,30625.18334725,-0.5048675537109375,0.006072998046875,-0.1492156982421875,1,0.61
2020-05-17 15:00:47.386 -0400,30625.22332525,-0.315460205078125,0.3322296142578125,-0.013824462890625,1,0.61
2020-05-17 15:00:47.426 -0400,30625.26330225,-0.1559295654296875,2.420654296875,0.0240020751953125,1,0.61
2020-05-17 15:00:47.466 -0400,30625.30327925,1.907669067382812,4.551239013671875,0.439666748046875,1,0.61
2020-05-17 15:00:47.506 -0400,30625.34325725,1.258590698242188,2.16900634765625,-0.0372161865234375,1,0.61
2020-05-17 15:00:47.548 -0400,30625.38323425,0.73687744140625,0.9354400634765625,0.0406951904296875,1,0.61
2020-05-17 15:00:47.586 -0400,30625.42321225,0.3815460205078125,-0.3369598388671875,-0.1287841796875,1,0.61
2020-05-17 15:00:47.626 -0400,30625.46318925,0.554229736328125,-0.7752227783203125,-0.2537384033203125,1,0.61
2020-05-17 15:00:47.666 -0400,30625.50316625,0.447418212890625,-0.9967193603515625,-0.00225830078125,1,0.61
2020-05-17 15:00:47.705 -0400,30625.54314425,0.5245513916015625,-0.7227325439453125,0.1057281494140625,1,0.61
2020-05-17 15:00:47.745 -0400,30625.58312125,0.9372711181640625,-0.2821197509765625,0.1953277587890625,1,0.61
2020-05-17 15:00:47.786 -0400,30625.62309925,1.612472534179688,1.069915771484375,-0.2998504638671875,1,0.61
2020-05-17 15:00:47.825 -0400,30625.66307625,3.679855346679688,3.61151123046875,-1.406356811523438,1,0.61
2020-05-17 15:00:47.865 -0400,30625.70305325,1.729248046875,3.066436767578125,-0.944793701171875,1,0.61
2020-05-17 15:00:47.906 -0400,30625.74303125,0.245086669921875,1.626907348632812,-0.744659423828125,1,0.61
2020-05-17 15:00:47.945 -0400,30625.78300825,-0.560638427734375,0.520233154296875,-0.4801177978515625,1,0.61
2020-05-17 15:00:47.986 -0400,30625.82298625,-1.010009765625,0.290802001953125,-0.58026123046875,1,0.61
2020-05-17 15:00:48.025 -0400,30625.86296325,-0.8223724365234375,0.0617218017578125,-0.2575225830078125,1,0.61
2020-05-17 15:00:48.065 -0400,30625.90294025,-0.635772705078125,-0.0940399169921875,-0.040313720703125,1,0.61
2020-05-17 15:00:48.106 -0400,30625.94291825,-0.4738006591796875,-0.03521728515625,-0.0928192138671875,1,0.61
2020-05-17 15:00:48.145 -0400,30625.98289525,-0.3430023193359375,0.563995361328125,0.0475921630859375,1,0.61
2020-05-17 15:00:48.186 -0400,30626.02287325,-0.167633056640625,3.153793334960938,-0.4643402099609375,1,0.61
2020-05-17 15:00:48.225 -0400,30626.06284925,2.018142700195312,3.966064453125,0.09112548828125,1,0.61
2020-05-17 15:00:48.265 -0400,30626.10282625,1.00457763671875,1.835494995117188,-0.2734832763671875,1,0.61
2020-05-17 15:00:48.305 -0400,30626.14280425,0.677703857421875,0.6445159912109375,-0.3140411376953125,1,0.61
2020-05-17 15:00:48.346 -0400,30626.18278125,0.4676513671875,-0.3594207763671875,-0.1014862060546875,1,0.61
2020-05-17 15:00:48.385 -0400,30626.22275925,0.5833282470703125,-0.703094482421875,-0.0010986328125,1,0.61
2020-05-17 15:00:48.438 -0400,30626.26273625,0.5841522216796875,-0.676605224609375,0.15509033203125,1,0.61
2020-05-17 15:00:48.465 -0400,30626.30271325,0.5681304931640625,-0.4779815673828125,0.26385498046875,1,0.61
2020-05-17 15:00:48.505 -0400,30626.34269125,0.718597412109375,-0.1898956298828125,0.17657470703125,1,0.61
2020-05-17 15:00:48.545 -0400,30626.38266825,1.087600708007812,0.5979156494140625,-0.2325286865234375,1,0.61
2020-05-17 15:00:48.585 -0400,30626.42264625,3.928131103515625,3.77740478515625,-0.9536590576171875,1,0.61
2020-05-17 15:00:48.625 -0400,30626.46262325,2.172988891601562,3.419509887695312,-0.9981842041015625,1,0.61
2020-05-17 15:00:48.665 -0400,30626.50260025,0.6143951416015625,1.81475830078125,-0.76983642578125,1,0.61
2020-05-17 15:00:48.705 -0400,30626.54257825,-0.3040618896484375,0.715850830078125,-0.3762969970703125,1,0.61
2020-05-17 15:00:48.745 -0400,30626.58255525,-1.037109375,0.1995697021484375,-0.3565216064453125,1,0.61
2020-05-17 15:00:48.785 -0400,30626.62253325,-0.8775177001953125,0.04266357421875,-0.22833251953125,1,0.61
2020-05-17 15:00:48.825 -0400,30626.66251025,-0.6365814208984375,-0.220184326171875,-0.0294952392578125,1,0.61
2020-05-17 15:00:48.865 -0400,30626.70248725,-0.5061492919921875,-0.0130462646484375,-0.064361572265625,1,0.61
2020-05-17 15:00:48.905 -0400,30626.74246525,-0.327667236328125,0.487579345703125,0.0609588623046875,1,0.61
2020-05-17 15:00:48.945 -0400,30626.78244225,-0.397552490234375,2.3680419921875,0.00946044921875,1,0.61
2020-05-17 15:00:48.985 -0400,30626.82242025,2.005279541015625,4.416488647460938,0.538970947265625,1,0.61
2020-05-17 15:00:49.025 -0400,30626.86239725,0.9440765380859375,2.163330078125,-0.2104949951171875,1,0.61
2020-05-17 15:00:49.065 -0400,30626.90237425,0.6219024658203125,0.94805908203125,-0.079254150390625,1,0.61
2020-05-17 15:00:49.128 -0400,30626.94235225,0.4971771240234375,-0.2617340087890625,-0.0149383544921875,1,0.61
2020-05-17 15:00:49.145 -0400,30626.98232925,0.4376373291015625,-0.752960205078125,0.05462646484375,1,0.61
2020-05-17 15:00:49.185 -0400,30627.02230625,0.453521728515625,-0.9470367431640625,0.0424652099609375,1,0.61
2020-05-17 15:00:49.225 -0400,30627.062284625,0.5065155029296875,-0.531341552734375,-0.0026397705078125,1,0.61
2020-05-17 15:00:49.265 -0400,30627.102261625,0.7742156982421875,-0.22796630859375,-0.034637451171875,1,0.61
2020-05-17 15:00:49.305 -0400,30627.142239625,1.35015869140625,0.596435546875,-0.38702392578125,1,0.61
2020-05-17 15:00:49.345 -0400,30627.182216625,3.963760375976562,3.64263916015625,-1.063705444335938,1,0.61
2020-05-17 15:00:49.385 -0400,30627.222193625,1.96136474609375,2.947601318359375,-0.8089752197265625,1,0.61
2020-05-17 15:00:49.425 -0400,30627.262171625,0.47711181640625,1.613052368164062,-0.6030426025390625,1,0.61
2020-05-17 15:00:49.464 -0400,30627.302148625,-0.4070587158203125,0.524444580078125,-0.4600677490234375,1,0.61
2020-05-17 15:00:49.505 -0400,30627.342126625,-1.01263427734375,0.19464111328125,-0.5171356201171875,1,0.61
2020-05-17 15:00:49.544 -0400,30627.382103625,-0.9597320556640625,-0.03729248046875,-0.079071044921875,1,0.61
2020-05-17 15:00:49.584 -0400,30627.422080625,-0.709197998046875,-0.1149749755859375,0.000152587890625,1,0.61
2020-05-17 15:00:49.624 -0400,30627.462058625,-0.5423736572265625,-0.0734405517578125,-0.071990966796875,1,0.61
2020-05-17 15:00:49.664 -0400,30627.502035625,-0.403839111328125,0.7265777587890625,0.01177978515625,1,0.61
2020-05-17 15:00:49.704 -0400,30627.542012625,0.4058074951171875,3.32647705078125,-0.984405517578125,1,0.61
2020-05-17 15:00:49.744 -0400,30627.581990625,1.500656127929688,3.2708740234375,0.225738525390625,1,0.61
2020-05-17 15:00:49.823 -0400,30627.621967625,0.7702484130859375,1.788726806640625,-0.208740234375,1,0.61
2020-05-17 15:00:49.826 -0400,30627.661945625,0.4599456787109375,0.869903564453125,-0.2166900634765625,1,0.61
2020-05-17 15:00:49.869 -0400,30627.701922625,0.417694091796875,-0.0824127197265625,-0.0755767822265625,1,0.61
2020-05-17 15:00:49.935 -0400,30627.741899625,0.455047607421875,-0.7376861572265625,-0.1282958984375,1,0.61
2020-05-17 15:00:49.944 -0400,30627.781877625,0.369964599609375,-0.7399139404296875,-0.1456298828125,1,0.61
2020-05-17 15:00:49.984 -0400,30627.821854625,0.42254638671875,-0.5532073974609375,-0.030731201171875,1,0.61
2020-05-17 15:00:50.024 -0400,30627.861831625,0.698699951171875,-0.267578125,0.0868072509765625,1,0.61
2020-05-17 15:00:50.065 -0400,30627.901809625,1.702804565429688,1.310211181640625,-0.3297576904296875,1,0.61
2020-05-17 15:00:50.105 -0400,30627.941786625,3.352554321289062,4.029373168945312,-1.0628662109375,1,0.61
2020-05-17 15:00:50.144 -0400,30627.981764625,1.421066284179688,2.851455688476562,-0.761199951171875,1,0.61
2020-05-17 15:00:50.185 -0400,30628.021741625,0.1236724853515625,1.578689575195312,-0.7246246337890625,1,0.61
2020-05-17 15:00:50.225 -0400,30628.061718625,-0.73077392578125,0.56298828125,-0.557952880859375,1,0.61
2020-05-17 15:00:50.265 -0400,30628.10169725,-1.008102416992188,0.13446044921875,-0.556182861328125,1,0.61
2020-05-17 15:00:50.304 -0400,30628.14167425,-0.752899169921875,-0.278594970703125,-0.133331298828125,1,0.61
2020-05-17 15:00:50.344 -0400,30628.18165125,-0.5068817138671875,-0.294464111328125,-0.0455474853515625,1,0.61
2020-05-17 15:00:50.384 -0400,30628.22162925,-0.4415740966796875,-0.0012054443359375,-0.009368896484375,1,0.61
2020-05-17 15:00:50.424 -0400,30628.26160625,-0.368011474609375,0.79742431640625,0.067718505859375,1,0.61
2020-05-17 15:00:50.464 -0400,30628.30158425,0.2738037109375,4.094711303710938,-0.474822998046875,1,0.61
2020-05-17 15:00:50.504 -0400,30628.34156125,1.353134155273438,3.60205078125,-0.130523681640625,1,0.61
2020-05-17 15:00:50.547 -0400,30628.38153825,0.7548675537109375,1.603607177734375,-0.18035888671875,1,0.61
2020-05-17 15:00:50.584 -0400,30628.42151625,0.374053955078125,0.619049072265625,-0.281158447265625,1,0.61
2020-05-17 15:00:50.624 -0400,30628.46149325,0.4429473876953125,-0.413177490234375,-0.1436614990234375,1,0.61
2020-05-17 15:00:50.664 -0400,30628.50147125,0.4288787841796875,-0.767974853515625,-0.1046142578125,1,0.61
2020-05-17 15:00:50.704 -0400,30628.54144825,0.4058380126953125,-0.821258544921875,0.055511474609375,1,0.61
2020-05-17 15:00:50.744 -0400,30628.58142525,0.64544677734375,-0.464111328125,0.0258941650390625,1,0.61
2020-05-17 15:00:50.784 -0400,30628.62140325,1.043975830078125,-0.2252044677734375,0.212188720703125,1,0.61
2020-05-17 15:00:50.824 -0400,30628.66138025,2.52166748046875,2.7861328125,-0.47222900390625,1,0.61
2020-05-17 15:00:50.864 -0400,30628.70135725,2.978439331054688,3.6793212890625,-0.720489501953125,1,0.61
2020-05-17 15:00:50.904 -0400,30628.74133525,1.099395751953125,2.649520874023438,-0.5680694580078125,1,0.61
2020-05-17 15:00:50.943 -0400,30628.78131225,-0.10040283203125,1.322006225585938,-0.4009552001953125,1,0.61
2020-05-17 15:00:50.984 -0400,30628.82128925,-0.7794342041015625,0.3968963623046875,-0.464752197265625,1,0.61
2020-05-17 15:00:51.035 -0400,30628.86126725,-1.059555053710938,0.120086669921875,-0.408721923828125,1,0.61
2020-05-17 15:00:51.064 -0400,30628.90124425,-0.8399658203125,-0.01409912109375,-0.098785400390625,1,0.61
2020-05-17 15:00:51.104 -0400,30628.94122225,-0.64508056640625,0.0242462158203125,-0.0698699951171875,1,0.61
2020-05-17 15:00:51.144 -0400,30628.98119925,-0.4397430419921875,0.1326904296875,-0.1295623779296875,1,0.61
2020-05-17 15:00:51.184 -0400,30629.02117625,-0.2122039794921875,0.9455108642578125,0.090789794921875,1,0.61
2020-05-17 15:00:51.224 -0400,30629.06115425,0.296661376953125,4.384857177734375,0.0207061767578125,1,0.61
2020-05-17 15:00:51.264 -0400,30629.101130125,1.5985107421875,3.402389526367188,0.24468994140625,1,0.61
2020-05-17 15:00:51.304 -0400,30629.141107125,0.8553924560546875,1.624038696289062,-0.127166748046875,1,0.61
2020-05-17 15:00:51.344 -0400,30629.181085125,0.464324951171875,0.4909820556640625,-0.257568359375,1,0.61
2020-05-17 15:00:51.384 -0400,30629.221062125,0.318145751953125,-0.457427978515625,-0.0785369873046875,1,0.61
2020-05-17 15:00:51.423 -0400,30629.261040125,0.2490234375,-0.4989776611328125,0.0978546142578125,1,0.61
2020-05-17 15:00:51.463 -0400,30629.301017125,0.2702178955078125,-0.788116455078125,0.39727783203125,1,0.61
2020-05-17 15:00:51.503 -0400,30629.340994125,0.341461181640625,-0.5153350830078125,0.37799072265625,1,0.61
2020-05-17 15:00:51.543 -0400,30629.380972125,0.8252716064453125,-0.228729248046875,0.143829345703125,1,0.61
2020-05-17 15:00:51.583 -0400,30629.420949125,2.367019653320312,1.656707763671875,-0.737213134765625,1,0.61
2020-05-17 15:00:51.623 -0400,30629.460926125,3.447662353515625,3.72900390625,-0.6557159423828125,1,0.61
2020-05-17 15:00:51.664 -0400,30629.500904125,1.535751342773438,2.842788696289062,-1.149948120117188,1,0.61
2020-05-17 15:00:51.703 -0400,30629.540881125,0.05230712890625,1.293182373046875,-0.4737701416015625,1,0.61
2020-05-17 15:00:51.743 -0400,30629.580858125,-0.8021392822265625,0.7295379638671875,-0.5401153564453125,1,0.61
2020-05-17 15:00:51.783 -0400,30629.620836125,-1.123992919921875,0.245880126953125,-0.439056396484375,1,0.61
2020-05-17 15:00:51.823 -0400,30629.660813125,-0.8093109130859375,0.0213775634765625,-0.108551025390625,1,0.61
2020-05-17 15:00:51.863 -0400,30629.700790125,-0.570648193359375,-0.029449462890625,-0.1435089111328125,1,0.61
2020-05-17 15:00:51.903 -0400,30629.740768125,-0.476409912109375,0.119873046875,-0.138214111328125,1,0.61
2020-05-17 15:00:51.943 -0400,30629.780745125,-0.473907470703125,1.028533935546875,0.30975341796875,1,0.61
2020-05-17 15:00:51.983 -0400,30629.820723125,0.3736419677734375,4.168685913085938,0.2490692138671875,1,0.61
2020-05-17 15:00:52.023 -0400,30629.860700125,1.512008666992188,3.779144287109375,0.0387725830078125,1,0.61
2020-05-17 15:00:52.063 -0400,30629.900677125,1.0123291015625,1.683349609375,-0.001556396484375,1,0.61
2020-05-17 15:00:52.103 -0400,30629.940655125,0.6224365234375,0.2450408935546875,-0.071319580078125,1,0.61
2020-05-17 15:00:52.143 -0400,30629.980632125,0.547821044921875,-0.6518707275390625,-0.16119384765625,1,0.61
2020-05-17 15:00:52.183 -0400,30630.020609125,0.6375274658203125,-0.9787139892578125,-0.1013031005859375,1,0.61
2020-05-17 15:00:52.223 -0400,30630.060587125,0.64166259765625,-0.7390289306640625,0.0162353515625,1,0.61
2020-05-17 15:00:52.263 -0400,30630.10056516667,0.7558441162109375,-0.3517913818359375,0.106048583984375,1,0.61
2020-05-17 15:00:52.303 -0400,30630.14054216667,0.9652557373046875,-0.17852783203125,0.08258056640625,1,0.61
2020-05-17 15:00:52.343 -0400,30630.18052016667,2.45758056640625,2.813934326171875,-0.5585174560546875,1,0.61
2020-05-17 15:00:52.383 -0400,30630.22049716667,3.02398681640625,4.1676025390625,-0.82977294921875,1,0.61
2020-05-17 15:00:52.423 -0400,30630.26047416667,1.247421264648438,2.445953369140625,-0.544708251953125,1,0.61
2020-05-17 15:00:52.463 -0400,30630.30045216667,0.0789337158203125,1.395477294921875,-0.548583984375,1,0.61
2020-05-17 15:00:52.503 -0400,30630.34042916667,-0.707550048828125,0.4915924072265625,-0.4636688232421875,1,0.61
2020-05-17 15:00:52.543 -0400,30630.38040716667,-1.054840087890625,0.0868988037109375,-0.4056854248046875,1,0.61
2020-05-17 15:00:52.584 -0400,30630.42038416667,-0.745391845703125,-0.1250762939453125,-0.05194091796875,1,0.61
2020-05-17 15:00:52.623 -0400,30630.46036116667,-0.6647796630859375,-0.0965728759765625,-0.0138092041015625,1,0.61
2020-05-17 15:01:56.467 -0400,30694.303451625,-0.2722320556640625,0.1522979736328125,-1.070205688476562,1,0.61
2020-05-17 15:01:56.505 -0400,30694.343427625,-0.216552734375,0.0501861572265625,-0.83758544921875,1,0.61
2020-05-17 15:01:56.545 -0400,30694.383403625,-0.2011260986328125,-0.0218963623046875,-0.723480224609375,1,0.61
2020-05-17 15:01:56.585 -0400,30694.423380625,-0.15447998046875,-0.053924560546875,-0.70086669921875,1,0.61
2020-05-17 15:01:56.625 -0400,30694.463356625,-0.18975830078125,-0.13519287109375,-0.696929931640625,1,0.61
2020-05-17 15:01:56.665 -0400,30694.503333625,-0.2335968017578125,-0.1083526611328125,-0.870025634765625,1,0.61
2020-05-17 15:01:56.705 -0400,30694.543309625,-0.207000732421875,-0.154022216796875,-0.925079345703125,1,0.61
2020-05-17 15:01:56.745 -0400,30694.583286625,-0.2899627685546875,-0.081390380859375,-0.9384613037109375,1,0.61
2020-05-17 15:01:56.785 -0400,30694.623262625,-0.24658203125,-0.1593780517578125,-1.012435913085938,1,0.61
2020-05-17 15:01:56.825 -0400,30694.663239625,-0.27191162109375,-0.2612152099609375,-1.105545043945312,1,0.61
2020-05-17 15:01:56.865 -0400,30694.703215625,-0.289337158203125,-0.239013671875,-1.160964965820312,1,0.61
2020-05-17 15:01:56.905 -0400,30694.743192625,-0.1314544677734375,-0.0440673828125,-1.329635620117188,1,0.61
2020-05-17 15:01:56.945 -0400,30694.783168625,-0.0902252197265625,-0.0316619873046875,-1.15447998046875,1,0.61
2020-05-17 15:01:56.985 -0400,30694.823145625,-0.094635009765625,-0.1045379638671875,-1.040725708007812,1,0.61
2020-05-17 15:01:57.025 -0400,30694.863121625,-0.108795166015625,-0.1083221435546875,-1.006423950195312,1,0.61
