loggingTime(txt),locationTimestamp_since1970(s),locationLatitude(WGS84),locationLongitude(WGS84),locationAltitude(m),locationSpeed(m/s),locationCourse(°),locationVerticalAccuracy(m),locationHorizontalAccuracy(m),locationFloor(Z),accelerometerTimestamp_sinceReboot(s),accelerometerAccelerationX(G),accelerometerAccelerationY(G),accelerometerAccelerationZ(G),batteryState,batteryLevel
2020-05-18 19:15:31.231 -0400,1589843730.946968,41.35132014738739,-71.83796823377402,12.62879,-1,-1,29.65335845947266,165,-9999,52671.38760712501,0.0496063232421875,-0.1218109130859375,-0.5691070556640625,1,0.92
2020-05-18 19:15:31.277 -0400,1589843730.946968,41.35132014738739,-71.83796823377402,12.62879,-1,-1,29.65335845947266,165,-9999,52671.43749112501,-0.0206298828125,-0.07025146484375,-0.5645904541015625,1,0.92
2020-05-18 19:15:31.327 -0400,1589843730.946968,41.35132014738739,-71.83796823377402,12.62879,-1,-1,29.65335845947266,165,-9999,52671.48737612501,-0.0118408203125,-0.0620574951171875,-0.6906585693359375,1,0.92
2020-05-18 19:15:31.377 -0400,1589843730.999812,41.35118007529113,-71.8374346620835,2.19355,1.030936,135.9754076552606,4.887350179591516,6.14411345890644,-9999,52671.53726012501,0.0551910400390625,-0.068511962890625,-0.9450836181640625,1,0.92
2020-05-18 19:15:31.427 -0400,1589843730.999812,41.35118007529113,-71.8374346620835,2.19355,1.030936,135.9754076552606,4.887350179591516,6.14411345890644,-9999,52671.587146375,0.0938262939453125,0.0215606689453125,-1.129959106445312,1,0.92
2020-05-18 19:15:31.477 -0400,1589843730.999812,41.35118007529113,-71.8374346620835,2.19355,1.030936,135.9754076552606,4.887350179591516,6.14411345890644,-9999,52671.637032375,0.1626739501953125,0.1875,-1.284378051757812,1,0.92
2020-05-18 19:15:31.527 -0400,1589843730.999812,41.35118007529113,-71.8374346620835,2.19355,1.030936,135.9754076552606,4.887350179591516,6.14411345890644,-9999,52671.686918375,0.393402099609375,0.39959716796875,-1.358489990234375,1,0.92
2020-05-18 19:15:31.577 -0400,1589843730.999812,41.35118007529113,-71.8374346620835,2.19355,1.030936,135.9754076552606,4.887350179591516,6.14411345890644,-9999,52671.736804375,0.3542327880859375,0.3267822265625,-1.127883911132812,1,0.92
2020-05-18 19:15:31.627 -0400,1589843730.999812,41.35118007529113,-71.8374346620835,2.19355,1.030936,135.9754076552606,4.887350179591516,6.14411345890644,-9999,52671.786691375,0.5117950439453125,0.0914459228515625,-0.82879638671875,1,0.92
2020-05-18 19:15:31.676 -0400,1589843730.999812,41.35118007529113,-71.8374346620835,2.19355,1.030936,135.9754076552606,4.887350179591516,6.14411345890644,-9999,52671.83657837501,0.4020233154296875,0.083343505859375,-0.490234375,1,0.92
2020-05-18 19:15:31.726 -0400,1589843730.999812,41.35118007529113,-71.8374346620835,2.19355,1.030936,135.9754076552606,4.887350179591516,6.14411345890644,-9999,52671.88646637501,0.353363037109375,0.152191162109375,-0.42974853515625,1,0.92
2020-05-18 19:15:31.776 -0400,1589843730.999812,41.35118007529113,-71.8374346620835,2.19355,1.030936,135.9754076552606,4.887350179591516,6.14411345890644,-9999,52671.936356375,0.3393402099609375,0.30755615234375,-0.4342803955078125,1,0.92
2020-05-18 19:15:31.826 -0400,1589843730.999812,41.35118007529113,-71.8374346620835,2.19355,1.030936,135.9754076552606,4.887350179591516,6.14411345890644,-9999,52671.986245375,0.3732757568359375,0.345947265625,-0.313507080078125,1,0.92
2020-05-18 19:15:31.876 -0400,1589843730.999812,41.35118007529113,-71.8374346620835,2.19355,1.030936,135.9754076552606,4.887350179591516,6.14411345890644,-9999,52672.036131375,0.5832061767578125,0.505859375,-0.3193206787109375,1,0.92
2020-05-18 19:15:31.926 -0400,1589843730.999812,41.35118007529113,-71.8374346620835,2.19355,1.030936,135.9754076552606,4.887350179591516,6.14411345890644,-9999,52672.086017375,0.6900177001953125,0.7443389892578125,-0.3461151123046875,1,0.92
2020-05-18 19:15:31.976 -0400,1589843730.999812,41.35118007529113,-71.8374346620835,2.19355,1.030936,135.9754076552606,4.887350179591516,6.14411345890644,-9999,52672.13590337501,0.880859375,0.9506378173828125,-0.367828369140625,1,0.92
2020-05-18 19:15:32.026 -0400,1589843730.999812,41.35118007529113,-71.8374346620835,2.19355,1.030936,135.9754076552606,4.887350179591516,6.14411345890644,-9999,52672.18579037501,1.272552490234375,1.587142944335938,-0.5036773681640625,1,0.92
2020-05-18 19:15:32.076 -0400,1589843730.999812,41.35118007529113,-71.8374346620835,2.19355,1.030936,135.9754076552606,4.887350179591516,6.14411345890644,-9999,52672.235678375,1.874114990234375,2.586105346679688,-1.05242919921875,1,0.92
2020-05-18 19:15:32.126 -0400,1589843730.999812,41.35118007529113,-71.8374346620835,2.19355,1.030936,135.9754076552606,4.887350179591516,6.14411345890644,-9999,52672.285568375,1.165847778320312,1.69647216796875,-0.7100677490234375,1,0.92
2020-05-18 19:15:32.179 -0400,1589843730.999812,41.35118007529113,-71.8374346620835,2.19355,1.030936,135.9754076552606,4.887350179591516,6.14411345890644,-9999,52672.335460375,0.1991119384765625,1.0419921875,-0.4379730224609375,1,0.92
2020-05-18 19:15:32.226 -0400,1589843730.999812,41.35118007529113,-71.8374346620835,2.19355,1.030936,135.9754076552606,4.887350179591516,6.14411345890644,-9999,52672.385350375,-0.3988037109375,0.3390655517578125,-0.3529815673828125,1,0.92
2020-05-18 19:15:32.275 -0400,1589843730.999812,41.35118007529113,-71.8374346620835,2.19355,1.030936,135.9754076552606,4.887350179591516,6.14411345890644,-9999,52672.435239375,-0.63653564453125,-0.011962890625,-0.30169677734375,1,0.92
2020-05-18 19:15:32.325 -0400,1589843730.999812,41.35118007529113,-71.8374346620835,2.19355,1.030936,135.9754076552606,4.887350179591516,6.14411345890644,-9999,52672.485129375,-0.4499664306640625,-0.1308135986328125,-0.01556396484375,1,0.92
2020-05-18 19:15:32.376 -0400,1589843730.999812,41.35118007529113,-71.8374346620835,2.19355,1.030936,135.9754076552606,4.887350179591516,6.14411345890644,-9999,52672.535016375,-0.192138671875,0.14306640625,-0.012420654296875,1,0.92
2020-05-18 19:15:32.425 -0400,1589843730.999812,41.35118007529113,-71.8374346620835,2.19355,1.030936,135.9754076552606,4.887350179591516,6.14411345890644,-9999,52672.58490454167,-0.489013671875,1.132736206054688,0.1786041259765625,1,0.92
2020-05-18 19:15:32.475 -0400,1589843730.999812,41.35118007529113,-71.8374346620835,2.19355,1.030936,135.9754076552606,4.887350179591516,6.14411345890644,-9999,52672.63479154167,0.6977386474609375,4.123123168945312,-0.106231689453125,1,0.92
2020-05-18 19:15:32.526 -0400,1589843730.999812,41.35118007529113,-71.8374346620835,2.19355,1.030936,135.9754076552606,4.887350179591516,6.14411345890644,-9999,52672.68467654167,0.9108734130859375,2.592071533203125,-0.4440460205078125,1,0.92
2020-05-18 19:15:32.574 -0400,1589843731.999803,41.35114976044789,-71.837425154817,-2.996278,1.393685,147.088718260722,3.583717733348476,5.963749326282781,-9999,52672.73456354167,0.5929718017578125,0.661041259765625,-0.0391387939453125,1,0.92
2020-05-18 19:15:32.630 -0400,1589843731.999803,41.35114976044789,-71.837425154817,-2.996278,1.393685,147.088718260722,3.583717733348476,5.963749326282781,-9999,52672.78444754167,0.652374267578125,-0.4744873046875,-0.194610595703125,1,0.92
2020-05-18 19:15:32.674 -0400,1589843731.999803,41.35114976044789,-71.837425154817,-2.996278,1.393685,147.088718260722,3.583717733348476,5.963749326282781,-9999,52672.83433454167,0.5740509033203125,-0.9399261474609375,-0.0822601318359375,1,0.92
2020-05-18 19:15:32.724 -0400,1589843731.999803,41.35114976044789,-71.837425154817,-2.996278,1.393685,147.088718260722,3.583717733348476,5.963749326282781,-9999,52672.88421854167,0.5700225830078125,-0.702850341796875,0.161895751953125,1,0.92
2020-05-18 19:15:32.775 -0400,1589843731.999803,41.35114976044789,-71.837425154817,-2.996278,1.393685,147.088718260722,3.583717733348476,5.963749326282781,-9999,52672.93410254167,0.82427978515625,-0.0763092041015625,0.0020904541015625,1,0.92
2020-05-18 19:15:32.824 -0400,1589843731.999803,41.35114976044789,-71.837425154817,-2.996278,1.393685,147.088718260722,3.583717733348476,5.963749326282781,-9999,52672.98398654167,1.822479248046875,1.961746215820312,-0.3499298095703125,1,0.92
2020-05-18 19:15:32.874 -0400,1589843731.999803,41.35114976044789,-71.837425154817,-2.996278,1.393685,147.088718260722,3.583717733348476,5.963749326282781,-9999,52673.03387454167,3.074005126953125,3.872085571289062,-0.943878173828125,1,0.92
2020-05-18 19:15:32.924 -0400,1589843731.999803,41.35114976044789,-71.837425154817,-2.996278,1.393685,147.088718260722,3.583717733348476,5.963749326282781,-9999,52673.08376354167,0.634674072265625,2.097610473632812,-0.944305419921875,1,0.92
2020-05-18 19:15:32.974 -0400,1589843731.999803,41.35114976044789,-71.837425154817,-2.996278,1.393685,147.088718260722,3.583717733348476,5.963749326282781,-9999,52673.13365254167,-0.483795166015625,0.3821563720703125,-0.2613983154296875,1,0.92
2020-05-18 19:15:33.024 -0400,1589843731.999803,41.35114976044789,-71.837425154817,-2.996278,1.393685,147.088718260722,3.583717733348476,5.963749326282781,-9999,52673.18354054167,-1.135360717773438,-0.0027618408203125,-0.336639404296875,1,0.92
2020-05-18 19:15:33.078 -0400,1589843731.999803,41.35114976044789,-71.837425154817,-2.996278,1.393685,147.088718260722,3.583717733348476,5.963749326282781,-9999,52673.23342854167,-0.722137451171875,-0.162872314453125,0.0727081298828125,1,0.92
2020-05-18 19:15:33.123 -0400,1589843731.999803,41.35114976044789,-71.837425154817,-2.996278,1.393685,147.088718260722,3.583717733348476,5.963749326282781,-9999,52673.28331454167,-0.45318603515625,-0.058563232421875,0.0647125244140625,1,0.92
2020-05-18 19:15:33.178 -0400,1589843731.999803,41.35114976044789,-71.837425154817,-2.996278,1.393685,147.088718260722,3.583717733348476,5.963749326282781,-9999,52673.33319954167,-0.4810791015625,0.80224609375,-0.0078277587890625,1,0.92
2020-05-18 19:15:33.223 -0400,1589843731.999803,41.35114976044789,-71.837425154817,-2.996278,1.393685,147.088718260722,3.583717733348476,5.963749326282781,-9999,52673.38308654167,0.5139312744140625,4.535751342773438,0.093780517578125,1,0.92
2020-05-18 19:15:33.273 -0400,1589843731.999803,41.35114976044789,-71.837425154817,-2.996278,1.393685,147.088718260722,3.583717733348476,5.963749326282781,-9999,52673.43297054167,0.77545166015625,2.987991333007812,-0.364837646484375,1,0.92
2020-05-18 19:15:33.323 -0400,1589843731.999803,41.35114976044789,-71.837425154817,-2.996278,1.393685,147.088718260722,3.583717733348476,5.963749326282781,-9999,52673.48285554167,0.6258392333984375,0.8329010009765625,0.03778076171875,1,0.92
2020-05-18 19:15:33.375 -0400,1589843731.999803,41.35114976044789,-71.837425154817,-2.996278,1.393685,147.088718260722,3.583717733348476,5.963749326282781,-9999,52673.53273854167,0.7118072509765625,-0.472808837890625,0.0880889892578125,1,0.92
2020-05-18 19:15:33.423 -0400,1589843732.999799,41.35116178634634,-71.83742465036039,0.7153763,1.307382,145.0871930839398,3.218841903940821,5.744912928470399,-9999,52673.58262450001,0.5709381103515625,-1.071792602539062,0.1534881591796875,1,0.92
2020-05-18 19:15:33.472 -0400,1589843732.999799,41.35116178634634,-71.83742465036039,0.7153763,1.307382,145.0871930839398,3.218841903940821,5.744912928470399,-9999,52673.63250750001,0.7968902587890625,-0.7945098876953125,0.1669921875,1,0.92
2020-05-18 19:15:33.523 -0400,1589843732.999799,41.35116178634634,-71.83742465036039,0.7153763,1.307382,145.0871930839398,3.218841903940821,5.744912928470399,-9999,52673.68239350001,1.300003051757812,-0.083465576171875,0.0720367431640625,1,0.92
2020-05-18 19:15:33.572 -0400,1589843732.999799,41.35116178634634,-71.83742465036039,0.7153763,1.307382,145.0871930839398,3.218841903940821,5.744912928470399,-9999,52673.7322805,3.285751342773438,3.66961669921875,-0.6878509521484375,1,0.92
2020-05-18 19:15:33.659 -0400,1589843732.999799,41.35116178634634,-71.83742465036039,0.7153763,1.307382,145.0871930839398,3.218841903940821,5.744912928470399,-9999,52673.7821665,2.132614135742188,3.388015747070312,-1.03668212890625,1,0.92
2020-05-18 19:15:33.672 -0400,1589843732.999799,41.35116178634634,-71.83742465036039,0.7153763,1.307382,145.0871930839398,3.218841903940821,5.744912928470399,-9999,52673.8320555,0.334014892578125,1.7701416015625,-0.7540283203125,1,0.92
2020-05-18 19:15:33.729 -0400,1589843732.999799,41.35116178634634,-71.83742465036039,0.7153763,1.307382,145.0871930839398,3.218841903940821,5.744912928470399,-9999,52673.8819445,-0.498565673828125,0.2907867431640625,-0.3966064453125,1,0.92
2020-05-18 19:15:33.772 -0400,1589843732.999799,41.35116178634634,-71.83742465036039,0.7153763,1.307382,145.0871930839398,3.218841903940821,5.744912928470399,-9999,52673.93183150001,-0.7813262939453125,0.0753631591796875,-0.0899200439453125,1,0.92
2020-05-18 19:15:33.822 -0400,1589843732.999799,41.35116178634634,-71.83742465036039,0.7153763,1.307382,145.0871930839398,3.218841903940821,5.744912928470399,-9999,52673.98171550001,-0.5242919921875,-0.0433807373046875,0.052947998046875,1,0.92
2020-05-18 19:15:33.871 -0400,1589843732.999799,41.35116178634634,-71.83742465036039,0.7153763,1.307382,145.0871930839398,3.218841903940821,5.744912928470399,-9999,52674.03160250001,-0.216827392578125,0.2038421630859375,-0.1026763916015625,1,0.92
2020-05-18 19:15:33.922 -0400,1589843732.999799,41.35116178634634,-71.83742465036039,0.7153763,1.307382,145.0871930839398,3.218841903940821,5.744912928470399,-9999,52674.0814935,-0.2371826171875,0.755340576171875,0.1125030517578125,1,0.92
2020-05-18 19:15:33.972 -0400,1589843732.999799,41.35116178634634,-71.83742465036039,0.7153763,1.307382,145.0871930839398,3.218841903940821,5.744912928470399,-9999,52674.1313845,-0.253265380859375,4.304168701171875,0.10986328125,1,0.92
2020-05-18 19:15:34.021 -0400,1589843732.999799,41.35116178634634,-71.83742465036039,0.7153763,1.307382,145.0871930839398,3.218841903940821,5.744912928470399,-9999,52674.18127250001,0.85211181640625,2.397247314453125,-0.1728668212890625,1,0.92
2020-05-18 19:15:34.071 -0400,1589843732.999799,41.35116178634634,-71.83742465036039,0.7153763,1.307382,145.0871930839398,3.218841903940821,5.744912928470399,-9999,52674.23116050001,0.448333740234375,1.046707153320312,-0.14599609375,1,0.92
2020-05-18 19:15:34.121 -0400,1589843732.999799,41.35116178634634,-71.83742465036039,0.7153763,1.307382,145.0871930839398,3.218841903940821,5.744912928470399,-9999,52674.2810495,0.3020782470703125,-0.2113494873046875,-0.0576934814453125,1,0.92
2020-05-18 19:15:34.171 -0400,1589843732.999799,41.35116178634634,-71.83742465036039,0.7153763,1.307382,145.0871930839398,3.218841903940821,5.744912928470399,-9999,52674.3309395,0.3836517333984375,-0.839385986328125,-0.0042877197265625,1,0.92
2020-05-18 19:15:34.221 -0400,1589843732.999799,41.35116178634634,-71.83742465036039,0.7153763,1.307382,145.0871930839398,3.218841903940821,5.744912928470399,-9999,52674.3808275,0.546661376953125,-0.87127685546875,-0.0041351318359375,1,0.92
2020-05-18 19:15:34.271 -0400,1589843732.999799,41.35116178634634,-71.83742465036039,0.7153763,1.307382,145.0871930839398,3.218841903940821,5.744912928470399,-9999,52674.43071250001,1.162826538085938,-0.210205078125,0.1436767578125,1,0.92
2020-05-18 19:15:34.321 -0400,1589843732.999799,41.35116178634634,-71.83742465036039,0.7153763,1.307382,145.0871930839398,3.218841903940821,5.744912928470399,-9999,52674.48059850001,2.4600830078125,2.537017822265625,0.2016754150390625,1,0.92
2020-05-18 19:15:34.370 -0400,1589843732.999799,41.35116178634634,-71.83742465036039,0.7153763,1.307382,145.0871930839398,3.218841903940821,5.744912928470399,-9999,52674.53048450001,2.932601928710938,5.013778686523438,-0.6887054443359375,1,0.92
2020-05-18 19:15:34.420 -0400,1589843732.999799,41.35116178634634,-71.83742465036039,0.7153763,1.307382,145.0871930839398,3.218841903940821,5.744912928470399,-9999,52674.58037054167,0.2958984375,2.156646728515625,-0.6575775146484375,1,0.92
2020-05-18 19:15:34.470 -0400,1589843732.999799,41.35116178634634,-71.83742465036039,0.7153763,1.307382,145.0871930839398,3.218841903940821,5.744912928470399,-9999,52674.63025754167,-0.9329376220703125,0.222076416015625,-0.3801116943359375,1,0.92
2020-05-18 19:15:34.520 -0400,1589843732.999799,41.35116178634634,-71.83742465036039,0.7153763,1.307382,145.0871930839398,3.218841903940821,5.744912928470399,-9999,52674.68014454167,-1.044265747070312,0.04766845703125,-0.3321380615234375,1,0.92
2020-05-18 19:15:34.570 -0400,1589843732.999799,41.35116178634634,-71.83742465036039,0.7153763,1.307382,145.0871930839398,3.218841903940821,5.744912928470399,-9999,52674.73003054167,-0.596710205078125,-0.1285247802734375,-0.124359130859375,1,0.92
2020-05-18 19:15:34.620 -0400,1589843732.999799,41.35116178634634,-71.83742465036039,0.7153763,1.307382,145.0871930839398,3.218841903940821,5.744912928470399,-9999,52674.77991754167,-0.3174896240234375,0.0058135986328125,-0.1493682861328125,1,0.92
2020-05-18 19:15:34.670 -0400,1589843732.999799,41.35116178634634,-71.83742465036039,0.7153763,1.307382,145.0871930839398,3.218841903940821,5.744912928470399,-9999,52674.82980454167,-0.2644500732421875,0.6790618896484375,0.1343994140625,1,0.92
2020-05-18 19:15:34.720 -0400,1589843732.999799,41.35116178634634,-71.83742465036039,0.7153763,1.307382,145.0871930839398,3.218841903940821,5.744912928470399,-9999,52674.87969254167,-0.650970458984375,3.755325317382812,0.4448394775390625,1,0.92
2020-05-18 19:15:34.769 -0400,1589843732.999799,41.35116178634634,-71.83742465036039,0.7153763,1.307382,145.0871930839398,3.218841903940821,5.744912928470399,-9999,52674.92958054167,0.9719390869140625,2.338623046875,0.2527923583984375,1,0.92
2020-05-18 19:15:34.824 -0400,1589843733.999807,41.35113665365628,-71.83741871563629,0.3415997,1.628613,152.9770928076685,3.230303195860219,5.504535598614146,-9999,52674.97947054167,0.4805450439453125,1.378616333007812,-0.047027587890625,1,0.92
2020-05-18 19:15:34.869 -0400,1589843733.999807,41.35113665365628,-71.83741871563629,0.3415997,1.628613,152.9770928076685,3.230303195860219,5.504535598614146,-9999,52675.02935854167,0.5146484375,0.0495147705078125,-0.18255615234375,1,0.92
2020-05-18 19:15:34.919 -0400,1589843733.999807,41.35113665365628,-71.83741871563629,0.3415997,1.628613,152.9770928076685,3.230303195860219,5.504535598614146,-9999,52675.07924854167,0.5354766845703125,-0.8072052001953125,0.1684722900390625,1,0.92
2020-05-18 19:15:34.969 -0400,1589843733.999807,41.35113665365628,-71.83741871563629,0.3415997,1.628613,152.9770928076685,3.230303195860219,5.504535598614146,-9999,52675.12913854167,0.6622467041015625,-0.9433441162109375,0.278564453125,1,0.92
2020-05-18 19:15:35.019 -0400,1589843733.999807,41.35113665365628,-71.83741871563629,0.3415997,1.628613,152.9770928076685,3.230303195860219,5.504535598614146,-9999,52675.17902554167,1.087539672851562,-0.01263427734375,0.0068206787109375,1,0.92
2020-05-18 19:15:35.069 -0400,1589843733.999807,41.35113665365628,-71.83741871563629,0.3415997,1.628613,152.9770928076685,3.230303195860219,5.504535598614146,-9999,52675.22891454167,2.579849243164062,1.980209350585938,-0.9813385009765625,1,0.92
2020-05-18 19:15:35.119 -0400,1589843733.999807,41.35113665365628,-71.83741871563629,0.3415997,1.628613,152.9770928076685,3.230303195860219,5.504535598614146,-9999,52675.27880354167,2.747283935546875,3.271759033203125,-2.032943725585938,1,0.92
2020-05-18 19:15:35.169 -0400,1589843733.999807,41.35113665365628,-71.83741871563629,0.3415997,1.628613,152.9770928076685,3.230303195860219,5.504535598614146,-9999,52675.32869554167,0.3638916015625,1.836029052734375,-1.738388061523438,1,0.92
2020-05-18 19:15:35.219 -0400,1589843733.999807,41.35113665365628,-71.83741871563629,0.3415997,1.628613,152.9770928076685,3.230303195860219,5.504535598614146,-9999,52675.37858754167,-0.591949462890625,0.636627197265625,-0.6650390625,1,0.92
2020-05-18 19:15:35.268 -0400,1589843733.999807,41.35113665365628,-71.83741871563629,0.3415997,1.628613,152.9770928076685,3.230303195860219,5.504535598614146,-9999,52675.42847854167,-1.051361083984375,-0.0482635498046875,-0.05487060546875,1,0.92
2020-05-18 19:15:35.318 -0400,1589843733.999807,41.35113665365628,-71.83741871563629,0.3415997,1.628613,152.9770928076685,3.230303195860219,5.504535598614146,-9999,52675.47836754167,-0.5343170166015625,-0.2456512451171875,0.0111541748046875,1,0.92
2020-05-18 19:15:35.368 -0400,1589843733.999807,41.35113665365628,-71.83741871563629,0.3415997,1.628613,152.9770928076685,3.230303195860219,5.504535598614146,-9999,52675.52825654167,-0.2841644287109375,0.071197509765625,-0.095550537109375,1,0.92
2020-05-18 19:15:35.418 -0400,1589843733.999807,41.35113665365628,-71.83741871563629,0.3415997,1.628613,152.9770928076685,3.230303195860219,5.504535598614146,-9999,52675.5781445,-0.274261474609375,0.725250244140625,-0.073577880859375,1,0.92
2020-05-18 19:15:35.468 -0400,1589843733.999807,41.35113665365628,-71.83741871563629,0.3415997,1.628613,152.9770928076685,3.230303195860219,5.504535598614146,-9999,52675.6280335,0.3671112060546875,4.430465698242188,-0.815093994140625,1,0.92
2020-05-18 19:15:35.518 -0400,1589843733.999807,41.35113665365628,-71.83741871563629,0.3415997,1.628613,152.9770928076685,3.230303195860219,5.504535598614146,-9999,52675.67792050001,0.538726806640625,2.3455810546875,-0.606781005859375,1,0.92
2020-05-18 19:15:35.568 -0400,1589843733.999807,41.35113665365628,-71.83741871563629,0.3415997,1.628613,152.9770928076685,3.230303195860219,5.504535598614146,-9999,52675.7278095,0.460205078125,0.76171875,-0.117279052734375,1,0.92
2020-05-18 19:15:35.618 -0400,1589843733.999807,41.35113665365628,-71.83741871563629,0.3415997,1.628613,152.9770928076685,3.230303195860219,5.504535598614146,-9999,52675.7777005,0.51544189453125,-0.2872314453125,-0.0345306396484375,1,0.92
2020-05-18 19:15:35.668 -0400,1589843733.999807,41.35113665365628,-71.83741871563629,0.3415997,1.628613,152.9770928076685,3.230303195860219,5.504535598614146,-9999,52675.8275885,0.5106658935546875,-0.84716796875,0.1777496337890625,1,0.92
2020-05-18 19:15:35.718 -0400,1589843733.999807,41.35113665365628,-71.83741871563629,0.3415997,1.628613,152.9770928076685,3.230303195860219,5.504535598614146,-9999,52675.87747850001,0.6428985595703125,-0.729583740234375,0.2740936279296875,1,0.92
2020-05-18 19:15:35.767 -0400,1589843733.999807,41.35113665365628,-71.83741871563629,0.3415997,1.628613,152.9770928076685,3.230303195860219,5.504535598614146,-9999,52675.9273715,1.02459716796875,0.03436279296875,0.002166748046875,1,0.92
2020-05-18 19:15:35.817 -0400,1589843733.999807,41.35113665365628,-71.83741871563629,0.3415997,1.628613,152.9770928076685,3.230303195860219,5.504535598614146,-9999,52675.9772645,2.536407470703125,2.70263671875,-0.6861724853515625,1,0.92
2020-05-18 19:15:35.867 -0400,1589843733.999807,41.35113665365628,-71.83741871563629,0.3415997,1.628613,152.9770928076685,3.230303195860219,5.504535598614146,-9999,52676.0271555,2.663650512695312,3.716934204101562,-1.065444946289062,1,0.92
2020-05-18 19:15:35.917 -0400,1589843733.999807,41.35113665365628,-71.83741871563629,0.3415997,1.628613,152.9770928076685,3.230303195860219,5.504535598614146,-9999,52676.0770435,0.42333984375,1.802291870117188,-0.6551513671875,1,0.92
2020-05-18 19:15:35.967 -0400,1589843733.999807,41.35113665365628,-71.83741871563629,0.3415997,1.628613,152.9770928076685,3.230303195860219,5.504535598614146,-9999,52676.1269295,-0.7509307861328125,0.355682373046875,-0.354217529296875,1,0.92
2020-05-18 19:15:36.017 -0400,1589843733.999807,41.35113665365628,-71.83741871563629,0.3415997,1.628613,152.9770928076685,3.230303195860219,5.504535598614146,-9999,52676.1768165,-1.065032958984375,0.141357421875,-0.3325042724609375,1,0.92
2020-05-18 19:15:36.067 -0400,1589843733.999807,41.35113665365628,-71.83741871563629,0.3415997,1.628613,152.9770928076685,3.230303195860219,5.504535598614146,-9999,52676.22670650001,-0.579132080078125,-0.18548583984375,-0.029632568359375,1,0.92
2020-05-18 19:15:36.116 -0400,1589843733.999807,41.35113665365628,-71.83741871563629,0.3415997,1.628613,152.9770928076685,3.230303195860219,5.504535598614146,-9999,52676.27659450001,-0.346923828125,-0.018463134765625,-0.0020751953125,1,0.92
2020-05-18 19:15:36.167 -0400,1589843733.999807,41.35113665365628,-71.83741871563629,0.3415997,1.628613,152.9770928076685,3.230303195860219,5.504535598614146,-9999,52676.3264855,-0.3693389892578125,0.891632080078125,0.29876708984375,1,0.92
2020-05-18 19:15:36.216 -0400,1589843734.999807,41.35111937295373,-71.83741435428638,2.373333,1.675928,161.537870806621,3.347936390827475,5.418806109073182,-9999,52676.3763725,-0.018463134765625,4.40679931640625,0.452392578125,1,0.92
2020-05-18 19:15:36.266 -0400,1589843734.999807,41.35111937295373,-71.83741435428638,2.373333,1.675928,161.537870806621,3.347936390827475,5.418806109073182,-9999,52676.4262595,0.9024658203125,2.275848388671875,-0.0014190673828125,1,0.92
2020-05-18 19:15:36.316 -0400,1589843734.999807,41.35111937295373,-71.83741435428638,2.373333,1.675928,161.537870806621,3.347936390827475,5.418806109073182,-9999,52676.47614850001,0.5266571044921875,0.7048492431640625,-0.1026153564453125,1,0.92
2020-05-18 19:15:36.366 -0400,1589843734.999807,41.35111937295373,-71.83741435428638,2.373333,1.675928,161.537870806621,3.347936390827475,5.418806109073182,-9999,52676.5260385,0.6060791015625,-0.649322509765625,-0.139434814453125,1,0.92
2020-05-18 19:15:36.416 -0400,1589843734.999807,41.35111937295373,-71.83741435428638,2.373333,1.675928,161.537870806621,3.347936390827475,5.418806109073182,-9999,52676.5759275,0.423004150390625,-0.7032928466796875,0.0558624267578125,1,0.92
2020-05-18 19:15:36.466 -0400,1589843734.999807,41.35111937295373,-71.83741435428638,2.373333,1.675928,161.537870806621,3.347936390827475,5.418806109073182,-9999,52676.6258165,0.5213165283203125,-0.491424560546875,0.080718994140625,1,0.92
2020-05-18 19:15:36.516 -0400,1589843734.999807,41.35111937295373,-71.83741435428638,2.373333,1.675928,161.537870806621,3.347936390827475,5.418806109073182,-9999,52676.67570550001,1.014541625976562,-0.12506103515625,0.190765380859375,1,0.92
2020-05-18 19:15:36.566 -0400,1589843734.999807,41.35111937295373,-71.83741435428638,2.373333,1.675928,161.537870806621,3.347936390827475,5.418806109073182,-9999,52676.7255955,2.554580688476562,2.328872680664062,-0.1383209228515625,1,0.92
2020-05-18 19:15:36.616 -0400,1589843734.999807,41.35111937295373,-71.83741435428638,2.373333,1.675928,161.537870806621,3.347936390827475,5.418806109073182,-9999,52676.7754835,3.020416259765625,3.466445922851562,-0.40106201171875,1,0.92
2020-05-18 19:15:36.665 -0400,1589843734.999807,41.35111937295373,-71.83741435428638,2.373333,1.675928,161.537870806621,3.347936390827475,5.418806109073182,-9999,52676.8253695,0.5559844970703125,2.02520751953125,-0.337921142578125,1,0.92
2020-05-18 19:15:36.715 -0400,1589843734.999807,41.35111937295373,-71.83741435428638,2.373333,1.675928,161.537870806621,3.347936390827475,5.418806109073182,-9999,52676.8752565,-0.7789459228515625,0.6288299560546875,-0.540313720703125,1,0.92
2020-05-18 19:15:36.765 -0400,1589843735.999804,41.35113002845412,-71.83740593608806,3.772803,1.150432,156.6217209631489,3.303155676060274,5.141987509335681,-9999,52676.9251415,-1.0262451171875,-0.00701904296875,-0.2569732666015625,1,0.92
2020-05-18 19:15:36.815 -0400,1589843735.999804,41.35113002845412,-71.83740593608806,3.772803,1.150432,156.6217209631489,3.303155676060274,5.141987509335681,-9999,52676.9750265,-0.6815338134765625,-0.248260498046875,-0.0866241455078125,1,0.92
2020-05-18 19:15:36.865 -0400,1589843735.999804,41.35113002845412,-71.83740593608806,3.772803,1.150432,156.6217209631489,3.303155676060274,5.141987509335681,-9999,52677.0249125,-0.4074859619140625,0.0872344970703125,0.1019744873046875,1,0.92
2020-05-18 19:15:36.916 -0400,1589843735.999804,41.35113002845412,-71.83740593608806,3.772803,1.150432,156.6217209631489,3.303155676060274,5.141987509335681,-9999,52677.0747955,-0.355377197265625,0.8325042724609375,0.3224639892578125,1,0.92
2020-05-18 19:15:36.965 -0400,1589843735.999804,41.35113002845412,-71.83740593608806,3.772803,1.150432,156.6217209631489,3.303155676060274,5.141987509335681,-9999,52677.1246775,0.588623046875,4.9827880859375,0.6709442138671875,1,0.92
2020-05-18 19:15:37.015 -0400,1589843735.999804,41.35113002845412,-71.83740593608806,3.772803,1.150432,156.6217209631489,3.303155676060274,5.141987509335681,-9999,52677.1745635,0.5065765380859375,3.062896728515625,-0.28582763671875,1,0.92
2020-05-18 19:15:37.065 -0400,1589843735.999804,41.35113002845412,-71.83740593608806,3.772803,1.150432,156.6217209631489,3.303155676060274,5.141987509335681,-9999,52677.22445250001,0.5331878662109375,0.622711181640625,-0.066650390625,1,0.92
2020-05-18 19:15:37.114 -0400,1589843735.999804,41.35113002845412,-71.83740593608806,3.772803,1.150432,156.6217209631489,3.303155676060274,5.141987509335681,-9999,52677.2743425,0.577362060546875,-0.769195556640625,0.107025146484375,1,0.92
2020-05-18 19:15:35.668 -0400,1589843733.999807,41.35113665365628,-71.83741871563629,0.3415997,1.628613,152.9770928076685,3.230303195860219,5.504535598614146,-9999,52675.8275885,0.5106658935546875,-0.84716796875,0.1777496337890625,1,0.92
2020-05-18 19:15:35.718 -0400,1589843733.999807,41.35113665365628,-71.83741871563629,0.3415997,1.628613,152.9770928076685,3.230303195860219,5.504535598614146,-9999,52675.87747850001,0.6428985595703125,-0.729583740234375,0.2740936279296875,1,0.92
2020-05-18 19:15:35.767 -0400,1589843733.999807,41.35113665365628,-71.83741871563629,0.3415997,1.628613,152.9770928076685,3.230303195860219,5.504535598614146,-9999,52675.9273715,1.02459716796875,0.03436279296875,0.002166748046875,1,0.92
2020-05-18 19:15:35.817 -0400,1589843733.999807,41.35113665365628,-71.83741871563629,0.3415997,1.628613,152.9770928076685,3.230303195860219,5.504535598614146,-9999,52675.9772645,2.536407470703125,2.70263671875,-0.6861724853515625,1,0.92
2020-05-18 19:15:35.867 -0400,1589843733.999807,41.35113665365628,-71.83741871563629,0.3415997,1.628613,152.9770928076685,3.230303195860219,5.504535598614146,-9999,52676.0271555,2.663650512695312,3.716934204101562,-1.065444946289062,1,0.92
2020-05-18 19:15:35.917 -0400,1589843733.999807,41.35113665365628,-71.83741871563629,0.3415997,1.628613,152.9770928076685,3.230303195860219,5.504535598614146,-9999,52676.0770435,0.42333984375,1.802291870117188,-0.6551513671875,1,0.92
2020-05-18 19:15:35.967 -0400,1589843733.999807,41.35113665365628,-71.83741871563629,0.3415997,1.628613,152.9770928076685,3.230303195860219,5.504535598614146,-9999,52676.1269295,-0.7509307861328125,0.355682373046875,-0.354217529296875,1,0.92
2020-05-18 19:15:36.017 -0400,1589843733.999807,41.35113665365628,-71.83741871563629,0.3415997,1.628613,152.9770928076685,3.230303195860219,5.504535598614146,-9999,52676.1768165,-1.065032958984375,0.141357421875,-0.3325042724609375,1,0.92
2020-05-18 19:15:36.067 -0400,1589843733.999807,41.35113665365628,-71.83741871563629,0.3415997,1.628613,152.9770928076685,3.230303195860219,5.504535598614146,-9999,52676.22670650001,-0.579132080078125,-0.18548583984375,-0.029632568359375,1,0.92
2020-05-18 19:15:36.116 -0400,1589843733.999807,41.35113665365628,-71.83741871563629,0.3415997,1.628613,152.9770928076685,3.230303195860219,5.504535598614146,-9999,52676.27659450001,-0.346923828125,-0.018463134765625,-0.0020751953125,1,0.92
2020-05-18 19:15:36.167 -0400,1589843733.999807,41.35113665365628,-71.83741871563629,0.3415997,1.628613,152.9770928076685,3.230303195860219,5.504535598614146,-9999,52676.3264855,-0.3693389892578125,0.891632080078125,0.29876708984375,1,0.92
2020-05-18 19:15:36.216 -0400,1589843734.999807,41.35111937295373,-71.83741435428638,2.373333,1.675928,161.537870806621,3.347936390827475,5.418806109073182,-9999,52676.3763725,-0.018463134765625,4.40679931640625,0.452392578125,1,0.92
2020-05-18 19:15:36.266 -0400,1589843734.999807,41.35111937295373,-71.83741435428638,2.373333,1.675928,161.537870806621,3.347936390827475,5.418806109073182,-9999,52676.4262595,0.9024658203125,2.275848388671875,-0.0014190673828125,1,0.92
2020-05-18 19:15:36.316 -0400,1589843734.999807,41.35111937295373,-71.83741435428638,2.373333,1.675928,161.537870806621,3.347936390827475,5.418806109073182,-9999,52676.47614850001,0.5266571044921875,0.7048492431640625,-0.1026153564453125,1,0.92
2020-05-18 19:15:36.366 -0400,1589843734.999807,41.35111937295373,-71.83741435428638,2.373333,1.675928,161.537870806621,3.347936390827475,5.418806109073182,-9999,52676.5260385,0.6060791015625,-0.649322509765625,-0.139434814453125,1,0.92
2020-05-18 19:15:36.416 -0400,1589843734.999807,41.35111937295373,-71.83741435428638,2.373333,1.675928,161.537870806621,3.347936390827475,5.418806109073182,-9999,52676.5759275,0.423004150390625,-0.7032928466796875,0.0558624267578125,1,0.92
2020-05-18 19:15:36.466 -0400,1589843734.999807,41.35111937295373,-71.83741435428638,2.373333,1.675928,161.537870806621,3.347936390827475,5.418806109073182,-9999,52676.6258165,0.5213165283203125,-0.491424560546875,0.080718994140625,1,0.92
2020-05-18 19:15:36.516 -0400,1589843734.999807,41.35111937295373,-71.83741435428638,2.373333,1.675928,161.537870806621,3.347936390827475,5.418806109073182,-9999,52676.67570550001,1.014541625976562,-0.12506103515625,0.190765380859375,1,0.92
2020-05-18 19:15:36.566 -0400,1589843734.999807,41.35111937295373,-71.83741435428638,2.373333,1.675928,161.537870806621,3.347936390827475,5.418806109073182,-9999,52676.7255955,2.554580688476562,2.328872680664062,-0.1383209228515625,1,0.92
2020-05-18 19:15:36.616 -0400,1589843734.999807,41.35111937295373,-71.83741435428638,2.373333,1.675928,161.537870806621,3.347936390827475,5.418806109073182,-9999,52676.7754835,3.020416259765625,3.466445922851562,-0.40106201171875,1,0.92
2020-05-18 19:15:36.665 -0400,1589843734.999807,41.35111937295373,-71.83741435428638,2.373333,1.675928,161.537870806621,3.347936390827475,5.418806109073182,-9999,52676.8253695,0.5559844970703125,2.02520751953125,-0.337921142578125,1,0.92
2020-05-18 19:15:36.715 -0400,1589843734.999807,41.35111937295373,-71.83741435428638,2.373333,1.675928,161.537870806621,3.347936390827475,5.418806109073182,-9999,52676.8752565,-0.7789459228515625,0.6288299560546875,-0.540313720703125,1,0.92
2020-05-18 19:15:36.765 -0400,1589843735.999804,41.35113002845412,-71.83740593608806,3.772803,1.150432,156.6217209631489,3.303155676060274,5.141987509335681,-9999,52676.9251415,-1.0262451171875,-0.00701904296875,-0.2569732666015625,1,0.92
2020-05-18 19:15:36.815 -0400,1589843735.999804,41.35113002845412,-71.83740593608806,3.772803,1.150432,156.6217209631489,3.303155676060274,5.141987509335681,-9999,52676.9750265,-0.6815338134765625,-0.248260498046875,-0.0866241455078125,1,0.92
2020-05-18 19:15:36.865 -0400,1589843735.999804,41.35113002845412,-71.83740593608806,3.772803,1.150432,156.6217209631489,3.303155676060274,5.141987509335681,-9999,52677.0249125,-0.4074859619140625,0.0872344970703125,0.1019744873046875,1,0.92
2020-05-18 19:15:36.916 -0400,1589843735.999804,41.35113002845412,-71.83740593608806,3.772803,1.150432,156.6217209631489,3.303155676060274,5.141987509335681,-9999,52677.0747955,-0.355377197265625,0.8325042724609375,0.3224639892578125,1,0.92
2020-05-18 19:15:36.965 -0400,1589843735.999804,41.35113002845412,-71.83740593608806,3.772803,1.150432,156.6217209631489,3.303155676060274,5.141987509335681,-9999,52677.1246775,0.588623046875,4.9827880859375,0.6709442138671875,1,0.92
2020-05-18 19:15:37.015 -0400,1589843735.999804,41.35113002845412,-71.83740593608806,3.772803,1.150432,156.6217209631489,3.303155676060274,5.141987509335681,-9999,52677.1745635,0.5065765380859375,3.062896728515625,-0.28582763671875,1,0.92
2020-05-18 19:15:37.065 -0400,1589843735.999804,41.35113002845412,-71.83740593608806,3.772803,1.150432,156.6217209631489,3.303155676060274,5.141987509335681,-9999,52677.22445250001,0.5331878662109375,0.622711181640625,-0.066650390625,1,0.92
2020-05-18 19:15:37.114 -0400,1589843735.999804,41.35113002845412,-71.83740593608806,3.772803,1.150432,156.6217209631489,3.303155676060274,5.141987509335681,-9999,52677.2743425,0.577362060546875,-0.769195556640625,0.107025146484375,1,0.92
2020-05-18 19:15:37.164 -0400,1589843735.999804,41.35113002845412,-71.83740593608806,3.772803,1.150432,156.6217209631489,3.303155676060274,5.141987509335681,-9999,52677.3242305,0.7538604736328125,-1.00604248046875,0.2161712646484375,1,0.92
2020-05-18 19:15:37.214 -0400,1589843735.999804,41.35113002845412,-71.83740593608806,3.772803,1.150432,156.6217209631489,3.303155676060274,5.141987509335681,-9999,52677.3741185,0.6845855712890625,-0.3784332275390625,0.2536163330078125,1,0.92
2020-05-18 19:15:37.264 -0400,1589843735.999804,41.35113002845412,-71.83740593608806,3.772803,1.150432,156.6217209631489,3.303155676060274,5.141987509335681,-9999,52677.4240055,0.7493438720703125,0.235809326171875,0.0441131591796875,1,0.92
2020-05-18 19:15:37.314 -0400,1589843735.999804,41.35113002845412,-71.83740593608806,3.772803,1.150432,156.6217209631489,3.303155676060274,5.141987509335681,-9999,52677.4738905,1.42022705078125,1.987503051757812,-0.33984375,1,0.92
2020-05-18 19:15:37.364 -0400,1589843735.999804,41.35113002845412,-71.83740593608806,3.772803,1.150432,156.6217209631489,3.303155676060274,5.141987509335681,-9999,52677.52377650001,2.302398681640625,3.7022705078125,-1.1080322265625,1,0.92
2020-05-18 19:15:37.420 -0400,1589843735.999804,41.35113002845412,-71.83740593608806,3.772803,1.150432,156.6217209631489,3.303155676060274,5.141987509335681,-9999,52677.57366179167,0.604888916015625,2.098297119140625,-1.01104736328125,1,0.92
2020-05-18 19:15:37.464 -0400,1589843735.999804,41.35113002845412,-71.83740593608806,3.772803,1.150432,156.6217209631489,3.303155676060274,5.141987509335681,-9999,52677.62354879167,-0.517303466796875,0.63458251953125,-0.644073486328125,1,0.92
2020-05-18 19:15:37.513 -0400,1589843735.999804,41.35113002845412,-71.83740593608806,3.772803,1.150432,156.6217209631489,3.303155676060274,5.141987509335681,-9999,52677.67343679167,-0.8578033447265625,0.1996307373046875,-0.4213409423828125,1,0.92
2020-05-18 19:15:37.563 -0400,1589843735.999804,41.35113002845412,-71.83740593608806,3.772803,1.150432,156.6217209631489,3.303155676060274,5.141987509335681,-9999,52677.72332479167,-0.5589752197265625,-0.1269073486328125,0.0152587890625,1,0.92
2020-05-18 19:15:37.613 -0400,1589843735.999804,41.35113002845412,-71.83740593608806,3.772803,1.150432,156.6217209631489,3.303155676060274,5.141987509335681,-9999,52677.77320779167,-0.449798583984375,0.0068206787109375,-0.034942626953125,1,0.92
2020-05-18 19:15:37.663 -0400,1589843735.999804,41.35113002845412,-71.83740593608806,3.772803,1.150432,156.6217209631489,3.303155676060274,5.141987509335681,-9999,52677.82309179167,-0.6061248779296875,0.7347564697265625,-0.4753570556640625,1,0.92
2020-05-18 19:15:37.713 -0400,1589843735.999804,41.35113002845412,-71.83740593608806,3.772803,1.150432,156.6217209631489,3.303155676060274,5.141987509335681,-9999,52677.87297579167,-0.2486572265625,2.63409423828125,-1.424819946289062,1,0.92
2020-05-18 19:15:37.763 -0400,1589843735.999804,41.35113002845412,-71.83740593608806,3.772803,1.150432,156.6217209631489,3.303155676060274,5.141987509335681,-9999,52677.92286079167,0.1991119384765625,1.614212036132812,-1.365493774414062,1,0.92
2020-05-18 19:15:37.814 -0400,1589843735.999804,41.35113002845412,-71.83740593608806,3.772803,1.150432,156.6217209631489,3.303155676060274,5.141987509335681,-9999,52677.97274579167,0.55267333984375,0.35693359375,-0.9114990234375,1,0.92
2020-05-18 19:15:37.863 -0400,1589843735.999804,41.35113002845412,-71.83740593608806,3.772803,1.150432,156.6217209631489,3.303155676060274,5.141987509335681,-9999,52678.02263079167,0.4744720458984375,-0.0841827392578125,-0.45184326171875,1,0.92
2020-05-18 19:16:26.423 -0400,1589843785.999699,41.34986003471104,-71.8366878987121,9.238643,2.777555,159.2424873598521,4.020621443518236,5.428956037939128,-9999,52726.58296175001,0.4590301513671875,0.9360198974609375,-2.028228759765625,1,0.92
2020-05-18 19:16:26.473 -0400,1589843785.999699,41.34986003471104,-71.8366878987121,9.238643,2.777555,159.2424873598521,4.020621443518236,5.428956037939128,-9999,52726.63292966667,0.403411865234375,0.6002960205078125,-1.790130615234375,1,0.92
2020-05-18 19:16:26.523 -0400,1589843785.999699,41.34986003471104,-71.8366878987121,9.238643,2.777555,159.2424873598521,4.020621443518236,5.428956037939128,-9999,52726.68289966667,-0.0764617919921875,0.4607391357421875,-1.477066040039062,1,0.92
2020-05-18 19:16:26.573 -0400,1589843785.999699,41.34986003471104,-71.8366878987121,9.238643,2.777555,159.2424873598521,4.020621443518236,5.428956037939128,-9999,52726.73286866667,-0.464996337890625,0.1751708984375,-0.4969940185546875,1,0.92
2020-05-18 19:16:26.623 -0400,1589843785.999699,41.34986003471104,-71.8366878987121,9.238643,2.777555,159.2424873598521,4.020621443518236,5.428956037939128,-9999,52726.78283866667,-0.3463897705078125,-0.0026092529296875,0.0707855224609375,1,0.92
2020-05-18 19:16:26.678 -0400,1589843785.999699,41.34986003471104,-71.8366878987121,9.238643,2.777555,159.2424873598521,4.020621443518236,5.428956037939128,-9999,52726.83280866667,-0.542236328125,-0.446929931640625,-0.1599578857421875,1,0.92
2020-05-18 19:16:26.723 -0400,1589843785.999699,41.34986003471104,-71.8366878987121,9.238643,2.777555,159.2424873598521,4.020621443518236,5.428956037939128,-9999,52726.88277866667,-0.224273681640625,0.1878814697265625,-0.8921356201171875,1,0.92
2020-05-18 19:16:26.772 -0400,1589843785.999699,41.34986003471104,-71.8366878987121,9.238643,2.777555,159.2424873598521,4.020621443518236,5.428956037939128,-9999,52726.93274766667,0.1888275146484375,1.395614624023438,-1.808761596679688,1,0.92
2020-05-18 19:16:26.823 -0400,1589843785.999699,41.34986003471104,-71.8366878987121,9.238643,2.777555,159.2424873598521,4.020621443518236,5.428956037939128,-9999,52726.98271766667,0.232513427734375,2.17919921875,-1.46112060546875,1,0.92
2020-05-18 19:16:26.873 -0400,1589843785.999699,41.34986003471104,-71.8366878987121,9.238643,2.777555,159.2424873598521,4.020621443518236,5.428956037939128,-9999,52727.03268766667,0.3814544677734375,1.294906616210938,-0.79205322265625,1,0.92
2020-05-18 19:16:26.923 -0400,1589843785.999699,41.34986003471104,-71.8366878987121,9.238643,2.777555,159.2424873598521,4.020621443518236,5.428956037939128,-9999,52727.08265766667,0.4384613037109375,0.0591888427734375,-0.0174713134765625,1,0.92
2020-05-18 19:16:26.973 -0400,1589843785.999699,41.34986003471104,-71.8366878987121,9.238643,2.777555,159.2424873598521,4.020621443518236,5.428956037939128,-9999,52727.13262666667,0.462432861328125,-0.547698974609375,0.0702056884765625,1,0.92
2020-05-18 19:16:27.023 -0400,1589843785.999699,41.34986003471104,-71.8366878987121,9.238643,2.777555,159.2424873598521,4.020621443518236,5.428956037939128,-9999,52727.18259666667,0.33612060546875,-0.6159820556640625,0.017242431640625,1,0.92
2020-05-18 19:16:27.073 -0400,1589843785.999699,41.34986003471104,-71.8366878987121,9.238643,2.777555,159.2424873598521,4.020621443518236,5.428956037939128,-9999,52727.23256666667,0.5533599853515625,-0.1116943359375,-0.00048828125,1,0.92
2020-05-18 19:16:27.122 -0400,1589843785.999699,41.34986003471104,-71.8366878987121,9.238643,2.777555,159.2424873598521,4.020621443518236,5.428956037939128,-9999,52727.28253666667,1.68304443359375,0.73223876953125,-0.14849853515625,1,0.92
2020-05-18 19:16:27.173 -0400,1589843785.999699,41.34986003471104,-71.8366878987121,9.238643,2.777555,159.2424873598521,4.020621443518236,5.428956037939128,-9999,52727.33250566667,4.201095581054688,2.425094604492188,-1.814224243164062,1,0.92
2020-05-18 19:16:27.223 -0400,1589843785.999699,41.34986003471104,-71.8366878987121,9.238643,2.777555,159.2424873598521,4.020621443518236,5.428956037939128,-9999,52727.38247566667,0.9479827880859375,2.0850830078125,-1.2928466796875,1,0.92
2020-05-18 19:16:27.273 -0400,1589843785.999699,41.34986003471104,-71.8366878987121,9.238643,2.777555,159.2424873598521,4.020621443518236,5.428956037939128,-9999,52727.43244566667,-0.772125244140625,0.77178955078125,-0.655242919921875,1,0.92
2020-05-18 19:16:27.323 -0400,1589843785.999699,41.34986003471104,-71.8366878987121,9.238643,2.777555,159.2424873598521,4.020621443518236,5.428956037939128,-9999,52727.48241466667,-1.149658203125,0.3649749755859375,-0.528289794921875,1,0.92
2020-05-18 19:16:27.373 -0400,1589843785.999699,41.34986003471104,-71.8366878987121,9.238643,2.777555,159.2424873598521,4.020621443518236,5.428956037939128,-9999,52727.53238466667,-0.7896728515625,-0.101959228515625,-0.121490478515625,1,0.92
2020-05-18 19:16:27.423 -0400,1589843785.999699,41.34986003471104,-71.8366878987121,9.238643,2.777555,159.2424873598521,4.020621443518236,5.428956037939128,-9999,52727.58235466667,-0.5111541748046875,-0.1203460693359375,-0.2415618896484375,1,0.92
2020-05-18 19:16:27.473 -0400,1589843785.999699,41.34986003471104,-71.8366878987121,9.238643,2.777555,159.2424873598521,4.020621443518236,5.428956037939128,-9999,52727.6323255,-0.3082733154296875,0.048065185546875,-0.1159820556640625,1,0.92
2020-05-18 19:16:27.523 -0400,1589843785.999699,41.34986003471104,-71.8366878987121,9.238643,2.777555,159.2424873598521,4.020621443518236,5.428956037939128,-9999,52727.6822945,-0.44158935546875,2.38800048828125,-0.4290618896484375,1,0.92
2020-05-18 19:16:27.572 -0400,1589843786.999696,41.34983618898606,-71.83667054163507,10.83782,2.730098,156.857469913514,4.068368240910385,5.479063764457174,-9999,52727.7322645,2.174972534179688,4.162841796875,-0.55218505859375,1,0.92
2020-05-18 19:16:27.622 -0400,1589843786.999696,41.34983618898606,-71.83667054163507,10.83782,2.730098,156.857469913514,4.068368240910385,5.479063764457174,-9999,52727.7822345,0.7765350341796875,1.949630737304688,-0.364776611328125,1,0.92
2020-05-18 19:16:27.676 -0400,1589843786.999696,41.34983618898606,-71.83667054163507,10.83782,2.730098,156.857469913514,4.068368240910385,5.479063764457174,-9999,52727.8322045,0.3177032470703125,-0.08514404296875,-0.126708984375,1,0.92
2020-05-18 19:16:27.722 -0400,1589843786.999696,41.34983618898606,-71.83667054163507,10.83782,2.730098,156.857469913514,4.068368240910385,5.479063764457174,-9999,52727.8821735,0.6012725830078125,-0.841339111328125,-0.1500396728515625,1,0.92
2020-05-18 19:16:27.772 -0400,1589843786.999696,41.34983618898606,-71.83667054163507,10.83782,2.730098,156.857469913514,4.068368240910385,5.479063764457174,-9999,52727.9321435,0.61212158203125,-1.104202270507812,0.222869873046875,1,0.92
2020-05-18 19:16:27.822 -0400,1589843786.999696,41.34983618898606,-71.83667054163507,10.83782,2.730098,156.857469913514,4.068368240910385,5.479063764457174,-9999,52727.9821135,0.79443359375,-0.4309844970703125,0.1816864013671875,1,0.92
2020-05-18 19:16:27.872 -0400,1589843786.999696,41.34983618898606,-71.83667054163507,10.83782,2.730098,156.857469913514,4.068368240910385,5.479063764457174,-9999,52728.0320835,1.30133056640625,0.0634613037109375,0.2987518310546875,1,0.92
2020-05-18 19:16:27.922 -0400,1589843786.999696,41.34983618898606,-71.83667054163507,10.83782,2.730098,156.857469913514,4.068368240910385,5.479063764457174,-9999,52728.0820525,3.744277954101562,3.690093994140625,-1.087890625,1,0.92
2020-05-18 19:16:27.972 -0400,1589843786.999696,41.34983618898606,-71.83667054163507,10.83782,2.730098,156.857469913514,4.068368240910385,5.479063764457174,-9999,52728.1320225,1.265304565429688,3.00726318359375,-1.04730224609375,1,0.92
2020-05-18 19:16:28.022 -0400,1589843786.999696,41.34983618898606,-71.83667054163507,10.83782,2.730098,156.857469913514,4.068368240910385,5.479063764457174,-9999,52728.1819925,-0.2738494873046875,1.289337158203125,-0.4777984619140625,1,0.92
2020-05-18 19:16:28.072 -0400,1589843786.999696,41.34983618898606,-71.83667054163507,10.83782,2.730098,156.857469913514,4.068368240910385,5.479063764457174,-9999,52728.2319625,-1.058456420898438,0.6209259033203125,-0.5324249267578125,1,0.92
2020-05-18 19:16:28.122 -0400,1589843786.999696,41.34983618898606,-71.83667054163507,10.83782,2.730098,156.857469913514,4.068368240910385,5.479063764457174,-9999,52728.2819315,-0.847869873046875,-0.0016021728515625,-0.30242919921875,1,0.92
2020-05-18 19:16:28.172 -0400,1589843786.999696,41.34983618898606,-71.83667054163507,10.83782,2.730098,156.857469913514,4.068368240910385,5.479063764457174,-9999,52728.3319015,-0.459991455078125,-0.04559326171875,-0.0737762451171875,1,0.92
2020-05-18 19:16:28.222 -0400,1589843786.999696,41.34983618898606,-71.83667054163507,10.83782,2.730098,156.857469913514,4.068368240910385,5.479063764457174,-9999,52728.3818715,-0.27349853515625,0.274505615234375,-0.06536865234375,1,0.92
2020-05-18 19:16:28.272 -0400,1589843786.999696,41.34983618898606,-71.83667054163507,10.83782,2.730098,156.857469913514,4.068368240910385,5.479063764457174,-9999,52728.4318405,-0.1633758544921875,1.8212890625,0.1442718505859375,1,0.92
2020-05-18 19:16:28.322 -0400,1589843786.999696,41.34983618898606,-71.83667054163507,10.83782,2.730098,156.857469913514,4.068368240910385,5.479063764457174,-9999,52728.4818105,0.9979248046875,4.215576171875,-0.4613494873046875,1,0.92
2020-05-18 19:16:28.372 -0400,1589843787.999692,41.34980927123984,-71.83665144145523,10.3715,2.784626,158.8523655926124,4.162378304285467,5.549538933838222,-9999,52728.5317805,0.9438934326171875,1.7677001953125,-0.1840667724609375,1,0.92
2020-05-18 19:16:28.422 -0400,1589843787.999692,41.34980927123984,-71.83665144145523,10.3715,2.784626,158.8523655926124,4.162378304285467,5.549538933838222,-9999,52728.5817505,0.418609619140625,0.4832611083984375,-0.1588897705078125,1,0.92
2020-05-18 19:16:28.472 -0400,1589843787.999692,41.34980927123984,-71.83665144145523,10.3715,2.784626,158.8523655926124,4.162378304285467,5.549538933838222,-9999,52728.63172054167,0.4578094482421875,-0.8521270751953125,-0.111236572265625,1,0.92
2020-05-18 19:16:28.522 -0400,1589843787.999692,41.34980927123984,-71.83665144145523,10.3715,2.784626,158.8523655926124,4.162378304285467,5.549538933838222,-9999,52728.68169054167,0.3944549560546875,-1.093170166015625,0.175933837890625,1,0.92
2020-05-18 19:16:28.572 -0400,1589843787.999692,41.34980927123984,-71.83665144145523,10.3715,2.784626,158.8523655926124,4.162378304285467,5.549538933838222,-9999,52728.73166054167,0.6988525390625,-0.5698394775390625,0.136016845703125,1,0.92
2020-05-18 19:16:28.622 -0400,1589843787.999692,41.34980927123984,-71.83665144145523,10.3715,2.784626,158.8523655926124,4.162378304285467,5.549538933838222,-9999,52728.78163054167,1.200592041015625,0.0112457275390625,0.2246856689453125,1,0.92
2020-05-18 19:16:28.672 -0400,1589843787.999692,41.34980927123984,-71.83665144145523,10.3715,2.784626,158.8523655926124,4.162378304285467,5.549538933838222,-9999,52728.83159954167,4.641006469726562,3.51593017578125,-0.098480224609375,1,0.92
2020-05-18 19:16:28.722 -0400,1589843787.999692,41.34980927123984,-71.83665144145523,10.3715,2.784626,158.8523655926124,4.162378304285467,5.549538933838222,-9999,52728.88156954167,2.030502319335938,3.892929077148438,-1.0084228515625,1,0.92
2020-05-18 19:16:28.772 -0400,1589843787.999692,41.34980927123984,-71.83665144145523,10.3715,2.784626,158.8523655926124,4.162378304285467,5.549538933838222,-9999,52728.93153954167,0.1054229736328125,1.610107421875,-0.5761871337890625,1,0.92
2020-05-18 19:16:28.822 -0400,1589843787.999692,41.34980927123984,-71.83665144145523,10.3715,2.784626,158.8523655926124,4.162378304285467,5.549538933838222,-9999,52728.98150954167,-1.08270263671875,0.4969482421875,-0.6110382080078125,1,0.92
2020-05-18 19:16:28.873 -0400,1589843787.999692,41.34980927123984,-71.83665144145523,10.3715,2.784626,158.8523655926124,4.162378304285467,5.549538933838222,-9999,52729.03147854167,-0.85791015625,0.182464599609375,-0.19927978515625,1,0.92
2020-05-18 19:16:28.922 -0400,1589843787.999692,41.34980927123984,-71.83665144145523,10.3715,2.784626,158.8523655926124,4.162378304285467,5.549538933838222,-9999,52729.08144854167,-0.628021240234375,0.06646728515625,-0.0789337158203125,1,0.92
2020-05-18 19:16:28.972 -0400,1589843787.999692,41.34980927123984,-71.83665144145523,10.3715,2.784626,158.8523655926124,4.162378304285467,5.549538933838222,-9999,52729.13141854167,-0.360504150390625,0.0020599365234375,-0.0998687744140625,1,0.92
2020-05-18 19:16:29.021 -0400,1589843787.999692,41.34980927123984,-71.83665144145523,10.3715,2.784626,158.8523655926124,4.162378304285467,5.549538933838222,-9999,52729.18138854167,-0.2548065185546875,1.295486450195312,0.2479400634765625,1,0.92
2020-05-18 19:16:29.071 -0400,1589843787.999692,41.34980927123984,-71.83665144145523,10.3715,2.784626,158.8523655926124,4.162378304285467,5.549538933838222,-9999,52729.23135754167,0.5426025390625,4.67138671875,0.5012054443359375,1,0.92
2020-05-18 19:16:29.121 -0400,1589843787.999692,41.34980927123984,-71.83665144145523,10.3715,2.784626,158.8523655926124,4.162378304285467,5.549538933838222,-9999,52729.28132754167,0.4015045166015625,2.329086303710938,-0.242401123046875,1,0.92
2020-05-18 19:16:29.171 -0400,1589843787.999692,41.34980927123984,-71.83665144145523,10.3715,2.784626,158.8523655926124,4.162378304285467,5.549538933838222,-9999,52729.33129754167,0.38482666015625,0.5917816162109375,-0.060211181640625,1,0.92
2020-05-18 19:16:29.221 -0400,1589843787.999692,41.34980927123984,-71.83665144145523,10.3715,2.784626,158.8523655926124,4.162378304285467,5.549538933838222,-9999,52729.38126754167,0.4715576171875,-0.6712646484375,-0.1812286376953125,1,0.92
2020-05-18 19:16:29.288 -0400,1589843788.999689,41.34977812868772,-71.83664180852132,8.965678,2.815299,167.1781111767796,4.12086505683222,5.578782592473145,-9999,52729.43123654167,0.5867767333984375,-0.9855499267578125,0.0627593994140625,1,0.92
2020-05-18 19:16:29.321 -0400,1589843788.999689,41.34977812868772,-71.83664180852132,8.965678,2.815299,167.1781111767796,4.12086505683222,5.578782592473145,-9999,52729.48120654167,0.5422821044921875,-0.5301971435546875,-0.1330413818359375,1,0.92
2020-05-18 19:16:29.394 -0400,1589843788.999689,41.34977812868772,-71.83664180852132,8.965678,2.815299,167.1781111767796,4.12086505683222,5.578782592473145,-9999,52729.53117654167,0.9343109130859375,-0.1478271484375,0.076263427734375,1,0.92
2020-05-18 19:16:29.421 -0400,1589843788.999689,41.34977812868772,-71.83664180852132,8.965678,2.815299,167.1781111767796,4.12086505683222,5.578782592473145,-9999,52729.58114554167,3.266677856445312,3.15057373046875,-0.534820556640625,1,0.92
2020-05-18 19:16:29.498 -0400,1589843788.999689,41.34977812868772,-71.83664180852132,8.965678,2.815299,167.1781111767796,4.12086505683222,5.578782592473145,-9999,52729.63111537501,3.148483276367188,2.740402221679688,-0.7316131591796875,1,0.92
2020-05-18 19:16:29.521 -0400,1589843788.999689,41.34977812868772,-71.83664180852132,8.965678,2.815299,167.1781111767796,4.12086505683222,5.578782592473145,-9999,52729.68108537501,0.4830474853515625,1.860794067382812,-0.6485137939453125,1,0.92
2020-05-18 19:16:29.571 -0400,1589843788.999689,41.34977812868772,-71.83664180852132,8.965678,2.815299,167.1781111767796,4.12086505683222,5.578782592473145,-9999,52729.73105537501,-0.889739990234375,0.65167236328125,-0.7422637939453125,1,0.92
2020-05-18 19:16:29.621 -0400,1589843788.999689,41.34977812868772,-71.83664180852132,8.965678,2.815299,167.1781111767796,4.12086505683222,5.578782592473145,-9999,52729.78102437501,-1.177474975585938,0.3509063720703125,-0.51995849609375,1,0.92
2020-05-18 19:16:29.671 -0400,1589843788.999689,41.34977812868772,-71.83664180852132,8.965678,2.815299,167.1781111767796,4.12086505683222,5.578782592473145,-9999,52729.83099437501,-0.7133331298828125,0.088134765625,-0.110137939453125,1,0.92
2020-05-18 19:16:29.721 -0400,1589843788.999689,41.34977812868772,-71.83664180852132,8.965678,2.815299,167.1781111767796,4.12086505683222,5.578782592473145,-9999,52729.88096437501,-0.4191131591796875,0.1627960205078125,-0.210418701171875,1,0.92
2020-05-18 19:16:29.771 -0400,1589843788.999689,41.34977812868772,-71.83664180852132,8.965678,2.815299,167.1781111767796,4.12086505683222,5.578782592473145,-9999,52729.93093437501,-0.0673065185546875,1.05059814453125,-0.0045013427734375,1,0.92
2020-05-18 19:16:29.821 -0400,1589843788.999689,41.34977812868772,-71.83664180852132,8.965678,2.815299,167.1781111767796,4.12086505683222,5.578782592473145,-9999,52729.98090337501,0.0346221923828125,4.374679565429688,-0.3458709716796875,1,0.92
2020-05-18 19:16:29.871 -0400,1589843788.999689,41.34977812868772,-71.83664180852132,8.965678,2.815299,167.1781111767796,4.12086505683222,5.578782592473145,-9999,52730.03087337501,1.14752197265625,2.2669677734375,-0.2782745361328125,1,0.92
2020-05-18 19:16:29.921 -0400,1589843788.999689,41.34977812868772,-71.83664180852132,8.965678,2.815299,167.1781111767796,4.12086505683222,5.578782592473145,-9999,52730.08084337501,0.57049560546875,0.6170654296875,-0.092376708984375,1,0.92
2020-05-18 19:16:29.971 -0400,1589843788.999689,41.34977812868772,-71.83664180852132,8.965678,2.815299,167.1781111767796,4.12086505683222,5.578782592473145,-9999,52730.13081337501,0.4365081787109375,-0.75872802734375,-0.1043548583984375,1,0.92
2020-05-18 19:16:30.021 -0400,1589843788.999689,41.34977812868772,-71.83664180852132,8.965678,2.815299,167.1781111767796,4.12086505683222,5.578782592473145,-9999,52730.18078237501,0.5149383544921875,-0.8627471923828125,-0.0289154052734375,1,0.92
2020-05-18 19:16:30.071 -0400,1589843788.999689,41.34977812868772,-71.83664180852132,8.965678,2.815299,167.1781111767796,4.12086505683222,5.578782592473145,-9999,52730.23075237501,0.6359100341796875,-0.6395263671875,0.1641998291015625,1,0.92
2020-05-18 19:16:30.121 -0400,1589843788.999689,41.34977812868772,-71.83664180852132,8.965678,2.815299,167.1781111767796,4.12086505683222,5.578782592473145,-9999,52730.28072237501,1.041534423828125,-0.1125030517578125,0.33099365234375,1,0.92
2020-05-18 19:16:30.171 -0400,1589843788.999689,41.34977812868772,-71.83664180852132,8.965678,2.815299,167.1781111767796,4.12086505683222,5.578782592473145,-9999,52730.33069137501,2.493377685546875,1.988616943359375,0.0025482177734375,1,0.92
2020-05-18 19:16:30.221 -0400,1589843788.999689,41.34977812868772,-71.83664180852132,8.965678,2.815299,167.1781111767796,4.12086505683222,5.578782592473145,-9999,52730.38066137501,3.224380493164062,3.5675048828125,-0.7055206298828125,1,0.92
2020-05-18 19:16:30.271 -0400,1589843788.999689,41.34977812868772,-71.83664180852132,8.965678,2.815299,167.1781111767796,4.12086505683222,5.578782592473145,-9999,52730.43063137501,0.581817626953125,2.074951171875,-0.489501953125,1,0.92
2020-05-18 19:16:30.321 -0400,1589843788.999689,41.34977812868772,-71.83664180852132,8.965678,2.815299,167.1781111767796,4.12086505683222,5.578782592473145,-9999,52730.48060137501,-0.682708740234375,0.85430908203125,-0.463409423828125,1,0.92
2020-05-18 19:16:30.371 -0400,1589843788.999689,41.34977812868772,-71.83664180852132,8.965678,2.815299,167.1781111767796,4.12086505683222,5.578782592473145,-9999,52730.53057037501,-1.266952514648438,0.37884521484375,-0.4445343017578125,1,0.92
2020-05-18 19:16:30.421 -0400,1589843788.999689,41.34977812868772,-71.83664180852132,8.965678,2.815299,167.1781111767796,4.12086505683222,5.578782592473145,-9999,52730.58054037501,-0.806854248046875,0.0301361083984375,-0.251708984375,1,0.92
2020-05-18 19:16:30.471 -0400,1589843788.999689,41.34977812868772,-71.83664180852132,8.965678,2.815299,167.1781111767796,4.12086505683222,5.578782592473145,-9999,52730.630509875,-0.4876708984375,0.043670654296875,-0.136322021484375,1,0.92
2020-05-18 19:16:30.521 -0400,1589843788.999689,41.34977812868772,-71.83664180852132,8.965678,2.815299,167.1781111767796,4.12086505683222,5.578782592473145,-9999,52730.680479875,-0.27728271484375,0.9589385986328125,0.0986175537109375,1,0.92
2020-05-18 19:16:30.571 -0400,1589843789.999691,41.34975273668174,-71.83661038983176,5.876296,2.882556,164.7642194295237,4.11462000389314,5.541048340410911,-9999,52730.730448875,0.6287841796875,4.708969116210938,0.1521148681640625,1,0.92
2020-05-18 19:16:30.621 -0400,1589843789.999691,41.34975273668174,-71.83661038983176,5.876296,2.882556,164.7642194295237,4.11462000389314,5.541048340410911,-9999,52730.780418875,1.07720947265625,2.373809814453125,-0.03533935546875,1,0.92
2020-05-18 19:16:30.671 -0400,1589843789.999691,41.34975273668174,-71.83661038983176,5.876296,2.882556,164.7642194295237,4.11462000389314,5.541048340410911,-9999,52730.830388875,0.531585693359375,0.67132568359375,-0.10662841796875,1,0.92
2020-05-18 19:16:30.720 -0400,1589843789.999691,41.34975273668174,-71.83661038983176,5.876296,2.882556,164.7642194295237,4.11462000389314,5.541048340410911,-9999,52730.880357875,0.269622802734375,-0.7519073486328125,0.0137939453125,1,0.92
2020-05-18 19:16:30.771 -0400,1589843789.999691,41.34975273668174,-71.83661038983176,5.876296,2.882556,164.7642194295237,4.11462000389314,5.541048340410911,-9999,52730.930327875,0.502593994140625,-0.9519500732421875,0.0190582275390625,1,0.92
2020-05-18 19:16:30.820 -0400,1589843789.999691,41.34975273668174,-71.83661038983176,5.876296,2.882556,164.7642194295237,4.11462000389314,5.541048340410911,-9999,52730.980297875,0.588043212890625,-0.656402587890625,0.0414276123046875,1,0.92
2020-05-18 19:16:30.871 -0400,1589843789.999691,41.34975273668174,-71.83661038983176,5.876296,2.882556,164.7642194295237,4.11462000389314,5.541048340410911,-9999,52731.030267875,0.9455108642578125,-0.0013580322265625,-0.1685791015625,1,0.92
2020-05-18 19:16:30.920 -0400,1589843789.999691,41.34975273668174,-71.83661038983176,5.876296,2.882556,164.7642194295237,4.11462000389314,5.541048340410911,-9999,52731.080236875,2.199996948242188,1.828170776367188,-0.1269073486328125,1,0.92
2020-05-18 19:16:30.970 -0400,1589843789.999691,41.34975273668174,-71.83661038983176,5.876296,2.882556,164.7642194295237,4.11462000389314,5.541048340410911,-9999,52731.130206875,3.177978515625,3.189529418945312,-0.7422637939453125,1,0.92
2020-05-18 19:16:31.020 -0400,1589843789.999691,41.34975273668174,-71.83661038983176,5.876296,2.882556,164.7642194295237,4.11462000389314,5.541048340410911,-9999,52731.180176875,1.017318725585938,2.145217895507812,-0.575469970703125,1,0.92
2020-05-18 19:16:31.070 -0400,1589843789.999691,41.34975273668174,-71.83661038983176,5.876296,2.882556,164.7642194295237,4.11462000389314,5.541048340410911,-9999,52731.230146875,-0.7253265380859375,0.9116668701171875,-0.43975830078125,1,0.92
2020-05-18 19:16:31.120 -0400,1589843789.999691,41.34975273668174,-71.83661038983176,5.876296,2.882556,164.7642194295237,4.11462000389314,5.541048340410911,-9999,52731.280115875,-1.506118774414062,0.5611724853515625,-0.593536376953125,1,0.92
2020-05-18 19:16:31.170 -0400,1589843789.999691,41.34975273668174,-71.83661038983176,5.876296,2.882556,164.7642194295237,4.11462000389314,5.541048340410911,-9999,52731.330085875,-0.8465728759765625,-0.016510009765625,-0.0194244384765625,1,0.92
2020-05-18 19:16:31.220 -0400,1589843789.999691,41.34975273668174,-71.83661038983176,5.876296,2.882556,164.7642194295237,4.11462000389314,5.541048340410911,-9999,52731.380055875,-0.4268341064453125,0.2059478759765625,-0.201263427734375,1,0.92
2020-05-18 19:16:31.270 -0400,1589843789.999691,41.34975273668174,-71.83661038983176,5.876296,2.882556,164.7642194295237,4.11462000389314,5.541048340410911,-9999,52731.430024875,-0.1112518310546875,0.725372314453125,0.014404296875,1,0.92
2020-05-18 19:16:31.320 -0400,1589843789.999691,41.34975273668174,-71.83661038983176,5.876296,2.882556,164.7642194295237,4.11462000389314,5.541048340410911,-9999,52731.479994875,-0.20660400390625,3.2099609375,0.577239990234375,1,0.92
2020-05-18 19:16:31.370 -0400,1589843789.999691,41.34975273668174,-71.83661038983176,5.876296,2.882556,164.7642194295237,4.11462000389314,5.541048340410911,-9999,52731.529964875,1.691421508789062,2.998443603515625,0.32940673828125,1,0.92
2020-05-18 19:16:31.435 -0400,1589843789.999691,41.34975273668174,-71.83661038983176,5.876296,2.882556,164.7642194295237,4.11462000389314,5.541048340410911,-9999,52731.579934875,0.7354736328125,1.121368408203125,0.01409912109375,1,0.92
2020-05-18 19:16:31.490 -0400,1589843789.999691,41.34975273668174,-71.83661038983176,5.876296,2.882556,164.7642194295237,4.11462000389314,5.541048340410911,-9999,52731.6299035,0.1598663330078125,-0.1140289306640625,-0.1321868896484375,1,0.92
2020-05-18 19:16:31.520 -0400,1589843789.999691,41.34975273668174,-71.83661038983176,5.876296,2.882556,164.7642194295237,4.11462000389314,5.541048340410911,-9999,52731.6798735,0.5160369873046875,-0.846435546875,-0.0048370361328125,1,0.92
2020-05-18 19:16:31.570 -0400,1589843789.999691,41.34975273668174,-71.83661038983176,5.876296,2.882556,164.7642194295237,4.11462000389314,5.541048340410911,-9999,52731.7298435,0.5232391357421875,-0.910430908203125,0.076019287109375,1,0.92
2020-05-18 19:16:31.620 -0400,1589843789.999691,41.34975273668174,-71.83661038983176,5.876296,2.882556,164.7642194295237,4.11462000389314,5.541048340410911,-9999,52731.7798125,0.790069580078125,-0.316986083984375,0.1630401611328125,1,0.92
2020-05-18 19:16:31.670 -0400,1589843789.999691,41.34975273668174,-71.83661038983176,5.876296,2.882556,164.7642194295237,4.11462000389314,5.541048340410911,-9999,52731.8297825,1.3843994140625,0.916229248046875,-0.2109527587890625,1,0.92
2020-05-18 19:16:31.720 -0400,1589843789.999691,41.34975273668174,-71.83661038983176,5.876296,2.882556,164.7642194295237,4.11462000389314,5.541048340410911,-9999,52731.8797525,3.535751342773438,3.384811401367188,-0.9014129638671875,1,0.92
2020-05-18 19:16:31.770 -0400,1589843789.999691,41.34975273668174,-71.83661038983176,5.876296,2.882556,164.7642194295237,4.11462000389314,5.541048340410911,-9999,52731.9297225,0.95306396484375,2.039093017578125,-0.789581298828125,1,0.92
2020-05-18 19:16:31.820 -0400,1589843790.999684,41.34973103752063,-71.83658347267249,5.029428,2.816576,161.1718292034949,3.95273787516919,5.41613772950079,-9999,52731.9796915,-0.39794921875,0.7272186279296875,-0.4301910400390625,1,0.92
2020-05-18 19:16:31.873 -0400,1589843790.999684,41.34973103752063,-71.83658347267249,5.029428,2.816576,161.1718292034949,3.95273787516919,5.41613772950079,-9999,52732.0296615,-1.298599243164062,0.5951080322265625,-0.609375,1,0.92
2020-05-18 19:16:31.920 -0400,1589843790.999684,41.34973103752063,-71.83658347267249,5.029428,2.816576,161.1718292034949,3.95273787516919,5.41613772950079,-9999,52732.0796315,-0.8723602294921875,0.094970703125,-0.23895263671875,1,0.92
2020-05-18 19:16:31.970 -0400,1589843790.999684,41.34973103752063,-71.83658347267249,5.029428,2.816576,161.1718292034949,3.95273787516919,5.41613772950079,-9999,52732.1296015,-0.5143890380859375,0.0502166748046875,-0.1634368896484375,1,0.92
2020-05-18 19:16:32.024 -0400,1589843790.999684,41.34973103752063,-71.83658347267249,5.029428,2.816576,161.1718292034949,3.95273787516919,5.41613772950079,-9999,52732.1795705,-0.248443603515625,0.5994415283203125,-0.08489990234375,1,0.92
2020-05-18 19:16:32.070 -0400,1589843790.999684,41.34973103752063,-71.83658347267249,5.029428,2.816576,161.1718292034949,3.95273787516919,5.41613772950079,-9999,52732.2295405,-0.0064239501953125,2.66375732421875,-0.0156707763671875,1,0.92
2020-05-18 19:16:32.120 -0400,1589843790.999684,41.34973103752063,-71.83658347267249,5.029428,2.816576,161.1718292034949,3.95273787516919,5.41613772950079,-9999,52732.2795105,2.177001953125,3.22723388671875,0.3826446533203125,1,0.92
2020-05-18 19:16:32.170 -0400,1589843790.999684,41.34973103752063,-71.83658347267249,5.029428,2.816576,161.1718292034949,3.95273787516919,5.41613772950079,-9999,52732.3294795,0.7371978759765625,1.474990844726562,-0.153839111328125,1,0.92
2020-05-18 19:16:32.220 -0400,1589843790.999684,41.34973103752063,-71.83658347267249,5.029428,2.816576,161.1718292034949,3.95273787516919,5.41613772950079,-9999,52732.3794495,0.37762451171875,-0.00341796875,-0.12200927734375,1,0.92
2020-05-18 19:16:32.270 -0400,1589843790.999684,41.34973103752063,-71.83658347267249,5.029428,2.816576,161.1718292034949,3.95273787516919,5.41613772950079,-9999,52732.4294195,0.652557373046875,-0.9388427734375,-0.0355987548828125,1,0.92
2020-05-18 19:16:32.320 -0400,1589843791.999688,41.34970544655931,-71.83656241948269,5.676131,2.905992,159.4904950402582,3.996295979992312,5.383903162339946,-9999,52732.4793885,0.5126800537109375,-1.191207885742188,0.252593994140625,1,0.92
2020-05-18 19:16:32.369 -0400,1589843791.999688,41.34970544655931,-71.83656241948269,5.676131,2.905992,159.4904950402582,3.996295979992312,5.383903162339946,-9999,52732.5293585,0.7284088134765625,-0.298797607421875,0.204986572265625,1,0.92
2020-05-18 19:16:32.419 -0400,1589843791.999688,41.34970544655931,-71.83656241948269,5.676131,2.905992,159.4904950402582,3.996295979992312,5.383903162339946,-9999,52732.5793285,1.407180786132812,0.4494781494140625,-0.3285064697265625,1,0.92
2020-05-18 19:16:32.470 -0400,1589843791.999688,41.34970544655931,-71.83656241948269,5.676131,2.905992,159.4904950402582,3.996295979992312,5.383903162339946,-9999,52732.629299,3.315155029296875,3.294631958007812,-0.748199462890625,1,0.92
2020-05-18 19:16:32.519 -0400,1589843791.999688,41.34970544655931,-71.83656241948269,5.676131,2.905992,159.4904950402582,3.996295979992312,5.383903162339946,-9999,52732.679268,1.041122436523438,2.501113891601562,-1.053787231445312,1,0.92
2020-05-18 19:16:32.569 -0400,1589843791.999688,41.34970544655931,-71.83656241948269,5.676131,2.905992,159.4904950402582,3.996295979992312,5.383903162339946,-9999,52732.729238,-0.5013275146484375,1.141769409179688,-0.6142120361328125,1,0.92
2020-05-18 19:16:32.619 -0400,1589843791.999688,41.34970544655931,-71.83656241948269,5.676131,2.905992,159.4904950402582,3.996295979992312,5.383903162339946,-9999,52732.779208,-1.044540405273438,0.605499267578125,-0.560546875,1,0.92
2020-05-18 19:16:32.669 -0400,1589843791.999688,41.34970544655931,-71.83656241948269,5.676131,2.905992,159.4904950402582,3.996295979992312,5.383903162339946,-9999,52732.829178,-0.7914581298828125,0.1014251708984375,-0.1303253173828125,1,0.92
2020-05-18 19:16:32.719 -0400,1589843791.999688,41.34970544655931,-71.83656241948269,5.676131,2.905992,159.4904950402582,3.996295979992312,5.383903162339946,-9999,52732.879147,-0.6038055419921875,0.0354461669921875,-0.0850982666015625,1,0.92
2020-05-18 19:16:32.769 -0400,1589843791.999688,41.34970544655931,-71.83656241948269,5.676131,2.905992,159.4904950402582,3.996295979992312,5.383903162339946,-9999,52732.929117,-0.2958221435546875,1.03173828125,-0.02874755859375,1,0.92
2020-05-18 19:16:32.819 -0400,1589843791.999688,41.34970544655931,-71.83656241948269,5.676131,2.905992,159.4904950402582,3.996295979992312,5.383903162339946,-9999,52732.979087,0.78668212890625,5.101821899414062,0.2279052734375,1,0.92
2020-05-18 19:16:32.869 -0400,1589843791.999688,41.34970544655931,-71.83656241948269,5.676131,2.905992,159.4904950402582,3.996295979992312,5.383903162339946,-9999,52733.02905600001,0.8975677490234375,2.360061645507812,-0.276519775390625,1,0.92
2020-05-18 19:16:32.919 -0400,1589843791.999688,41.34970544655931,-71.83656241948269,5.676131,2.905992,159.4904950402582,3.996295979992312,5.383903162339946,-9999,52733.07902600001,0.643707275390625,0.6475677490234375,-0.17999267578125,1,0.92
2020-05-18 19:16:32.970 -0400,1589843791.999688,41.34970544655931,-71.83656241948269,5.676131,2.905992,159.4904950402582,3.996295979992312,5.383903162339946,-9999,52733.12899600001,0.4388427734375,-0.626678466796875,-0.076080322265625,1,0.92
2020-05-18 19:16:33.019 -0400,1589843791.999688,41.34970544655931,-71.83656241948269,5.676131,2.905992,159.4904950402582,3.996295979992312,5.383903162339946,-9999,52733.17896600001,0.5715179443359375,-0.9697265625,0.00115966796875,1,0.92
2020-05-18 19:18:11.408 -0400,1589843889.999725,41.34665070186499,-71.8350067544086,8.188379,3.02306,158.4093489855225,3.887080274324984,4.557357631912888,-9999,52831.568861375,-0.257781982421875,-0.07440185546875,-0.391693115234375,1,0.92
2020-05-18 19:18:11.459 -0400,1589843890.999724,41.34662957413771,-71.83499015271441,7.920003,2.830151,154.1102941740817,3.877249049975476,4.574139889826328,-9999,52831.618831375,-0.1898651123046875,-0.011871337890625,-0.495697021484375,1,0.92
2020-05-18 19:18:11.508 -0400,1589843890.999724,41.34662957413771,-71.83499015271441,7.920003,2.830151,154.1102941740817,3.877249049975476,4.574139889826328,-9999,52831.668800375,-0.122314453125,0.2024383544921875,-0.995941162109375,1,0.92
2020-05-18 19:18:11.559 -0400,1589843890.999724,41.34662957413771,-71.83499015271441,7.920003,2.830151,154.1102941740817,3.877249049975476,4.574139889826328,-9999,52831.71876875,-0.269744873046875,0.32745361328125,-1.475540161132812,1,0.92
2020-05-18 19:18:11.608 -0400,1589843890.999724,41.34662957413771,-71.83499015271441,7.920003,2.830151,154.1102941740817,3.877249049975476,4.574139889826328,-9999,52831.76873875,0.0642852783203125,0.2335357666015625,-1.530014038085938,1,0.92
2020-05-18 19:18:11.665 -0400,1589843890.999724,41.34662957413771,-71.83499015271441,7.920003,2.830151,154.1102941740817,3.877249049975476,4.574139889826328,-9999,52831.81870775,0.2208251953125,0.169342041015625,-1.394332885742188,1,0.92
2020-05-18 19:18:11.708 -0400,1589843890.999724,41.34662957413771,-71.83499015271441,7.920003,2.830151,154.1102941740817,3.877249049975476,4.574139889826328,-9999,52831.86867675,0.030029296875,0.1075897216796875,-0.9007415771484375,1,0.92
2020-05-18 19:18:11.758 -0400,1589843890.999724,41.34662957413771,-71.83499015271441,7.920003,2.830151,154.1102941740817,3.877249049975476,4.574139889826328,-9999,52831.91864575,-0.325531005859375,0.039031982421875,-0.914581298828125,1,0.92
2020-05-18 19:18:11.808 -0400,1589843890.999724,41.34662957413771,-71.83499015271441,7.920003,2.830151,154.1102941740817,3.877249049975476,4.574139889826328,-9999,52831.96861575,0.0465087890625,0.2241973876953125,-0.93536376953125,1,0.92
2020-05-18 19:18:11.858 -0400,1589843890.999724,41.34662957413771,-71.83499015271441,7.920003,2.830151,154.1102941740817,3.877249049975476,4.574139889826328,-9999,52832.01858475,0.1374053955078125,0.120391845703125,-0.707244873046875,1,0.92
2020-05-18 19:18:11.908 -0400,1589843890.999724,41.34662957413771,-71.83499015271441,7.920003,2.830151,154.1102941740817,3.877249049975476,4.574139889826328,-9999,52832.06855375,0.044281005859375,0.02630615234375,-0.80828857421875,1,0.92
