loggingTime(txt),locationTimestamp_since1970(s),locationLatitude(WGS84),locationLongitude(WGS84),locationAltitude(m),locationSpeed(m/s),locationCourse(°),locationVerticalAccuracy(m),locationHorizontalAccuracy(m),locationFloor(Z),accelerometerTimestamp_sinceReboot(s),accelerometerAccelerationX(G),accelerometerAccelerationY(G),accelerometerAccelerationZ(G),batteryState,batteryLevel
2020-05-18 19:27:13.832 -0400,1589844432.999632,41.33974511849124,-71.83628648118581,5.26552,1.236373,30.18039945486536,3.389226639414885,4.836645940986596,-9999,53325.2218445,-0.418060302734375,0.5897369384765625,-1.164779663085938,1,0.91
2020-05-18 19:27:13.882 -0400,1589844432.999632,41.33974511849124,-71.83628648118581,5.26552,1.236373,30.18039945486536,3.389226639414885,4.836645940986596,-9999,53325.2717405,-0.1837310791015625,0.7236480712890625,-1.420623779296875,1,0.91
2020-05-18 19:27:13.931 -0400,1589844432.999632,41.33974511849124,-71.83628648118581,5.26552,1.236373,30.18039945486536,3.389226639414885,4.836645940986596,-9999,53325.3216355,0.1114501953125,0.438629150390625,-1.61419677734375,1,0.91
2020-05-18 19:27:13.983 -0400,1589844432.999632,41.33974511849124,-71.83628648118581,5.26552,1.236373,30.18039945486536,3.389226639414885,4.836645940986596,-9999,53325.3715285,0.3541259765625,-0.02716064453125,-1.2161865234375,1,0.91
2020-05-18 19:27:14.031 -0400,1589844432.999632,41.33974511849124,-71.83628648118581,5.26552,1.236373,30.18039945486536,3.389226639414885,4.836645940986596,-9999,53325.4214235,0.2689361572265625,-0.173309326171875,-0.6185302734375,1,0.91
2020-05-18 19:27:14.081 -0400,1589844432.999632,41.33974511849124,-71.83628648118581,5.26552,1.236373,30.18039945486536,3.389226639414885,4.836645940986596,-9999,53325.4713205,0.1958465576171875,-0.2097625732421875,-0.39288330078125,1,0.91
2020-05-18 19:27:14.131 -0400,1589844432.999632,41.33974511849124,-71.83628648118581,5.26552,1.236373,30.18039945486536,3.389226639414885,4.836645940986596,-9999,53325.5212135,0.2621917724609375,0.01080322265625,-0.4739837646484375,1,0.91
2020-05-18 19:27:14.181 -0400,1589844432.999632,41.33974511849124,-71.83628648118581,5.26552,1.236373,30.18039945486536,3.389226639414885,4.836645940986596,-9999,53325.57110650001,0.5334014892578125,0.0708770751953125,-0.8326873779296875,1,0.91
2020-05-18 19:27:14.231 -0400,1589844432.999632,41.33974511849124,-71.83628648118581,5.26552,1.236373,30.18039945486536,3.389226639414885,4.836645940986596,-9999,53325.6209995,0.7279510498046875,0.276214599609375,-1.512222290039062,1,0.91
2020-05-18 19:27:14.281 -0400,1589844432.999632,41.33974511849124,-71.83628648118581,5.26552,1.236373,30.18039945486536,3.389226639414885,4.836645940986596,-9999,53325.67089150001,0.562225341796875,0.40264892578125,-1.696014404296875,1,0.91
2020-05-18 19:27:14.331 -0400,1589844432.999632,41.33974511849124,-71.83628648118581,5.26552,1.236373,30.18039945486536,3.389226639414885,4.836645940986596,-9999,53325.7207825,0.1631622314453125,0.39068603515625,-1.46966552734375,1,0.91
2020-05-18 19:27:14.381 -0400,1589844433.999626,41.33975409608023,-71.83628369220439,5.136924,1.036151,30.53177017601608,3.535140719029156,4.976839045702547,-9999,53325.7706755,-0.1280059814453125,0.4532928466796875,-1.02667236328125,1,0.91
2020-05-18 19:27:14.431 -0400,1589844433.999626,41.33975409608023,-71.83628369220439,5.136924,1.036151,30.53177017601608,3.535140719029156,4.976839045702547,-9999,53325.82056850001,-0.5089874267578125,-0.0541839599609375,-0.570892333984375,1,0.91
2020-05-18 19:27:14.492 -0400,1589844433.999626,41.33975409608023,-71.83628369220439,5.136924,1.036151,30.53177017601608,3.535140719029156,4.976839045702547,-9999,53325.8704595,-0.424102783203125,0.155548095703125,-0.3270416259765625,1,0.91
2020-05-18 19:27:14.531 -0400,1589844433.999626,41.33975409608023,-71.83628369220439,5.136924,1.036151,30.53177017601608,3.535140719029156,4.976839045702547,-9999,53325.9203485,-0.417205810546875,0.0063018798828125,-0.45538330078125,1,0.91
2020-05-18 19:27:14.580 -0400,1589844433.999626,41.33975409608023,-71.83628369220439,5.136924,1.036151,30.53177017601608,3.535140719029156,4.976839045702547,-9999,53325.97024150001,-0.288421630859375,0.14190673828125,-0.610382080078125,1,0.91
2020-05-18 19:27:14.630 -0400,1589844433.999626,41.33975409608023,-71.83628369220439,5.136924,1.036151,30.53177017601608,3.535140719029156,4.976839045702547,-9999,53326.0201365,-0.0771636962890625,0.716949462890625,-1.108261108398438,1,0.91
2020-05-18 19:27:14.680 -0400,1589844433.999626,41.33975409608023,-71.83628369220439,5.136924,1.036151,30.53177017601608,3.535140719029156,4.976839045702547,-9999,53326.07002850001,0.210540771484375,0.954498291015625,-1.495025634765625,1,0.91
2020-05-18 19:27:14.730 -0400,1589844433.999626,41.33975409608023,-71.83628369220439,5.136924,1.036151,30.53177017601608,3.535140719029156,4.976839045702547,-9999,53326.1199185,0.438262939453125,1.27166748046875,-1.49462890625,1,0.91
2020-05-18 19:27:14.780 -0400,1589844433.999626,41.33975409608023,-71.83628369220439,5.136924,1.036151,30.53177017601608,3.535140719029156,4.976839045702547,-9999,53326.1698115,0.58642578125,0.72882080078125,-0.81109619140625,1,0.91
2020-05-18 19:27:14.830 -0400,1589844433.999626,41.33975409608023,-71.83628369220439,5.136924,1.036151,30.53177017601608,3.535140719029156,4.976839045702547,-9999,53326.219701875,0.44866943359375,0.00860595703125,-0.230377197265625,1,0.91
2020-05-18 19:27:14.880 -0400,1589844433.999626,41.33975409608023,-71.83628369220439,5.136924,1.036151,30.53177017601608,3.535140719029156,4.976839045702547,-9999,53326.269595875,0.4587554931640625,-0.130462646484375,-0.4796600341796875,1,0.91
2020-05-18 19:27:14.929 -0400,1589844433.999626,41.33975409608023,-71.83628369220439,5.136924,1.036151,30.53177017601608,3.535140719029156,4.976839045702547,-9999,53326.319488875,0.377655029296875,-0.5860595703125,0.1370086669921875,1,0.91
2020-05-18 19:27:14.992 -0400,1589844433.999626,41.33975409608023,-71.83628369220439,5.136924,1.036151,30.53177017601608,3.535140719029156,4.976839045702547,-9999,53326.369381875,0.988372802734375,-0.267364501953125,-0.241241455078125,1,0.91
2020-05-18 19:27:15.029 -0400,1589844433.999626,41.33975409608023,-71.83628369220439,5.136924,1.036151,30.53177017601608,3.535140719029156,4.976839045702547,-9999,53326.41927287501,2.722671508789062,1.972640991210938,-0.977203369140625,1,0.91
2020-05-18 19:27:15.079 -0400,1589844433.999626,41.33975409608023,-71.83628369220439,5.136924,1.036151,30.53177017601608,3.535140719029156,4.976839045702547,-9999,53326.469164875,2.492462158203125,2.765167236328125,-1.151397705078125,1,0.91
2020-05-18 19:27:15.129 -0400,1589844433.999626,41.33975409608023,-71.83628369220439,5.136924,1.036151,30.53177017601608,3.535140719029156,4.976839045702547,-9999,53326.519058875,0.4680633544921875,1.987091064453125,-0.778350830078125,1,0.91
2020-05-18 19:27:15.179 -0400,1589844433.999626,41.33975409608023,-71.83628369220439,5.136924,1.036151,30.53177017601608,3.535140719029156,4.976839045702547,-9999,53326.568950875,-0.53045654296875,0.88592529296875,-0.32147216796875,1,0.91
2020-05-18 19:27:15.229 -0400,1589844433.999626,41.33975409608023,-71.83628369220439,5.136924,1.036151,30.53177017601608,3.535140719029156,4.976839045702547,-9999,53326.618840875,-0.80499267578125,0.391021728515625,-0.148895263671875,1,0.91
2020-05-18 19:27:15.279 -0400,1589844433.999626,41.33975409608023,-71.83628369220439,5.136924,1.036151,30.53177017601608,3.535140719029156,4.976839045702547,-9999,53326.668728875,-0.7320098876953125,-0.0415191650390625,-0.2231903076171875,1,0.91
2020-05-18 19:27:15.329 -0400,1589844433.999626,41.33975409608023,-71.83628369220439,5.136924,1.036151,30.53177017601608,3.535140719029156,4.976839045702547,-9999,53326.71861787501,-0.4701080322265625,-0.0983428955078125,-0.1959228515625,1,0.91
2020-05-18 19:27:15.379 -0400,1589844433.999626,41.33975409608023,-71.83628369220439,5.136924,1.036151,30.53177017601608,3.535140719029156,4.976839045702547,-9999,53326.768508875,-0.1945037841796875,0.41741943359375,-0.2846527099609375,1,0.91
2020-05-18 19:27:15.429 -0400,1589844433.999626,41.33975409608023,-71.83628369220439,5.136924,1.036151,30.53177017601608,3.535140719029156,4.976839045702547,-9999,53326.818397875,0.2410736083984375,2.559005737304688,-0.803955078125,1,0.91
2020-05-18 19:27:15.478 -0400,1589844434.999622,41.33976522627086,-71.8362808400347,4.28039,1.109263,27.64310175382717,3.571853019210559,5.214399736929311,-9999,53326.868285875,0.88433837890625,3.070114135742188,-0.8130645751953125,1,0.91
2020-05-18 19:27:15.528 -0400,1589844434.999622,41.33976522627086,-71.8362808400347,4.28039,1.109263,27.64310175382717,3.571853019210559,5.214399736929311,-9999,53326.918173875,0.64276123046875,1.286712646484375,-0.449859619140625,1,0.91
2020-05-18 19:27:15.578 -0400,1589844434.999622,41.33976522627086,-71.8362808400347,4.28039,1.109263,27.64310175382717,3.571853019210559,5.214399736929311,-9999,53326.968064875,0.3404083251953125,0.1795196533203125,-0.1574859619140625,1,0.91
2020-05-18 19:27:15.628 -0400,1589844434.999622,41.33976522627086,-71.8362808400347,4.28039,1.109263,27.64310175382717,3.571853019210559,5.214399736929311,-9999,53327.017955875,0.39739990234375,-0.4766387939453125,0.0044708251953125,1,0.91
2020-05-18 19:27:15.678 -0400,1589844434.999622,41.33976522627086,-71.8362808400347,4.28039,1.109263,27.64310175382717,3.571853019210559,5.214399736929311,-9999,53327.067845875,0.422637939453125,-0.6180419921875,0.2187347412109375,1,0.91
2020-05-18 19:27:15.728 -0400,1589844434.999622,41.33976522627086,-71.8362808400347,4.28039,1.109263,27.64310175382717,3.571853019210559,5.214399736929311,-9999,53327.11773587501,0.4779815673828125,-0.3457794189453125,0.1842803955078125,1,0.91
2020-05-18 19:27:15.778 -0400,1589844434.999622,41.33976522627086,-71.8362808400347,4.28039,1.109263,27.64310175382717,3.571853019210559,5.214399736929311,-9999,53327.167628875,0.9040985107421875,0.122833251953125,-0.0270538330078125,1,0.91
2020-05-18 19:27:15.827 -0400,1589844434.999622,41.33976522627086,-71.8362808400347,4.28039,1.109263,27.64310175382717,3.571853019210559,5.214399736929311,-9999,53327.217519375,3.216598510742188,2.41015625,-0.3951263427734375,1,0.91
2020-05-18 19:27:15.877 -0400,1589844434.999622,41.33976522627086,-71.8362808400347,4.28039,1.109263,27.64310175382717,3.571853019210559,5.214399736929311,-9999,53327.267414375,2.266952514648438,2.7845458984375,-1.0064697265625,1,0.91
2020-05-18 19:27:15.927 -0400,1589844434.999622,41.33976522627086,-71.8362808400347,4.28039,1.109263,27.64310175382717,3.571853019210559,5.214399736929311,-9999,53327.317308375,0.557373046875,1.796661376953125,-0.9949493408203125,1,0.91
2020-05-18 19:27:15.977 -0400,1589844434.999622,41.33976522627086,-71.8362808400347,4.28039,1.109263,27.64310175382717,3.571853019210559,5.214399736929311,-9999,53327.367201375,-0.444427490234375,0.7930450439453125,-0.814117431640625,1,0.91
2020-05-18 19:27:16.027 -0400,1589844434.999622,41.33976522627086,-71.8362808400347,4.28039,1.109263,27.64310175382717,3.571853019210559,5.214399736929311,-9999,53327.417095375,-0.791778564453125,0.282745361328125,-0.564544677734375,1,0.91
2020-05-18 19:27:16.077 -0400,1589844434.999622,41.33976522627086,-71.8362808400347,4.28039,1.109263,27.64310175382717,3.571853019210559,5.214399736929311,-9999,53327.466992375,-0.6556549072265625,-0.0926513671875,-0.2085418701171875,1,0.91
2020-05-18 19:27:16.127 -0400,1589844434.999622,41.33976522627086,-71.8362808400347,4.28039,1.109263,27.64310175382717,3.571853019210559,5.214399736929311,-9999,53327.516888375,-0.3338165283203125,-0.1044158935546875,-0.1612701416015625,1,0.91
2020-05-18 19:27:16.177 -0400,1589844434.999622,41.33976522627086,-71.8362808400347,4.28039,1.109263,27.64310175382717,3.571853019210559,5.214399736929311,-9999,53327.56678437501,-0.1578369140625,0.7081451416015625,-0.1220855712890625,1,0.91
2020-05-18 19:27:16.227 -0400,1589844434.999622,41.33976522627086,-71.8362808400347,4.28039,1.109263,27.64310175382717,3.571853019210559,5.214399736929311,-9999,53327.616678375,0.571624755859375,4.323455810546875,-0.81378173828125,1,0.91
2020-05-18 19:27:16.277 -0400,1589844435.999626,41.33977893932438,-71.83626737407891,1.572817,1.39948,29.58475494363248,3.614832179662983,5.420671192792012,-9999,53327.666569375,0.6134185791015625,2.816802978515625,-0.7631683349609375,1,0.91
2020-05-18 19:27:16.327 -0400,1589844435.999626,41.33977893932438,-71.83626737407891,1.572817,1.39948,29.58475494363248,3.614832179662983,5.420671192792012,-9999,53327.71646137501,0.6756591796875,0.8340606689453125,-0.2258758544921875,1,0.91
2020-05-18 19:27:16.376 -0400,1589844435.999626,41.33977893932438,-71.83626737407891,1.572817,1.39948,29.58475494363248,3.614832179662983,5.420671192792012,-9999,53327.766357375,0.5020751953125,-0.2527313232421875,0.06005859375,1,0.91
2020-05-18 19:27:16.426 -0400,1589844435.999626,41.33977893932438,-71.83626737407891,1.572817,1.39948,29.58475494363248,3.614832179662983,5.420671192792012,-9999,53327.816252375,0.6228179931640625,-0.5350494384765625,-0.16925048828125,1,0.91
2020-05-18 19:27:16.476 -0400,1589844435.999626,41.33977893932438,-71.83626737407891,1.572817,1.39948,29.58475494363248,3.614832179662983,5.420671192792012,-9999,53327.866146375,0.420379638671875,-0.616363525390625,0.1724853515625,1,0.91
2020-05-18 19:27:16.526 -0400,1589844435.999626,41.33977893932438,-71.83626737407891,1.572817,1.39948,29.58475494363248,3.614832179662983,5.420671192792012,-9999,53327.91603737501,0.8929443359375,-0.204254150390625,0.2630462646484375,1,0.91
2020-05-18 19:27:16.576 -0400,1589844435.999626,41.33977893932438,-71.83626737407891,1.572817,1.39948,29.58475494363248,3.614832179662983,5.420671192792012,-9999,53327.965929375,1.525741577148438,0.451751708984375,-0.134521484375,1,0.91
2020-05-18 19:27:16.626 -0400,1589844435.999626,41.33977893932438,-71.83626737407891,1.572817,1.39948,29.58475494363248,3.614832179662983,5.420671192792012,-9999,53328.015821375,3.4991455078125,3.0869140625,-0.6514434814453125,1,0.91
2020-05-18 19:27:16.676 -0400,1589844435.999626,41.33977893932438,-71.83626737407891,1.572817,1.39948,29.58475494363248,3.614832179662983,5.420671192792012,-9999,53328.06571437501,1.566940307617188,2.37017822265625,-0.8500823974609375,1,0.91
2020-05-18 19:27:16.726 -0400,1589844435.999626,41.33977893932438,-71.83626737407891,1.572817,1.39948,29.58475494363248,3.614832179662983,5.420671192792012,-9999,53328.115605375,0.0529327392578125,1.509902954101562,-0.501068115234375,1,0.91
2020-05-18 19:27:16.775 -0400,1589844435.999626,41.33977893932438,-71.83626737407891,1.572817,1.39948,29.58475494363248,3.614832179662983,5.420671192792012,-9999,53328.165495375,-0.82171630859375,0.8530731201171875,-0.4564056396484375,1,0.91
2020-05-18 19:27:16.825 -0400,1589844435.999626,41.33977893932438,-71.83626737407891,1.572817,1.39948,29.58475494363248,3.614832179662983,5.420671192792012,-9999,53328.21538537501,-0.9724273681640625,0.240631103515625,-0.1445159912109375,1,0.91
2020-05-18 19:27:16.875 -0400,1589844435.999626,41.33977893932438,-71.83626737407891,1.572817,1.39948,29.58475494363248,3.614832179662983,5.420671192792012,-9999,53328.265277375,-0.4553985595703125,0.1428070068359375,-0.2099609375,1,0.91
2020-05-18 19:27:16.925 -0400,1589844435.999626,41.33977893932438,-71.83626737407891,1.572817,1.39948,29.58475494363248,3.614832179662983,5.420671192792012,-9999,53328.315169375,-0.03314208984375,0.42828369140625,-0.3395233154296875,1,0.91
2020-05-18 19:27:16.975 -0400,1589844435.999626,41.33977893932438,-71.83626737407891,1.572817,1.39948,29.58475494363248,3.614832179662983,5.420671192792012,-9999,53328.36506037501,0.1037750244140625,1.692550659179688,-0.1281280517578125,1,0.91
2020-05-18 19:27:17.025 -0400,1589844435.999626,41.33977893932438,-71.83626737407891,1.572817,1.39948,29.58475494363248,3.614832179662983,5.420671192792012,-9999,53328.414953375,1.354782104492188,3.741302490234375,-0.405242919921875,1,0.91
2020-05-18 19:27:17.075 -0400,1589844435.999626,41.33977893932438,-71.83626737407891,1.572817,1.39948,29.58475494363248,3.614832179662983,5.420671192792012,-9999,53328.464844375,1.037948608398438,1.887191772460938,-0.3056793212890625,1,0.91
2020-05-18 19:27:17.125 -0400,1589844435.999626,41.33977893932438,-71.83626737407891,1.572817,1.39948,29.58475494363248,3.614832179662983,5.420671192792012,-9999,53328.514735375,0.490936279296875,0.126953125,-0.0665740966796875,1,0.91
2020-05-18 19:27:17.175 -0400,1589844435.999626,41.33977893932438,-71.83626737407891,1.572817,1.39948,29.58475494363248,3.614832179662983,5.420671192792012,-9999,53328.564628375,0.3460845947265625,-0.5715789794921875,0.034393310546875,1,0.91
2020-05-18 19:27:17.224 -0400,1589844435.999626,41.33977893932438,-71.83626737407891,1.572817,1.39948,29.58475494363248,3.614832179662983,5.420671192792012,-9999,53328.61452237501,0.5306854248046875,-1.089019775390625,0.2740020751953125,1,0.91
2020-05-18 19:27:17.281 -0400,1589844435.999626,41.33977893932438,-71.83626737407891,1.572817,1.39948,29.58475494363248,3.614832179662983,5.420671192792012,-9999,53328.664418375,0.6616058349609375,-0.4608154296875,0.308197021484375,1,0.91
2020-05-18 19:27:17.324 -0400,1589844436.99962,41.33980173350795,-71.836248528008,4.007413,1.971019,32.05682395957445,3.597191051226261,5.336982418114572,-9999,53328.71431037501,1.186782836914062,0.014923095703125,0.1540069580078125,1,0.91
2020-05-18 19:27:17.374 -0400,1589844436.99962,41.33980173350795,-71.836248528008,4.007413,1.971019,32.05682395957445,3.597191051226261,5.336982418114572,-9999,53328.764203375,3.076385498046875,1.7056884765625,-0.2302093505859375,1,0.91
2020-05-18 19:27:17.424 -0400,1589844436.99962,41.33980173350795,-71.836248528008,4.007413,1.971019,32.05682395957445,3.597191051226261,5.336982418114572,-9999,53328.81409837501,3.138046264648438,2.651519775390625,-0.762603759765625,1,0.91
2020-05-18 19:27:17.474 -0400,1589844436.99962,41.33980173350795,-71.836248528008,4.007413,1.971019,32.05682395957445,3.597191051226261,5.336982418114572,-9999,53328.863992375,1.092544555664062,1.959671020507812,-0.89837646484375,1,0.91
2020-05-18 19:27:17.524 -0400,1589844436.99962,41.33980173350795,-71.836248528008,4.007413,1.971019,32.05682395957445,3.597191051226261,5.336982418114572,-9999,53328.91388737501,-0.238006591796875,1.19281005859375,-0.57049560546875,1,0.91
2020-05-18 19:27:17.574 -0400,1589844436.99962,41.33980173350795,-71.836248528008,4.007413,1.971019,32.05682395957445,3.597191051226261,5.336982418114572,-9999,53328.963781375,-1.126998901367188,0.548614501953125,-0.578826904296875,1,0.91
2020-05-18 19:27:17.624 -0400,1589844436.99962,41.33980173350795,-71.836248528008,4.007413,1.971019,32.05682395957445,3.597191051226261,5.336982418114572,-9999,53329.013675375,-0.8857574462890625,0.253631591796875,-0.2469024658203125,1,0.91
2020-05-18 19:27:17.674 -0400,1589844436.99962,41.33980173350795,-71.836248528008,4.007413,1.971019,32.05682395957445,3.597191051226261,5.336982418114572,-9999,53329.063574375,-0.352752685546875,0.1692657470703125,-0.217987060546875,1,0.91
2020-05-18 19:27:17.723 -0400,1589844436.99962,41.33980173350795,-71.836248528008,4.007413,1.971019,32.05682395957445,3.597191051226261,5.336982418114572,-9999,53329.113473375,-0.0232696533203125,0.6355133056640625,-0.12139892578125,1,0.91
2020-05-18 19:27:17.773 -0400,1589844436.99962,41.33980173350795,-71.836248528008,4.007413,1.971019,32.05682395957445,3.597191051226261,5.336982418114572,-9999,53329.16337337501,0.363372802734375,2.466033935546875,-0.102386474609375,1,0.91
2020-05-18 19:27:17.823 -0400,1589844436.99962,41.33980173350795,-71.836248528008,4.007413,1.971019,32.05682395957445,3.597191051226261,5.336982418114572,-9999,53329.213271375,1.942764282226562,3.353836059570312,-0.0258331298828125,1,0.91
2020-05-18 19:27:17.873 -0400,1589844436.99962,41.33980173350795,-71.836248528008,4.007413,1.971019,32.05682395957445,3.597191051226261,5.336982418114572,-9999,53329.26316666667,0.9559783935546875,1.687240600585938,-0.1024627685546875,1,0.91
2020-05-18 19:27:17.923 -0400,1589844436.99962,41.33980173350795,-71.836248528008,4.007413,1.971019,32.05682395957445,3.597191051226261,5.336982418114572,-9999,53329.31306266667,0.4406585693359375,0.127532958984375,-0.05059814453125,1,0.91
2020-05-18 19:27:17.973 -0400,1589844436.99962,41.33980173350795,-71.836248528008,4.007413,1.971019,32.05682395957445,3.597191051226261,5.336982418114572,-9999,53329.36295566667,0.367431640625,-0.742034912109375,-0.023895263671875,1,0.91
2020-05-18 19:27:18.023 -0400,1589844436.99962,41.33980173350795,-71.836248528008,4.007413,1.971019,32.05682395957445,3.597191051226261,5.336982418114572,-9999,53329.41285166667,0.516998291015625,-0.8838043212890625,0.10565185546875,1,0.91
2020-05-18 19:27:18.073 -0400,1589844436.99962,41.33980173350795,-71.836248528008,4.007413,1.971019,32.05682395957445,3.597191051226261,5.336982418114572,-9999,53329.46274866667,0.7044677734375,-0.496246337890625,-0.0474090576171875,1,0.91
2020-05-18 19:27:18.123 -0400,1589844436.99962,41.33980173350795,-71.836248528008,4.007413,1.971019,32.05682395957445,3.597191051226261,5.336982418114572,-9999,53329.51264766667,0.9776153564453125,-0.1643218994140625,-0.0652008056640625,1,0.91
2020-05-18 19:27:18.173 -0400,1589844436.99962,41.33980173350795,-71.836248528008,4.007413,1.971019,32.05682395957445,3.597191051226261,5.336982418114572,-9999,53329.56254366667,2.065185546875,1.072708129882812,-0.0815582275390625,1,0.91
2020-05-18 19:27:18.222 -0400,1589844436.99962,41.33980173350795,-71.836248528008,4.007413,1.971019,32.05682395957445,3.597191051226261,5.336982418114572,-9999,53329.61243766667,3.570205688476562,3.08221435546875,-0.872589111328125,1,0.91
2020-05-18 19:27:18.272 -0400,1589844436.99962,41.33980173350795,-71.836248528008,4.007413,1.971019,32.05682395957445,3.597191051226261,5.336982418114572,-9999,53329.66233266667,1.082565307617188,2.348602294921875,-0.3909759521484375,1,0.91
2020-05-18 19:27:18.322 -0400,1589844437.999619,41.33981002023066,-71.83624177887494,5.653131,1.201897,28.42275061591429,3.684383652098652,5.051873812996889,-9999,53329.71222666667,-0.286224365234375,0.8282470703125,-0.684906005859375,1,0.91
2020-05-18 19:27:18.372 -0400,1589844437.999619,41.33981002023066,-71.83624177887494,5.653131,1.201897,28.42275061591429,3.684383652098652,5.051873812996889,-9999,53329.76212166667,-1.408172607421875,0.513397216796875,-0.5951995849609375,1,0.91
2020-05-18 19:27:18.422 -0400,1589844437.999619,41.33981002023066,-71.83624177887494,5.653131,1.201897,28.42275061591429,3.684383652098652,5.051873812996889,-9999,53329.81201466667,-0.9091949462890625,0.0994873046875,-0.23663330078125,1,0.91
2020-05-18 19:27:18.472 -0400,1589844437.999619,41.33981002023066,-71.83624177887494,5.653131,1.201897,28.42275061591429,3.684383652098652,5.051873812996889,-9999,53329.86190866667,-0.4210205078125,0.122772216796875,-0.249298095703125,1,0.91
2020-05-18 19:27:18.522 -0400,1589844437.999619,41.33981002023066,-71.83624177887494,5.653131,1.201897,28.42275061591429,3.684383652098652,5.051873812996889,-9999,53329.91180266667,-0.1067962646484375,0.603057861328125,-0.1335296630859375,1,0.91
2020-05-18 19:27:18.572 -0400,1589844437.999619,41.33981002023066,-71.83624177887494,5.653131,1.201897,28.42275061591429,3.684383652098652,5.051873812996889,-9999,53329.96169966667,0.1929473876953125,2.937408447265625,-0.0551910400390625,1,0.91
2020-05-18 19:27:18.622 -0400,1589844437.999619,41.33981002023066,-71.83624177887494,5.653131,1.201897,28.42275061591429,3.684383652098652,5.051873812996889,-9999,53330.01159566667,1.750381469726562,3.804901123046875,0.0805511474609375,1,0.91
2020-05-18 19:27:18.672 -0400,1589844437.999619,41.33981002023066,-71.83624177887494,5.653131,1.201897,28.42275061591429,3.684383652098652,5.051873812996889,-9999,53330.06149166667,1.106124877929688,1.45745849609375,-0.031707763671875,1,0.91
2020-05-18 19:27:18.721 -0400,1589844437.999619,41.33981002023066,-71.83624177887494,5.653131,1.201897,28.42275061591429,3.684383652098652,5.051873812996889,-9999,53330.11138666667,0.3442840576171875,-0.1630401611328125,-0.0889129638671875,1,0.91
2020-05-18 19:27:18.771 -0400,1589844437.999619,41.33981002023066,-71.83624177887494,5.653131,1.201897,28.42275061591429,3.684383652098652,5.051873812996889,-9999,53330.16128166667,0.386810302734375,-0.9233245849609375,-0.00140380859375,1,0.91
2020-05-18 19:27:18.821 -0400,1589844437.999619,41.33981002023066,-71.83624177887494,5.653131,1.201897,28.42275061591429,3.684383652098652,5.051873812996889,-9999,53330.21117766667,0.4389190673828125,-0.747833251953125,-0.0717620849609375,1,0.91
2020-05-18 19:27:18.871 -0400,1589844437.999619,41.33981002023066,-71.83624177887494,5.653131,1.201897,28.42275061591429,3.684383652098652,5.051873812996889,-9999,53330.26107316667,0.6888580322265625,-0.31756591796875,0.04510498046875,1,0.91
2020-05-18 19:27:18.921 -0400,1589844437.999619,41.33981002023066,-71.83624177887494,5.653131,1.201897,28.42275061591429,3.684383652098652,5.051873812996889,-9999,53330.31096716667,1.3193359375,-0.1223602294921875,0.2268829345703125,1,0.91
2020-05-18 19:27:18.971 -0400,1589844437.999619,41.33981002023066,-71.83624177887494,5.653131,1.201897,28.42275061591429,3.684383652098652,5.051873812996889,-9999,53330.36086316667,4.193267822265625,2.801376342773438,0.0587921142578125,1,0.91
2020-05-18 19:27:19.021 -0400,1589844437.999619,41.33981002023066,-71.83624177887494,5.653131,1.201897,28.42275061591429,3.684383652098652,5.051873812996889,-9999,53330.41075916667,2.406402587890625,3.20819091796875,-0.7285003662109375,1,0.91
2020-05-18 19:27:19.071 -0400,1589844437.999619,41.33981002023066,-71.83624177887494,5.653131,1.201897,28.42275061591429,3.684383652098652,5.051873812996889,-9999,53330.46065716667,0.553436279296875,1.752151489257812,-0.5320281982421875,1,0.91
2020-05-18 19:27:19.133 -0400,1589844437.999619,41.33981002023066,-71.83624177887494,5.653131,1.201897,28.42275061591429,3.684383652098652,5.051873812996889,-9999,53330.51055316667,-0.7267608642578125,0.907623291015625,-0.446380615234375,1,0.9
2020-05-18 19:27:19.171 -0400,1589844437.999619,41.33981002023066,-71.83624177887494,5.653131,1.201897,28.42275061591429,3.684383652098652,5.051873812996889,-9999,53330.56045016667,-1.184982299804688,0.5104827880859375,-0.3979949951171875,1,0.9
2020-05-18 19:27:19.220 -0400,1589844437.999619,41.33981002023066,-71.83624177887494,5.653131,1.201897,28.42275061591429,3.684383652098652,5.051873812996889,-9999,53330.61034716667,-0.7383270263671875,-0.055511474609375,-0.0345458984375,1,0.9
2020-05-18 19:27:19.270 -0400,1589844437.999619,41.33981002023066,-71.83624177887494,5.653131,1.201897,28.42275061591429,3.684383652098652,5.051873812996889,-9999,53330.66024116667,-0.412078857421875,0.3082427978515625,-0.1190338134765625,1,0.9
2020-05-18 19:27:19.320 -0400,1589844437.999619,41.33981002023066,-71.83624177887494,5.653131,1.201897,28.42275061591429,3.684383652098652,5.051873812996889,-9999,53330.71013716667,-0.0391693115234375,0.9277496337890625,0.196136474609375,1,0.9
2020-05-18 19:27:19.370 -0400,1589844437.999619,41.33981002023066,-71.83624177887494,5.653131,1.201897,28.42275061591429,3.684383652098652,5.051873812996889,-9999,53330.76003616667,1.48712158203125,4.988082885742188,0.322509765625,1,0.9
2020-05-18 19:27:19.423 -0400,1589844437.999619,41.33981002023066,-71.83624177887494,5.653131,1.201897,28.42275061591429,3.684383652098652,5.051873812996889,-9999,53330.80993316667,1.192962646484375,2.815155029296875,-0.2580413818359375,1,0.9
2020-05-18 19:27:19.470 -0400,1589844438.999616,41.33982733662987,-71.83623505930642,1.835291,1.405849,22.37765316351129,3.688513372312484,4.966210613125885,-9999,53330.85983016667,0.817718505859375,0.64154052734375,-0.0032958984375,1,0.9
2020-05-18 19:27:19.520 -0400,1589844438.999616,41.33982733662987,-71.83623505930642,1.835291,1.405849,22.37765316351129,3.688513372312484,4.966210613125885,-9999,53330.90972316667,0.268951416015625,-0.41632080078125,0.105865478515625,1,0.9
2020-05-18 19:27:19.570 -0400,1589844438.999616,41.33982733662987,-71.83623505930642,1.835291,1.405849,22.37765316351129,3.688513372312484,4.966210613125885,-9999,53330.95961816667,0.4985809326171875,-0.82965087890625,0.0933074951171875,1,0.9
2020-05-18 19:27:19.620 -0400,1589844438.999616,41.33982733662987,-71.83623505930642,1.835291,1.405849,22.37765316351129,3.688513372312484,4.966210613125885,-9999,53331.00951316667,0.546722412109375,-0.8187255859375,0.230377197265625,1,0.9
2020-05-18 19:27:19.669 -0400,1589844438.999616,41.33982733662987,-71.83623505930642,1.835291,1.405849,22.37765316351129,3.688513372312484,4.966210613125885,-9999,53331.05941016667,0.783111572265625,-0.4030303955078125,0.31365966796875,1,0.9
2020-05-18 19:27:19.722 -0400,1589844438.999616,41.33982733662987,-71.83623505930642,1.835291,1.405849,22.37765316351129,3.688513372312484,4.966210613125885,-9999,53331.10930616667,1.710479736328125,0.1872406005859375,0.1623382568359375,1,0.9
2020-05-18 19:27:19.770 -0400,1589844438.999616,41.33982733662987,-71.83623505930642,1.835291,1.405849,22.37765316351129,3.688513372312484,4.966210613125885,-9999,53331.15920016667,4.25079345703125,3.8232421875,-0.1731109619140625,1,0.9
2020-05-18 19:27:19.823 -0400,1589844438.999616,41.33982733662987,-71.83623505930642,1.835291,1.405849,22.37765316351129,3.688513372312484,4.966210613125885,-9999,53331.20909716667,1.341827392578125,2.563735961914062,-0.590789794921875,1,0.9
2020-05-18 19:27:19.869 -0400,1589844438.999616,41.33982733662987,-71.83623505930642,1.835291,1.405849,22.37765316351129,3.688513372312484,4.966210613125885,-9999,53331.258995,-0.1251373291015625,1.268508911132812,-0.3984832763671875,1,0.9
2020-05-18 19:27:19.919 -0400,1589844438.999616,41.33982733662987,-71.83623505930642,1.835291,1.405849,22.37765316351129,3.688513372312484,4.966210613125885,-9999,53331.308893,-0.9710235595703125,0.6051025390625,-0.5103607177734375,1,0.9
2020-05-18 19:27:19.969 -0400,1589844438.999616,41.33982733662987,-71.83623505930642,1.835291,1.405849,22.37765316351129,3.688513372312484,4.966210613125885,-9999,53331.358787,-0.9611968994140625,0.304046630859375,-0.2751922607421875,1,0.9
2020-05-18 19:27:20.019 -0400,1589844438.999616,41.33982733662987,-71.83623505930642,1.835291,1.405849,22.37765316351129,3.688513372312484,4.966210613125885,-9999,53331.408679,-0.534698486328125,0.1131744384765625,-0.20953369140625,1,0.9
2020-05-18 19:27:20.069 -0400,1589844438.999616,41.33982733662987,-71.83623505930642,1.835291,1.405849,22.37765316351129,3.688513372312484,4.966210613125885,-9999,53331.458572,-0.2342681884765625,0.3083953857421875,-0.1321258544921875,1,0.9
2020-05-18 19:27:20.119 -0400,1589844438.999616,41.33982733662987,-71.83623505930642,1.835291,1.405849,22.37765316351129,3.688513372312484,4.966210613125885,-9999,53331.50846500001,0.090179443359375,1.290618896484375,0.1046142578125,1,0.9
2020-05-18 19:27:20.168 -0400,1589844438.999616,41.33982733662987,-71.83623505930642,1.835291,1.405849,22.37765316351129,3.688513372312484,4.966210613125885,-9999,53331.55836,0.8535308837890625,4.648040771484375,-0.0294189453125,1,0.9
2020-05-18 19:27:20.218 -0400,1589844438.999616,41.33982733662987,-71.83623505930642,1.835291,1.405849,22.37765316351129,3.688513372312484,4.966210613125885,-9999,53331.60825400001,1.022811889648438,2.711227416992188,-0.21331787109375,1,0.9
2020-05-18 19:27:20.268 -0400,1589844438.999616,41.33982733662987,-71.83623505930642,1.835291,1.405849,22.37765316351129,3.688513372312484,4.966210613125885,-9999,53331.658148,0.5557861328125,0.5531463623046875,0.0817413330078125,1,0.9
2020-05-18 19:27:20.318 -0400,1589844438.999616,41.33982733662987,-71.83623505930642,1.835291,1.405849,22.37765316351129,3.688513372312484,4.966210613125885,-9999,53331.708039,0.319793701171875,-0.76336669921875,-0.0323486328125,1,0.9
2020-05-18 19:27:20.368 -0400,1589844439.999613,41.33984651412065,-71.83622249421343,2.950715,1.597615,23.6141179416681,3.746449286911159,4.998378368912433,-9999,53331.757931,0.4742584228515625,-1.316802978515625,0.0732879638671875,1,0.9
2020-05-18 19:27:20.418 -0400,1589844439.999613,41.33984651412065,-71.83622249421343,2.950715,1.597615,23.6141179416681,3.746449286911159,4.998378368912433,-9999,53331.807824,0.6554718017578125,-0.757720947265625,0.110015869140625,1,0.9
2020-05-18 19:27:20.468 -0400,1589844439.999613,41.33984651412065,-71.83622249421343,2.950715,1.597615,23.6141179416681,3.746449286911159,4.998378368912433,-9999,53331.85771500001,1.313934326171875,-0.2995758056640625,0.1161956787109375,1,0.9
2020-05-18 19:27:20.518 -0400,1589844439.999613,41.33984651412065,-71.83622249421343,2.950715,1.597615,23.6141179416681,3.746449286911159,4.998378368912433,-9999,53331.907611,3.5572509765625,2.020370483398438,0.512176513671875,1,0.9
2020-05-18 19:27:20.579 -0400,1589844439.999613,41.33984651412065,-71.83622249421343,2.950715,1.597615,23.6141179416681,3.746449286911159,4.998378368912433,-9999,53331.95750500001,3.260421752929688,3.654800415039062,-0.5538177490234375,1,0.9
2020-05-18 19:28:15.738 -0400,1589844494.999782,41.34131416414069,-71.83565862666248,9.736837,2.718284,4.860250627874595,4.157194681492796,5.812697704783216,-9999,53387.122636625,-0.2931060791015625,0.7376556396484375,-1.56402587890625,1,0.9
2020-05-18 19:28:15.783 -0400,1589844494.999782,41.34131416414069,-71.83565862666248,9.736837,2.718284,4.860250627874595,4.157194681492796,5.812697704783216,-9999,53387.17261062501,-0.04693603515625,0.899749755859375,-1.8651123046875,1,0.9
2020-05-18 19:28:15.832 -0400,1589844494.999782,41.34131416414069,-71.83565862666248,9.736837,2.718284,4.860250627874595,4.157194681492796,5.812697704783216,-9999,53387.222583625,0.1617279052734375,0.29071044921875,-1.556243896484375,1,0.9
2020-05-18 19:28:15.882 -0400,1589844494.999782,41.34131416414069,-71.83565862666248,9.736837,2.718284,4.860250627874595,4.157194681492796,5.812697704783216,-9999,53387.2725585,0.429443359375,-0.191680908203125,-1.0057373046875,1,0.9
2020-05-18 19:28:15.933 -0400,1589844494.999782,41.34131416414069,-71.83565862666248,9.736837,2.718284,4.860250627874595,4.157194681492796,5.812697704783216,-9999,53387.3225315,0.3256378173828125,-0.2588958740234375,-0.3787689208984375,1,0.9
2020-05-18 19:28:15.983 -0400,1589844494.999782,41.34131416414069,-71.83565862666248,9.736837,2.718284,4.860250627874595,4.157194681492796,5.812697704783216,-9999,53387.3725045,0.2646636962890625,-0.26715087890625,-0.311065673828125,1,0.9
2020-05-18 19:28:16.036 -0400,1589844494.999782,41.34131416414069,-71.83565862666248,9.736837,2.718284,4.860250627874595,4.157194681492796,5.812697704783216,-9999,53387.4224785,0.475433349609375,0.11212158203125,-0.430938720703125,1,0.9
2020-05-18 19:28:16.082 -0400,1589844494.999782,41.34131416414069,-71.83565862666248,9.736837,2.718284,4.860250627874595,4.157194681492796,5.812697704783216,-9999,53387.47245150001,0.5309906005859375,0.2088775634765625,-1.07281494140625,1,0.9
2020-05-18 19:28:16.132 -0400,1589844494.999782,41.34131416414069,-71.83565862666248,9.736837,2.718284,4.860250627874595,4.157194681492796,5.812697704783216,-9999,53387.52242550001,0.3836517333984375,0.6606903076171875,-2.312332153320312,1,0.9
2020-05-18 19:28:16.182 -0400,1589844494.999782,41.34131416414069,-71.83565862666248,9.736837,2.718284,4.860250627874595,4.157194681492796,5.812697704783216,-9999,53387.5723985,-0.0589752197265625,0.4888458251953125,-1.87939453125,1,0.9
2020-05-18 19:28:16.238 -0400,1589844494.999782,41.34131416414069,-71.83565862666248,9.736837,2.718284,4.860250627874595,4.157194681492796,5.812697704783216,-9999,53387.6223715,-0.037750244140625,0.2961273193359375,-1.01214599609375,1,0.9
2020-05-18 19:28:16.282 -0400,1589844494.999782,41.34131416414069,-71.83565862666248,9.736837,2.718284,4.860250627874595,4.157194681492796,5.812697704783216,-9999,53387.6723455,-0.239959716796875,0.1678314208984375,-0.317413330078125,1,0.9
2020-05-18 19:28:16.332 -0400,1589844494.999782,41.34131416414069,-71.83565862666248,9.736837,2.718284,4.860250627874595,4.157194681492796,5.812697704783216,-9999,53387.7223185,-0.775146484375,0.294891357421875,0.1227264404296875,1,0.9
2020-05-18 19:28:16.382 -0400,1589844495.999778,41.34133530357674,-71.83564366701397,8.323281,2.637118,11.42200819095277,4.122714351668879,5.744657745101675,-9999,53387.77229250001,-0.8439788818359375,0.1406707763671875,-0.227081298828125,1,0.9
2020-05-18 19:28:16.432 -0400,1589844495.999778,41.34133530357674,-71.83564366701397,8.323281,2.637118,11.42200819095277,4.122714351668879,5.744657745101675,-9999,53387.82226550001,-0.67022705078125,0.40399169921875,-0.800262451171875,1,0.9
2020-05-18 19:28:16.482 -0400,1589844495.999778,41.34133530357674,-71.83564366701397,8.323281,2.637118,11.42200819095277,4.122714351668879,5.744657745101675,-9999,53387.8722385,-0.46337890625,0.843597412109375,-0.986358642578125,1,0.9
2020-05-18 19:28:16.532 -0400,1589844495.999778,41.34133530357674,-71.83564366701397,8.323281,2.637118,11.42200819095277,4.122714351668879,5.744657745101675,-9999,53387.9222125,-0.1139678955078125,1.963668823242188,-1.74560546875,1,0.9
2020-05-18 19:28:16.582 -0400,1589844495.999778,41.34133530357674,-71.83564366701397,8.323281,2.637118,11.42200819095277,4.122714351668879,5.744657745101675,-9999,53387.9721855,0.3518524169921875,1.628982543945312,-1.341339111328125,1,0.9
2020-05-18 19:28:16.632 -0400,1589844495.999778,41.34133530357674,-71.83564366701397,8.323281,2.637118,11.42200819095277,4.122714351668879,5.744657745101675,-9999,53388.0221595,0.3596649169921875,0.7459716796875,-0.5396881103515625,1,0.9
2020-05-18 19:28:16.682 -0400,1589844495.999778,41.34133530357674,-71.83564366701397,8.323281,2.637118,11.42200819095277,4.122714351668879,5.744657745101675,-9999,53388.0721325,0.4842071533203125,-0.474945068359375,-0.1759033203125,1,0.9
2020-05-18 19:28:16.744 -0400,1589844495.999778,41.34133530357674,-71.83564366701397,8.323281,2.637118,11.42200819095277,4.122714351668879,5.744657745101675,-9999,53388.12210550001,0.4403533935546875,-0.6517486572265625,0.009521484375,1,0.9
2020-05-18 19:28:16.782 -0400,1589844495.999778,41.34133530357674,-71.83564366701397,8.323281,2.637118,11.42200819095277,4.122714351668879,5.744657745101675,-9999,53388.1720795,0.53057861328125,-0.5061187744140625,0.205047607421875,1,0.9
2020-05-18 19:28:16.832 -0400,1589844495.999778,41.34133530357674,-71.83564366701397,8.323281,2.637118,11.42200819095277,4.122714351668879,5.744657745101675,-9999,53388.2220525,0.9488677978515625,0.102630615234375,0.0773162841796875,1,0.9
2020-05-18 19:28:16.882 -0400,1589844495.999778,41.34133530357674,-71.83564366701397,8.323281,2.637118,11.42200819095277,4.122714351668879,5.744657745101675,-9999,53388.2720265,3.062911987304688,3.01165771484375,-0.1912078857421875,1,0.9
2020-05-18 19:28:16.932 -0400,1589844495.999778,41.34133530357674,-71.83564366701397,8.323281,2.637118,11.42200819095277,4.122714351668879,5.744657745101675,-9999,53388.32200016667,2.516845703125,3.951126098632812,-0.5632171630859375,1,0.9
2020-05-18 19:28:16.982 -0400,1589844495.999778,41.34133530357674,-71.83564366701397,8.323281,2.637118,11.42200819095277,4.122714351668879,5.744657745101675,-9999,53388.37197316667,0.3053131103515625,1.733596801757812,-0.6266326904296875,1,0.9
2020-05-18 19:28:17.032 -0400,1589844495.999778,41.34133530357674,-71.83564366701397,8.323281,2.637118,11.42200819095277,4.122714351668879,5.744657745101675,-9999,53388.42194716667,-0.601593017578125,0.856719970703125,-0.346099853515625,1,0.9
2020-05-18 19:28:17.082 -0400,1589844495.999778,41.34133530357674,-71.83564366701397,8.323281,2.637118,11.42200819095277,4.122714351668879,5.744657745101675,-9999,53388.47192016667,-0.9097747802734375,0.3115081787109375,-0.410797119140625,1,0.9
2020-05-18 19:28:17.132 -0400,1589844495.999778,41.34133530357674,-71.83564366701397,8.323281,2.637118,11.42200819095277,4.122714351668879,5.744657745101675,-9999,53388.52189416667,-0.7603607177734375,-0.01434326171875,-0.260772705078125,1,0.9
2020-05-18 19:28:17.182 -0400,1589844495.999778,41.34133530357674,-71.83564366701397,8.323281,2.637118,11.42200819095277,4.122714351668879,5.744657745101675,-9999,53388.57186716667,-0.4641876220703125,0.0560302734375,-0.181976318359375,1,0.9
2020-05-18 19:28:17.244 -0400,1589844495.999778,41.34133530357674,-71.83564366701397,8.323281,2.637118,11.42200819095277,4.122714351668879,5.744657745101675,-9999,53388.62184116667,-0.3700714111328125,0.3381805419921875,0.0662689208984375,1,0.9
2020-05-18 19:28:17.282 -0400,1589844495.999778,41.34133530357674,-71.83564366701397,8.323281,2.637118,11.42200819095277,4.122714351668879,5.744657745101675,-9999,53388.67181416667,0.05194091796875,4.041213989257812,-0.5935821533203125,1,0.9
2020-05-18 19:28:17.332 -0400,1589844495.999778,41.34133530357674,-71.83564366701397,8.323281,2.637118,11.42200819095277,4.122714351668879,5.744657745101675,-9999,53388.72178716667,1.100814819335938,3.20025634765625,-0.382049560546875,1,0.9
2020-05-18 19:28:17.382 -0400,1589844495.999778,41.34133530357674,-71.83564366701397,8.323281,2.637118,11.42200819095277,4.122714351668879,5.744657745101675,-9999,53388.77176116667,0.656494140625,1.138229370117188,-0.1920013427734375,1,0.9
2020-05-18 19:28:17.432 -0400,1589844495.999778,41.34133530357674,-71.83564366701397,8.323281,2.637118,11.42200819095277,4.122714351668879,5.744657745101675,-9999,53388.82173416667,0.284393310546875,-0.2293548583984375,-0.0698089599609375,1,0.9
2020-05-18 19:28:17.482 -0400,1589844495.999778,41.34133530357674,-71.83564366701397,8.323281,2.637118,11.42200819095277,4.122714351668879,5.744657745101675,-9999,53388.87170816667,0.6780242919921875,-0.621429443359375,-0.2288665771484375,1,0.9
2020-05-18 19:28:17.532 -0400,1589844495.999778,41.34133530357674,-71.83564366701397,8.323281,2.637118,11.42200819095277,4.122714351668879,5.744657745101675,-9999,53388.92168116667,0.605072021484375,-0.7204437255859375,-0.01861572265625,1,0.9
2020-05-18 19:28:17.582 -0400,1589844496.999773,41.34135936377063,-71.8356367025399,8.365872,2.725763,12.76748622487476,4.293988644087852,5.73367985422832,-9999,53388.97165516667,0.7911529541015625,-0.30389404296875,0.1501922607421875,1,0.9
2020-05-18 19:28:17.632 -0400,1589844496.999773,41.34135936377063,-71.8356367025399,8.365872,2.725763,12.76748622487476,4.293988644087852,5.73367985422832,-9999,53389.02162816667,1.376251220703125,0.6598968505859375,-0.101715087890625,1,0.9
2020-05-18 19:28:17.682 -0400,1589844496.999773,41.34135936377063,-71.8356367025399,8.365872,2.725763,12.76748622487476,4.293988644087852,5.73367985422832,-9999,53389.07160116667,3.470626831054688,3.599014282226562,-1.151504516601562,1,0.9
2020-05-18 19:28:17.745 -0400,1589844496.999773,41.34135936377063,-71.8356367025399,8.365872,2.725763,12.76748622487476,4.293988644087852,5.73367985422832,-9999,53389.12157516667,0.7824859619140625,2.336456298828125,-0.79345703125,1,0.9
2020-05-18 19:28:17.782 -0400,1589844496.999773,41.34135936377063,-71.8356367025399,8.365872,2.725763,12.76748622487476,4.293988644087852,5.73367985422832,-9999,53389.17154816667,-0.3439178466796875,0.9101409912109375,-0.4390716552734375,1,0.9
2020-05-18 19:28:17.832 -0400,1589844496.999773,41.34135936377063,-71.8356367025399,8.365872,2.725763,12.76748622487476,4.293988644087852,5.73367985422832,-9999,53389.22152216667,-0.865936279296875,0.41302490234375,-0.389129638671875,1,0.9
2020-05-18 19:28:17.882 -0400,1589844496.999773,41.34135936377063,-71.8356367025399,8.365872,2.725763,12.76748622487476,4.293988644087852,5.73367985422832,-9999,53389.27149516667,-0.784271240234375,0.1458282470703125,-0.3380279541015625,1,0.9
2020-05-18 19:28:17.932 -0400,1589844496.999773,41.34135936377063,-71.8356367025399,8.365872,2.725763,12.76748622487476,4.293988644087852,5.73367985422832,-9999,53389.32146875,-0.4885406494140625,0.022247314453125,-0.16845703125,1,0.9
2020-05-18 19:28:17.982 -0400,1589844496.999773,41.34135936377063,-71.8356367025399,8.365872,2.725763,12.76748622487476,4.293988644087852,5.73367985422832,-9999,53389.37144175,-0.21478271484375,0.2620086669921875,-0.18133544921875,1,0.9
2020-05-18 19:28:18.032 -0400,1589844496.999773,41.34135936377063,-71.8356367025399,8.365872,2.725763,12.76748622487476,4.293988644087852,5.73367985422832,-9999,53389.42141475,-0.1319732666015625,1.850433349609375,-0.1194305419921875,1,0.9
2020-05-18 19:28:18.082 -0400,1589844496.999773,41.34135936377063,-71.8356367025399,8.365872,2.725763,12.76748622487476,4.293988644087852,5.73367985422832,-9999,53389.47138875,1.160995483398438,3.996017456054688,-0.183013916015625,1,0.9
2020-05-18 19:28:18.132 -0400,1589844496.999773,41.34135936377063,-71.8356367025399,8.365872,2.725763,12.76748622487476,4.293988644087852,5.73367985422832,-9999,53389.52136175,0.522491455078125,1.779159545898438,-0.3922119140625,1,0.9
2020-05-18 19:28:18.181 -0400,1589844496.999773,41.34135936377063,-71.8356367025399,8.365872,2.725763,12.76748622487476,4.293988644087852,5.73367985422832,-9999,53389.57133575001,0.214874267578125,0.147003173828125,-0.216033935546875,1,0.9
2020-05-18 19:28:18.245 -0400,1589844496.999773,41.34135936377063,-71.8356367025399,8.365872,2.725763,12.76748622487476,4.293988644087852,5.73367985422832,-9999,53389.62130875,0.35858154296875,-0.6833648681640625,-0.0115509033203125,1,0.9
2020-05-18 19:28:18.282 -0400,1589844496.999773,41.34135936377063,-71.8356367025399,8.365872,2.725763,12.76748622487476,4.293988644087852,5.73367985422832,-9999,53389.67128275,0.40972900390625,-0.75262451171875,0.18035888671875,1,0.9
2020-05-18 19:28:18.332 -0400,1589844496.999773,41.34135936377063,-71.8356367025399,8.365872,2.725763,12.76748622487476,4.293988644087852,5.73367985422832,-9999,53389.72125575,0.4418792724609375,-0.45465087890625,0.1595458984375,1,0.9
2020-05-18 19:28:18.382 -0400,1589844496.999773,41.34135936377063,-71.8356367025399,8.365872,2.725763,12.76748622487476,4.293988644087852,5.73367985422832,-9999,53389.77122975,0.898406982421875,-0.1009674072265625,0.1797943115234375,1,0.9
2020-05-18 19:28:18.432 -0400,1589844496.999773,41.34135936377063,-71.8356367025399,8.365872,2.725763,12.76748622487476,4.293988644087852,5.73367985422832,-9999,53389.82120275,3.407394409179688,3.309539794921875,-0.0794525146484375,1,0.9
2020-05-18 19:28:18.482 -0400,1589844497.999774,41.34137998451134,-71.8356293815071,5.393167,2.615684,13.07006854402517,4.302348674767855,5.779266743132305,-9999,53389.87117575001,2.603973388671875,3.967208862304688,-0.66680908203125,1,0.9
2020-05-18 19:28:18.532 -0400,1589844497.999774,41.34137998451134,-71.8356293815071,5.393167,2.615684,13.07006854402517,4.302348674767855,5.779266743132305,-9999,53389.92114975,0.313201904296875,1.84295654296875,-0.6450347900390625,1,0.9
2020-05-18 19:28:18.582 -0400,1589844497.999774,41.34137998451134,-71.8356293815071,5.393167,2.615684,13.07006854402517,4.302348674767855,5.779266743132305,-9999,53389.97112275,-0.7420806884765625,0.528045654296875,-0.333160400390625,1,0.9
2020-05-18 19:28:18.632 -0400,1589844497.999774,41.34137998451134,-71.8356293815071,5.393167,2.615684,13.07006854402517,4.302348674767855,5.779266743132305,-9999,53390.02109675,-1.041030883789062,0.2387237548828125,-0.3174896240234375,1,0.9
2020-05-18 19:28:18.682 -0400,1589844497.999774,41.34137998451134,-71.8356293815071,5.393167,2.615684,13.07006854402517,4.302348674767855,5.779266743132305,-9999,53390.07106975,-0.7316436767578125,0.037506103515625,-0.0189971923828125,1,0.9
2020-05-18 19:28:18.750 -0400,1589844497.999774,41.34137998451134,-71.8356293815071,5.393167,2.615684,13.07006854402517,4.302348674767855,5.779266743132305,-9999,53390.12104375,-0.43572998046875,0.1826934814453125,-0.1127777099609375,1,0.9
2020-05-18 19:28:18.782 -0400,1589844497.999774,41.34137998451134,-71.8356293815071,5.393167,2.615684,13.07006854402517,4.302348674767855,5.779266743132305,-9999,53390.17101675001,-0.1614990234375,1.012359619140625,0.0565185546875,1,0.9
2020-05-18 19:28:18.831 -0400,1589844497.999774,41.34137998451134,-71.8356293815071,5.393167,2.615684,13.07006854402517,4.302348674767855,5.779266743132305,-9999,53390.22099075,0.28643798828125,4.177093505859375,0.232818603515625,1,0.9
2020-05-18 19:28:18.881 -0400,1589844497.999774,41.34137998451134,-71.8356293815071,5.393167,2.615684,13.07006854402517,4.302348674767855,5.779266743132305,-9999,53390.27096375,0.867340087890625,2.296142578125,-0.218475341796875,1,0.9
2020-05-18 19:28:18.931 -0400,1589844497.999774,41.34137998451134,-71.8356293815071,5.393167,2.615684,13.07006854402517,4.302348674767855,5.779266743132305,-9999,53390.32093641667,0.4893798828125,1.004852294921875,-0.127960205078125,1,0.9
2020-05-18 19:28:18.981 -0400,1589844497.999774,41.34137998451134,-71.8356293815071,5.393167,2.615684,13.07006854402517,4.302348674767855,5.779266743132305,-9999,53390.37091041667,0.2491455078125,-0.2774200439453125,-0.1661224365234375,1,0.9
2020-05-18 19:28:19.031 -0400,1589844497.999774,41.34137998451134,-71.8356293815071,5.393167,2.615684,13.07006854402517,4.302348674767855,5.779266743132305,-9999,53390.42088341667,0.407745361328125,-0.699676513671875,-0.1269378662109375,1,0.9
2020-05-18 19:28:19.081 -0400,1589844497.999774,41.34137998451134,-71.8356293815071,5.393167,2.615684,13.07006854402517,4.302348674767855,5.779266743132305,-9999,53390.47085741667,0.392333984375,-0.7051849365234375,-0.0236663818359375,1,0.9
2020-05-18 19:28:19.131 -0400,1589844497.999774,41.34137998451134,-71.8356293815071,5.393167,2.615684,13.07006854402517,4.302348674767855,5.779266743132305,-9999,53390.52083041667,0.729248046875,-0.3016510009765625,0.079620361328125,1,0.9
2020-05-18 19:28:19.181 -0400,1589844497.999774,41.34137998451134,-71.8356293815071,5.393167,2.615684,13.07006854402517,4.302348674767855,5.779266743132305,-9999,53390.57080441667,1.97125244140625,1.941665649414062,-0.118865966796875,1,0.9
2020-05-18 19:28:19.245 -0400,1589844497.999774,41.34137998451134,-71.8356293815071,5.393167,2.615684,13.07006854402517,4.302348674767855,5.779266743132305,-9999,53390.62077741667,2.866607666015625,3.669570922851562,-0.990020751953125,1,0.9
2020-05-18 19:28:19.281 -0400,1589844498.999766,41.34141108032949,-71.83563025957189,8.18056,2.845577,9.542384964170989,4.286433626594028,5.941445131329258,-9999,53390.67075141667,0.6081390380859375,2.056320190429688,-0.83258056640625,1,0.9
2020-05-18 19:28:19.331 -0400,1589844498.999766,41.34141108032949,-71.83563025957189,8.18056,2.845577,9.542384964170989,4.286433626594028,5.941445131329258,-9999,53390.72072441667,-0.4781951904296875,0.749755859375,-0.521240234375,1,0.9
2020-05-18 19:28:19.381 -0400,1589844498.999766,41.34141108032949,-71.83563025957189,8.18056,2.845577,9.542384964170989,4.286433626594028,5.941445131329258,-9999,53390.77069741667,-1.042465209960938,0.244354248046875,-0.4791259765625,1,0.9
2020-05-18 19:28:19.431 -0400,1589844498.999766,41.34141108032949,-71.83563025957189,8.18056,2.845577,9.542384964170989,4.286433626594028,5.941445131329258,-9999,53390.82067141667,-0.8694000244140625,-0.0343780517578125,-0.0663604736328125,1,0.9
2020-05-18 19:28:19.481 -0400,1589844498.999766,41.34141108032949,-71.83563025957189,8.18056,2.845577,9.542384964170989,4.286433626594028,5.941445131329258,-9999,53390.87064441667,-0.612335205078125,-0.033355712890625,-0.0872650146484375,1,0.9
2020-05-18 19:28:19.531 -0400,1589844498.999766,41.34141108032949,-71.83563025957189,8.18056,2.845577,9.542384964170989,4.286433626594028,5.941445131329258,-9999,53390.92061841667,-0.364044189453125,0.6604156494140625,-0.0742034912109375,1,0.9
2020-05-18 19:28:19.581 -0400,1589844498.999766,41.34141108032949,-71.83563025957189,8.18056,2.845577,9.542384964170989,4.286433626594028,5.941445131329258,-9999,53390.97059141667,-0.5012054443359375,2.718185424804688,-0.0344390869140625,1,0.9
2020-05-18 19:28:19.631 -0400,1589844498.999766,41.34141108032949,-71.83563025957189,8.18056,2.845577,9.542384964170989,4.286433626594028,5.941445131329258,-9999,53391.02056541667,1.450836181640625,3.420318603515625,0.0966796875,1,0.9
2020-05-18 19:28:19.681 -0400,1589844498.999766,41.34141108032949,-71.83563025957189,8.18056,2.845577,9.542384964170989,4.286433626594028,5.941445131329258,-9999,53391.07053841667,0.5205841064453125,1.444854736328125,-0.05023193359375,1,0.9
2020-05-18 19:28:19.741 -0400,1589844498.999766,41.34141108032949,-71.83563025957189,8.18056,2.845577,9.542384964170989,4.286433626594028,5.941445131329258,-9999,53391.12051241667,0.2685699462890625,-0.09246826171875,-0.1668853759765625,1,0.9
2020-05-18 19:28:19.781 -0400,1589844498.999766,41.34141108032949,-71.83563025957189,8.18056,2.845577,9.542384964170989,4.286433626594028,5.941445131329258,-9999,53391.17048541667,0.5251312255859375,-0.6536712646484375,-0.2389373779296875,1,0.9
2020-05-18 19:28:19.831 -0400,1589844498.999766,41.34141108032949,-71.83563025957189,8.18056,2.845577,9.542384964170989,4.286433626594028,5.941445131329258,-9999,53391.22045941667,0.5764923095703125,-0.9176025390625,0.09912109375,1,0.9
2020-05-18 19:28:19.881 -0400,1589844498.999766,41.34141108032949,-71.83563025957189,8.18056,2.845577,9.542384964170989,4.286433626594028,5.941445131329258,-9999,53391.27043241667,0.8094940185546875,-0.36529541015625,0.0958404541015625,1,0.9
2020-05-18 19:28:19.931 -0400,1589844498.999766,41.34141108032949,-71.83563025957189,8.18056,2.845577,9.542384964170989,4.286433626594028,5.941445131329258,-9999,53391.32040700001,1.38031005859375,0.52716064453125,-0.16595458984375,1,0.9
2020-05-18 19:28:19.980 -0400,1589844498.999766,41.34141108032949,-71.83563025957189,8.18056,2.845577,9.542384964170989,4.286433626594028,5.941445131329258,-9999,53391.37038,2.885513305664062,3.597213745117188,-1.827926635742188,1,0.9
2020-05-18 19:28:20.031 -0400,1589844498.999766,41.34141108032949,-71.83563025957189,8.18056,2.845577,9.542384964170989,4.286433626594028,5.941445131329258,-9999,53391.420353,0.8434600830078125,2.464157104492188,-0.9759521484375,1,0.9
2020-05-18 19:28:20.080 -0400,1589844498.999766,41.34141108032949,-71.83563025957189,8.18056,2.845577,9.542384964170989,4.286433626594028,5.941445131329258,-9999,53391.470327,-0.28167724609375,1.121597290039062,-0.6480255126953125,1,0.9
2020-05-18 19:28:20.130 -0400,1589844498.999766,41.34141108032949,-71.83563025957189,8.18056,2.845577,9.542384964170989,4.286433626594028,5.941445131329258,-9999,53391.5203,-0.881683349609375,0.5337677001953125,-0.53009033203125,1,0.9
2020-05-18 19:28:20.181 -0400,1589844498.999766,41.34141108032949,-71.83563025957189,8.18056,2.845577,9.542384964170989,4.286433626594028,5.941445131329258,-9999,53391.57027400001,-0.961639404296875,0.0778961181640625,-0.127593994140625,1,0.9
2020-05-18 19:28:20.245 -0400,1589844498.999766,41.34141108032949,-71.83563025957189,8.18056,2.845577,9.542384964170989,4.286433626594028,5.941445131329258,-9999,53391.62024700001,-0.78955078125,-0.0985107421875,-0.018768310546875,1,0.9
2020-05-18 19:28:20.281 -0400,1589844498.999766,41.34141108032949,-71.83563025957189,8.18056,2.845577,9.542384964170989,4.286433626594028,5.941445131329258,-9999,53391.670221,-0.5280609130859375,0.18109130859375,-0.0333251953125,1,0.9
2020-05-18 19:28:20.330 -0400,1589844499.999765,41.34144465932174,-71.83562912929524,11.4428,3.002063,9.36376432220179,4.127611710082842,5.912371465025879,-9999,53391.720194,-0.781829833984375,1.652740478515625,0.058563232421875,1,0.9
2020-05-18 19:28:20.380 -0400,1589844499.999765,41.34144465932174,-71.83562912929524,11.4428,3.002063,9.36376432220179,4.127611710082842,5.912371465025879,-9999,53391.770168,1.030410766601562,4.77740478515625,-0.28387451171875,1,0.9
2020-05-18 19:28:20.430 -0400,1589844499.999765,41.34144465932174,-71.83562912929524,11.4428,3.002063,9.36376432220179,4.127611710082842,5.912371465025879,-9999,53391.820141,0.7546539306640625,1.994598388671875,-0.4047088623046875,1,0.9
2020-05-18 19:28:20.480 -0400,1589844499.999765,41.34144465932174,-71.83562912929524,11.4428,3.002063,9.36376432220179,4.127611710082842,5.912371465025879,-9999,53391.87011500001,0.566650390625,0.3037872314453125,-0.10675048828125,1,0.9
2020-05-18 19:28:20.530 -0400,1589844499.999765,41.34144465932174,-71.83562912929524,11.4428,3.002063,9.36376432220179,4.127611710082842,5.912371465025879,-9999,53391.92008800001,0.5485992431640625,-0.728546142578125,-0.0926361083984375,1,0.9
2020-05-18 19:28:20.580 -0400,1589844499.999765,41.34144465932174,-71.83562912929524,11.4428,3.002063,9.36376432220179,4.127611710082842,5.912371465025879,-9999,53391.970062,0.50762939453125,-1.11590576171875,0.1169281005859375,1,0.9
2020-05-18 19:28:20.630 -0400,1589844499.999765,41.34144465932174,-71.83562912929524,11.4428,3.002063,9.36376432220179,4.127611710082842,5.912371465025879,-9999,53392.020035,0.70343017578125,-0.5191650390625,0.1621246337890625,1,0.9
2020-05-18 19:28:20.680 -0400,1589844499.999765,41.34144465932174,-71.83562912929524,11.4428,3.002063,9.36376432220179,4.127611710082842,5.912371465025879,-9999,53392.070009,1.136627197265625,0.06207275390625,0.0520477294921875,1,0.9
2020-05-18 19:28:20.744 -0400,1589844499.999765,41.34144465932174,-71.83562912929524,11.4428,3.002063,9.36376432220179,4.127611710082842,5.912371465025879,-9999,53392.119982,3.507736206054688,3.121673583984375,-1.055465698242188,1,0.9
2020-05-18 19:28:20.780 -0400,1589844499.999765,41.34144465932174,-71.83562912929524,11.4428,3.002063,9.36376432220179,4.127611710082842,5.912371465025879,-9999,53392.169955,1.605743408203125,3.390121459960938,-1.070358276367188,1,0.9
2020-05-18 19:28:20.830 -0400,1589844499.999765,41.34144465932174,-71.83562912929524,11.4428,3.002063,9.36376432220179,4.127611710082842,5.912371465025879,-9999,53392.21992900001,0.1302337646484375,1.471710205078125,-0.7581939697265625,1,0.9
2020-05-18 19:28:20.880 -0400,1589844499.999765,41.34144465932174,-71.83562912929524,11.4428,3.002063,9.36376432220179,4.127611710082842,5.912371465025879,-9999,53392.269902,-0.633819580078125,0.627105712890625,-0.421234130859375,1,0.9
2020-05-18 19:28:20.930 -0400,1589844499.999765,41.34144465932174,-71.83562912929524,11.4428,3.002063,9.36376432220179,4.127611710082842,5.912371465025879,-9999,53392.31987541667,-0.944061279296875,0.299407958984375,-0.43701171875,1,0.9
2020-05-18 19:28:20.980 -0400,1589844499.999765,41.34144465932174,-71.83562912929524,11.4428,3.002063,9.36376432220179,4.127611710082842,5.912371465025879,-9999,53392.36984841667,-0.9267578125,-0.1223907470703125,-0.0802459716796875,1,0.9
2020-05-18 19:28:21.030 -0400,1589844499.999765,41.34144465932174,-71.83562912929524,11.4428,3.002063,9.36376432220179,4.127611710082842,5.912371465025879,-9999,53392.41982241667,-0.6496124267578125,-0.04400634765625,-0.1389617919921875,1,0.9
2020-05-18 19:28:21.080 -0400,1589844499.999765,41.34144465932174,-71.83562912929524,11.4428,3.002063,9.36376432220179,4.127611710082842,5.912371465025879,-9999,53392.46979541667,-0.431365966796875,0.4922332763671875,0.04498291015625,1,0.9
2020-05-18 19:28:21.130 -0400,1589844499.999765,41.34144465932174,-71.83562912929524,11.4428,3.002063,9.36376432220179,4.127611710082842,5.912371465025879,-9999,53392.51976941667,-0.6732177734375,4.510040283203125,-0.6737213134765625,1,0.9
2020-05-18 19:28:21.180 -0400,1589844499.999765,41.34144465932174,-71.83562912929524,11.4428,3.002063,9.36376432220179,4.127611710082842,5.912371465025879,-9999,53392.56974241667,1.4906005859375,3.298477172851562,-0.136322021484375,1,0.9
2020-05-18 19:28:21.245 -0400,1589844499.999765,41.34144465932174,-71.83562912929524,11.4428,3.002063,9.36376432220179,4.127611710082842,5.912371465025879,-9999,53392.61971641667,0.84796142578125,1.118362426757812,-0.2241058349609375,1,0.9
2020-05-18 19:28:21.280 -0400,1589844499.999765,41.34144465932174,-71.83562912929524,11.4428,3.002063,9.36376432220179,4.127611710082842,5.912371465025879,-9999,53392.66968941667,0.358734130859375,-0.3898468017578125,-0.0169677734375,1,0.9
2020-05-18 19:28:21.330 -0400,1589844499.999765,41.34144465932174,-71.83562912929524,11.4428,3.002063,9.36376432220179,4.127611710082842,5.912371465025879,-9999,53392.71966341667,0.491729736328125,-0.8466949462890625,-0.035247802734375,1,0.9
2020-05-18 19:28:21.380 -0400,1589844500.999767,41.34147121433348,-71.83561257926839,12.00675,2.979317,12.01481316317395,4.063894281905498,5.663348985472274,-9999,53392.76963641667,0.58526611328125,-0.8174285888671875,0.166534423828125,1,0.9
2020-05-18 19:28:21.430 -0400,1589844500.999767,41.34147121433348,-71.83561257926839,12.00675,2.979317,12.01481316317395,4.063894281905498,5.663348985472274,-9999,53392.81961041667,0.92108154296875,-0.2817535400390625,0.1791534423828125,1,0.9
2020-05-18 19:28:21.480 -0400,1589844500.999767,41.34147121433348,-71.83561257926839,12.00675,2.979317,12.01481316317395,4.063894281905498,5.663348985472274,-9999,53392.86958341667,1.585891723632812,1.079269409179688,-0.2627716064453125,1,0.9
2020-05-18 19:28:21.530 -0400,1589844500.999767,41.34147121433348,-71.83561257926839,12.00675,2.979317,12.01481316317395,4.063894281905498,5.663348985472274,-9999,53392.91955741667,3.060028076171875,3.276107788085938,-1.448150634765625,1,0.9
2020-05-18 19:28:21.580 -0400,1589844500.999767,41.34147121433348,-71.83561257926839,12.00675,2.979317,12.01481316317395,4.063894281905498,5.663348985472274,-9999,53392.96953041667,0.7209014892578125,2.19219970703125,-0.8899993896484375,1,0.9
2020-05-18 19:28:21.630 -0400,1589844500.999767,41.34147121433348,-71.83561257926839,12.00675,2.979317,12.01481316317395,4.063894281905498,5.663348985472274,-9999,53393.01950441667,-0.397735595703125,0.97216796875,-0.577667236328125,1,0.9
2020-05-18 19:28:21.680 -0400,1589844500.999767,41.34147121433348,-71.83561257926839,12.00675,2.979317,12.01481316317395,4.063894281905498,5.663348985472274,-9999,53393.06947741667,-1.04248046875,0.3448486328125,-0.469329833984375,1,0.9
2020-05-18 19:28:21.744 -0400,1589844500.999767,41.34147121433348,-71.83561257926839,12.00675,2.979317,12.01481316317395,4.063894281905498,5.663348985472274,-9999,53393.11945141667,-0.901031494140625,0.0151214599609375,-0.117156982421875,1,0.9
2020-05-18 19:28:21.780 -0400,1589844500.999767,41.34147121433348,-71.83561257926839,12.00675,2.979317,12.01481316317395,4.063894281905498,5.663348985472274,-9999,53393.16942441667,-0.6632080078125,0.0246429443359375,-0.1370697021484375,1,0.9
2020-05-18 19:28:21.830 -0400,1589844500.999767,41.34147121433348,-71.83561257926839,12.00675,2.979317,12.01481316317395,4.063894281905498,5.663348985472274,-9999,53393.21939741667,-0.4230194091796875,0.3715667724609375,-0.02239990234375,1,0.9
2020-05-18 19:28:21.879 -0400,1589844500.999767,41.34147121433348,-71.83561257926839,12.00675,2.979317,12.01481316317395,4.063894281905498,5.663348985472274,-9999,53393.26937141667,-0.697906494140625,2.598648071289062,-0.2240142822265625,1,0.9
2020-05-18 19:28:21.929 -0400,1589844500.999767,41.34147121433348,-71.83561257926839,12.00675,2.979317,12.01481316317395,4.063894281905498,5.663348985472274,-9999,53393.319345125,2.043106079101562,3.4046630859375,0.0077056884765625,1,0.9
2020-05-18 19:28:21.980 -0400,1589844500.999767,41.34147121433348,-71.83561257926839,12.00675,2.979317,12.01481316317395,4.063894281905498,5.663348985472274,-9999,53393.36931912501,0.96002197265625,1.607406616210938,-0.194976806640625,1,0.9
2020-05-18 19:28:22.029 -0400,1589844500.999767,41.34147121433348,-71.83561257926839,12.00675,2.979317,12.01481316317395,4.063894281905498,5.663348985472274,-9999,53393.419292125,0.4627685546875,-0.11376953125,-0.0735931396484375,1,0.9
2020-05-18 19:28:22.079 -0400,1589844500.999767,41.34147121433348,-71.83561257926839,12.00675,2.979317,12.01481316317395,4.063894281905498,5.663348985472274,-9999,53393.469266125,0.5900421142578125,-0.8014068603515625,-0.083587646484375,1,0.9
2020-05-18 19:28:22.129 -0400,1589844500.999767,41.34147121433348,-71.83561257926839,12.00675,2.979317,12.01481316317395,4.063894281905498,5.663348985472274,-9999,53393.519239125,0.5570068359375,-1.162582397460938,0.0877685546875,1,0.9
2020-05-18 19:28:22.180 -0400,1589844500.999767,41.34147121433348,-71.83561257926839,12.00675,2.979317,12.01481316317395,4.063894281905498,5.663348985472274,-9999,53393.569213125,0.75311279296875,-0.5136566162109375,0.1644744873046875,1,0.9
2020-05-18 19:28:22.244 -0400,1589844500.999767,41.34147121433348,-71.83561257926839,12.00675,2.979317,12.01481316317395,4.063894281905498,5.663348985472274,-9999,53393.619186125,1.415573120117188,0.78643798828125,-0.3484649658203125,1,0.9
2020-05-18 19:28:22.279 -0400,1589844500.999767,41.34147121433348,-71.83561257926839,12.00675,2.979317,12.01481316317395,4.063894281905498,5.663348985472274,-9999,53393.66916012501,3.594940185546875,3.6109619140625,-1.2286376953125,1,0.9
2020-05-18 19:28:22.329 -0400,1589844500.999767,41.34147121433348,-71.83561257926839,12.00675,2.979317,12.01481316317395,4.063894281905498,5.663348985472274,-9999,53393.719133125,1.060287475585938,2.434295654296875,-0.8784637451171875,1,0.9
2020-05-18 19:28:22.379 -0400,1589844501.999764,41.34149703420775,-71.83559436094426,9.320819,2.878665,14.74246281689198,4.032661366816347,5.562580539750519,-9999,53393.769107125,-0.0709075927734375,1.1439208984375,-0.7055206298828125,1,0.9
2020-05-18 19:28:22.429 -0400,1589844501.999764,41.34149703420775,-71.83559436094426,9.320819,2.878665,14.74246281689198,4.032661366816347,5.562580539750519,-9999,53393.819080125,-0.9681396484375,0.40252685546875,-0.345367431640625,1,0.9
2020-05-18 19:28:22.479 -0400,1589844501.999764,41.34149703420775,-71.83559436094426,9.320819,2.878665,14.74246281689198,4.032661366816347,5.562580539750519,-9999,53393.869054125,-1.000396728515625,0.1654052734375,-0.25390625,1,0.9
2020-05-18 19:28:22.529 -0400,1589844501.999764,41.34149703420775,-71.83559436094426,9.320819,2.878665,14.74246281689198,4.032661366816347,5.562580539750519,-9999,53393.919027125,-0.7544097900390625,-0.052215576171875,-0.1048431396484375,1,0.9
2020-05-18 19:28:22.579 -0400,1589844501.999764,41.34149703420775,-71.83559436094426,9.320819,2.878665,14.74246281689198,4.032661366816347,5.562580539750519,-9999,53393.96900112501,-0.429595947265625,0.2635498046875,-0.16290283203125,1,0.9
2020-05-18 19:28:22.629 -0400,1589844501.999764,41.34149703420775,-71.83559436094426,9.320819,2.878665,14.74246281689198,4.032661366816347,5.562580539750519,-9999,53394.018974125,-0.434417724609375,1.5577392578125,0.1226348876953125,1,0.9
2020-05-18 19:28:22.679 -0400,1589844501.999764,41.34149703420775,-71.83559436094426,9.320819,2.878665,14.74246281689198,4.032661366816347,5.562580539750519,-9999,53394.068948125,1.53173828125,4.913009643554688,-0.039581298828125,1,0.9
2020-05-18 19:28:22.744 -0400,1589844501.999764,41.34149703420775,-71.83559436094426,9.320819,2.878665,14.74246281689198,4.032661366816347,5.562580539750519,-9999,53394.118921125,0.771514892578125,1.967254638671875,-0.25274658203125,1,0.9
2020-05-18 19:28:22.780 -0400,1589844501.999764,41.34149703420775,-71.83559436094426,9.320819,2.878665,14.74246281689198,4.032661366816347,5.562580539750519,-9999,53394.168895125,0.575408935546875,0.40740966796875,-0.3098602294921875,1,0.9
2020-05-18 19:28:22.829 -0400,1589844501.999764,41.34149703420775,-71.83559436094426,9.320819,2.878665,14.74246281689198,4.032661366816347,5.562580539750519,-9999,53394.218868125,0.605987548828125,-0.695281982421875,-0.2330474853515625,1,0.9
2020-05-18 19:28:22.879 -0400,1589844501.999764,41.34149703420775,-71.83559436094426,9.320819,2.878665,14.74246281689198,4.032661366816347,5.562580539750519,-9999,53394.26884212501,0.549835205078125,-0.998382568359375,0.0860137939453125,1,0.9
2020-05-18 19:28:22.929 -0400,1589844501.999764,41.34149703420775,-71.83559436094426,9.320819,2.878665,14.74246281689198,4.032661366816347,5.562580539750519,-9999,53394.31881479167,0.53338623046875,-0.6728057861328125,0.1933135986328125,1,0.9
2020-05-18 19:28:22.979 -0400,1589844501.999764,41.34149703420775,-71.83559436094426,9.320819,2.878665,14.74246281689198,4.032661366816347,5.562580539750519,-9999,53394.36878879167,0.9450531005859375,-0.168121337890625,0.18475341796875,1,0.9
2020-05-18 19:28:23.029 -0400,1589844501.999764,41.34149703420775,-71.83559436094426,9.320819,2.878665,14.74246281689198,4.032661366816347,5.562580539750519,-9999,53394.41876179167,3.171463012695312,3.510955810546875,-0.686859130859375,1,0.9
2020-05-18 19:28:23.079 -0400,1589844501.999764,41.34149703420775,-71.83559436094426,9.320819,2.878665,14.74246281689198,4.032661366816347,5.562580539750519,-9999,53394.46873579167,2.700225830078125,3.7303466796875,-1.199127197265625,1,0.9
2020-05-18 19:28:23.129 -0400,1589844501.999764,41.34149703420775,-71.83559436094426,9.320819,2.878665,14.74246281689198,4.032661366816347,5.562580539750519,-9999,53394.51870879167,0.50946044921875,1.699722290039062,-1.024490356445312,1,0.9
2020-05-18 19:28:23.179 -0400,1589844501.999764,41.34149703420775,-71.83559436094426,9.320819,2.878665,14.74246281689198,4.032661366816347,5.562580539750519,-9999,53394.56868279167,-0.740753173828125,0.673828125,-0.6443328857421875,1,0.9
2020-05-18 19:28:23.245 -0400,1589844501.999764,41.34149703420775,-71.83559436094426,9.320819,2.878665,14.74246281689198,4.032661366816347,5.562580539750519,-9999,53394.61865579167,-1.211105346679688,0.1937713623046875,-0.4722900390625,1,0.9
2020-05-18 19:28:23.279 -0400,1589844501.999764,41.34149703420775,-71.83559436094426,9.320819,2.878665,14.74246281689198,4.032661366816347,5.562580539750519,-9999,53394.66862979167,-0.8555450439453125,-0.0498504638671875,-0.0341949462890625,1,0.9
2020-05-18 19:28:23.329 -0400,1589844501.999764,41.34149703420775,-71.83559436094426,9.320819,2.878665,14.74246281689198,4.032661366816347,5.562580539750519,-9999,53394.71860279167,-0.56817626953125,0.01385498046875,0.0361480712890625,1,0.9
2020-05-18 19:28:23.379 -0400,1589844501.999764,41.34149703420775,-71.83559436094426,9.320819,2.878665,14.74246281689198,4.032661366816347,5.562580539750519,-9999,53394.76857579167,-0.356597900390625,0.717559814453125,0.02593994140625,1,0.9
2020-05-18 19:28:23.429 -0400,1589844502.99976,41.34151541822669,-71.8355686399759,9.359737,2.71351,26.60444402878263,4.012350945338812,5.517097217050577,-9999,53394.81854979167,0.021697998046875,4.65069580078125,-0.284515380859375,1,0.9
2020-05-18 19:28:23.479 -0400,1589844502.99976,41.34151541822669,-71.8355686399759,9.359737,2.71351,26.60444402878263,4.012350945338812,5.517097217050577,-9999,53394.86852279167,1.133148193359375,3.130767822265625,-0.5412139892578125,1,0.9
2020-05-18 19:28:23.529 -0400,1589844502.99976,41.34151541822669,-71.8355686399759,9.359737,2.71351,26.60444402878263,4.012350945338812,5.517097217050577,-9999,53394.91849679167,0.853515625,0.922149658203125,-0.106292724609375,1,0.9
2020-05-18 19:28:23.579 -0400,1589844502.99976,41.34151541822669,-71.8355686399759,9.359737,2.71351,26.60444402878263,4.012350945338812,5.517097217050577,-9999,53394.96846979167,0.5316162109375,-0.33038330078125,-0.0438232421875,1,0.9
2020-05-18 19:28:23.629 -0400,1589844502.99976,41.34151541822669,-71.8355686399759,9.359737,2.71351,26.60444402878263,4.012350945338812,5.517097217050577,-9999,53395.01844379167,0.4820556640625,-0.7653045654296875,-0.019744873046875,1,0.9
2020-05-18 19:28:23.679 -0400,1589844502.99976,41.34151541822669,-71.8355686399759,9.359737,2.71351,26.60444402878263,4.012350945338812,5.517097217050577,-9999,53395.06841679167,0.5510711669921875,-0.84912109375,0.303436279296875,1,0.9
2020-05-18 19:28:23.729 -0400,1589844502.99976,41.34151541822669,-71.8355686399759,9.359737,2.71351,26.60444402878263,4.012350945338812,5.517097217050577,-9999,53395.11839079167,0.90997314453125,-0.3195648193359375,0.3013916015625,1,0.9
2020-05-18 19:28:23.779 -0400,1589844502.99976,41.34151541822669,-71.8355686399759,9.359737,2.71351,26.60444402878263,4.012350945338812,5.517097217050577,-9999,53395.16836379167,1.51373291015625,0.4023895263671875,-0.1077423095703125,1,0.9
2020-05-18 19:28:23.828 -0400,1589844502.99976,41.34151541822669,-71.8355686399759,9.359737,2.71351,26.60444402878263,4.012350945338812,5.517097217050577,-9999,53395.21833779167,3.493255615234375,3.219970703125,-0.5240325927734375,1,0.9
2020-05-18 19:28:23.879 -0400,1589844502.99976,41.34151541822669,-71.8355686399759,9.359737,2.71351,26.60444402878263,4.012350945338812,5.517097217050577,-9999,53395.26831079167,1.54052734375,2.667770385742188,-0.8962554931640625,1,0.9
2020-05-18 19:28:23.928 -0400,1589844502.99976,41.34151541822669,-71.8355686399759,9.359737,2.71351,26.60444402878263,4.012350945338812,5.517097217050577,-9999,53395.31828454167,-0.0789947509765625,1.371749877929688,-0.483184814453125,1,0.9
2020-05-18 19:28:23.978 -0400,1589844502.99976,41.34151541822669,-71.8355686399759,9.359737,2.71351,26.60444402878263,4.012350945338812,5.517097217050577,-9999,53395.36825754167,-1.081939697265625,0.7723846435546875,-0.48419189453125,1,0.9
2020-05-18 19:28:24.028 -0400,1589844502.99976,41.34151541822669,-71.8355686399759,9.359737,2.71351,26.60444402878263,4.012350945338812,5.517097217050577,-9999,53395.41823154167,-1.163314819335938,0.3920440673828125,-0.335205078125,1,0.9
2020-05-18 19:28:24.079 -0400,1589844502.99976,41.34151541822669,-71.8355686399759,9.359737,2.71351,26.60444402878263,4.012350945338812,5.517097217050577,-9999,53395.46820454167,-0.6925811767578125,0.0771942138671875,-0.236480712890625,1,0.9
2020-05-18 19:28:24.128 -0400,1589844502.99976,41.34151541822669,-71.8355686399759,9.359737,2.71351,26.60444402878263,4.012350945338812,5.517097217050577,-9999,53395.51817854167,-0.3169097900390625,0.437164306640625,-0.1634674072265625,1,0.9
2020-05-18 19:28:24.178 -0400,1589844502.99976,41.34151541822669,-71.8355686399759,9.359737,2.71351,26.60444402878263,4.012350945338812,5.517097217050577,-9999,53395.56815154167,0.0045318603515625,2.275619506835938,0.1037445068359375,1,0.9
2020-05-18 19:28:24.228 -0400,1589844502.99976,41.34151541822669,-71.8355686399759,9.359737,2.71351,26.60444402878263,4.012350945338812,5.517097217050577,-9999,53395.61812554167,2.1634521484375,4.022476196289062,0.290924072265625,1,0.9
2020-05-18 19:28:24.278 -0400,1589844502.99976,41.34151541822669,-71.8355686399759,9.359737,2.71351,26.60444402878263,4.012350945338812,5.517097217050577,-9999,53395.66809854167,1.071441650390625,1.784576416015625,-0.0738372802734375,1,0.9
2020-05-18 19:28:24.328 -0400,1589844502.99976,41.34151541822669,-71.8355686399759,9.359737,2.71351,26.60444402878263,4.012350945338812,5.517097217050577,-9999,53395.71807254167,0.4324493408203125,0.1770172119140625,-0.129730224609375,1,0.9
2020-05-18 19:28:24.378 -0400,1589844503.999756,41.34155203132022,-71.83556154547676,12.13563,2.929877,19.21538231375958,3.895227302001182,5.454325841759235,-9999,53395.76804554167,0.34234619140625,-0.6558074951171875,0.0203399658203125,1,0.9
2020-05-18 19:28:24.428 -0400,1589844503.999756,41.34155203132022,-71.83556154547676,12.13563,2.929877,19.21538231375958,3.895227302001182,5.454325841759235,-9999,53395.81801954167,0.4420623779296875,-0.944061279296875,0.2011260986328125,1,0.9
2020-05-18 19:28:24.478 -0400,1589844503.999756,41.34155203132022,-71.83556154547676,12.13563,2.929877,19.21538231375958,3.895227302001182,5.454325841759235,-9999,53395.86799254167,0.5196990966796875,-0.6378631591796875,0.24383544921875,1,0.9
2020-05-18 19:28:24.528 -0400,1589844503.999756,41.34155203132022,-71.83556154547676,12.13563,2.929877,19.21538231375958,3.895227302001182,5.454325841759235,-9999,53395.91796654167,1.166351318359375,-0.266571044921875,0.2392730712890625,1,0.9
2020-05-18 19:28:24.578 -0400,1589844503.999756,41.34155203132022,-71.83556154547676,12.13563,2.929877,19.21538231375958,3.895227302001182,5.454325841759235,-9999,53395.96793954167,3.837921142578125,3.678298950195312,-0.319580078125,1,0.9
2020-05-18 19:28:24.628 -0400,1589844503.999756,41.34155203132022,-71.83556154547676,12.13563,2.929877,19.21538231375958,3.895227302001182,5.454325841759235,-9999,53396.01791354167,2.518203735351562,3.998153686523438,-1.053054809570312,1,0.9
2020-05-18 19:28:24.678 -0400,1589844503.999756,41.34155203132022,-71.83556154547676,12.13563,2.929877,19.21538231375958,3.895227302001182,5.454325841759235,-9999,53396.06788654167,0.376739501953125,1.941619873046875,-0.65838623046875,1,0.9
2020-05-18 19:28:24.728 -0400,1589844503.999756,41.34155203132022,-71.83556154547676,12.13563,2.929877,19.21538231375958,3.895227302001182,5.454325841759235,-9999,53396.11786054167,-0.673980712890625,0.48187255859375,-0.3460693359375,1,0.9
2020-05-18 19:28:24.778 -0400,1589844503.999756,41.34155203132022,-71.83556154547676,12.13563,2.929877,19.21538231375958,3.895227302001182,5.454325841759235,-9999,53396.16783354167,-0.98291015625,0.415618896484375,-0.3908843994140625,1,0.9
2020-05-18 19:28:24.828 -0400,1589844503.999756,41.34155203132022,-71.83556154547676,12.13563,2.929877,19.21538231375958,3.895227302001182,5.454325841759235,-9999,53396.21780754167,-0.9158477783203125,0.010345458984375,-0.157073974609375,1,0.9
2020-05-18 19:28:24.878 -0400,1589844503.999756,41.34155203132022,-71.83556154547676,12.13563,2.929877,19.21538231375958,3.895227302001182,5.454325841759235,-9999,53396.26778054167,-0.620849609375,0.001129150390625,-0.1893310546875,1,0.9
2020-05-18 19:28:24.928 -0400,1589844503.999756,41.34155203132022,-71.83556154547676,12.13563,2.929877,19.21538231375958,3.895227302001182,5.454325841759235,-9999,53396.31775479167,-0.26055908203125,0.59423828125,0.0371246337890625,1,0.9
2020-05-18 19:28:24.978 -0400,1589844503.999756,41.34155203132022,-71.83556154547676,12.13563,2.929877,19.21538231375958,3.895227302001182,5.454325841759235,-9999,53396.36772779167,-0.4109649658203125,3.883682250976562,-0.0739288330078125,1,0.9
2020-05-18 19:28:25.028 -0400,1589844503.999756,41.34155203132022,-71.83556154547676,12.13563,2.929877,19.21538231375958,3.895227302001182,5.454325841759235,-9999,53396.41770179167,1.702850341796875,3.200668334960938,0.09344482421875,1,0.9
2020-05-18 19:28:25.078 -0400,1589844503.999756,41.34155203132022,-71.83556154547676,12.13563,2.929877,19.21538231375958,3.895227302001182,5.454325841759235,-9999,53396.46767479167,1.069351196289062,1.19720458984375,0.03594970703125,1,0.9
2020-05-18 19:28:25.128 -0400,1589844503.999756,41.34155203132022,-71.83556154547676,12.13563,2.929877,19.21538231375958,3.895227302001182,5.454325841759235,-9999,53396.51764879167,0.263092041015625,-0.3686981201171875,-0.04290771484375,1,0.9
2020-05-18 19:28:25.178 -0400,1589844503.999756,41.34155203132022,-71.83556154547676,12.13563,2.929877,19.21538231375958,3.895227302001182,5.454325841759235,-9999,53396.56762179167,0.333984375,-0.7910919189453125,-0.0238037109375,1,0.9
2020-05-18 19:28:25.228 -0400,1589844503.999756,41.34155203132022,-71.83556154547676,12.13563,2.929877,19.21538231375958,3.895227302001182,5.454325841759235,-9999,53396.61759579167,0.46368408203125,-0.978912353515625,0.0221710205078125,1,0.9
2020-05-18 19:28:25.278 -0400,1589844503.999756,41.34155203132022,-71.83556154547676,12.13563,2.929877,19.21538231375958,3.895227302001182,5.454325841759235,-9999,53396.66756879167,0.628753662109375,-0.4297027587890625,0.14666748046875,1,0.9
2020-05-18 19:28:25.328 -0400,1589844503.999756,41.34155203132022,-71.83556154547676,12.13563,2.929877,19.21538231375958,3.895227302001182,5.454325841759235,-9999,53396.71754279167,1.253219604492188,0.4653167724609375,-0.1233673095703125,1,0.9
2020-05-18 19:28:25.378 -0400,1589844503.999756,41.34155203132022,-71.83556154547676,12.13563,2.929877,19.21538231375958,3.895227302001182,5.454325841759235,-9999,53396.76751579167,3.738067626953125,3.6138916015625,-1.185440063476562,1,0.9
2020-05-18 19:28:25.428 -0400,1589844503.999756,41.34155203132022,-71.83556154547676,12.13563,2.929877,19.21538231375958,3.895227302001182,5.454325841759235,-9999,53396.81748979167,1.101242065429688,2.370895385742188,-1.146148681640625,1,0.9
2020-05-18 19:28:25.478 -0400,1589844504.999754,41.34158018151742,-71.83554618071896,12.54394,3.007927,21.14331763968403,3.890986905297998,5.419726070251307,-9999,53396.86746279167,-0.258209228515625,1.026458740234375,-0.670745849609375,1,0.9
2020-05-18 19:28:25.528 -0400,1589844504.999754,41.34158018151742,-71.83554618071896,12.54394,3.007927,21.14331763968403,3.890986905297998,5.419726070251307,-9999,53396.91743679167,-1.103958129882812,0.4280242919921875,-0.4127044677734375,1,0.9
2020-05-18 19:28:25.578 -0400,1589844504.999754,41.34158018151742,-71.83554618071896,12.54394,3.007927,21.14331763968403,3.890986905297998,5.419726070251307,-9999,53396.96740979167,-1.014862060546875,0.1447601318359375,-0.130035400390625,1,0.9
2020-05-18 19:28:25.628 -0400,1589844504.999754,41.34158018151742,-71.83554618071896,12.54394,3.007927,21.14331763968403,3.890986905297998,5.419726070251307,-9999,53397.01738379167,-0.6128387451171875,0.0240478515625,-0.071990966796875,1,0.9
2020-05-18 19:28:25.677 -0400,1589844504.999754,41.34158018151742,-71.83554618071896,12.54394,3.007927,21.14331763968403,3.890986905297998,5.419726070251307,-9999,53397.06735679167,-0.2962493896484375,0.3649749755859375,-0.130523681640625,1,0.9
2020-05-18 19:28:25.727 -0400,1589844504.999754,41.34158018151742,-71.83554618071896,12.54394,3.007927,21.14331763968403,3.890986905297998,5.419726070251307,-9999,53397.11733079167,-0.28521728515625,2.13519287109375,0.08209228515625,1,0.9
2020-05-18 19:28:25.778 -0400,1589844504.999754,41.34158018151742,-71.83554618071896,12.54394,3.007927,21.14331763968403,3.890986905297998,5.419726070251307,-9999,53397.16730379167,2.217315673828125,3.484481811523438,0.048492431640625,1,0.9
2020-05-18 19:28:25.827 -0400,1589844504.999754,41.34158018151742,-71.83554618071896,12.54394,3.007927,21.14331763968403,3.890986905297998,5.419726070251307,-9999,53397.21727779167,0.949188232421875,1.674179077148438,-0.27496337890625,1,0.9
2020-05-18 19:28:25.877 -0400,1589844504.999754,41.34158018151742,-71.83554618071896,12.54394,3.007927,21.14331763968403,3.890986905297998,5.419726070251307,-9999,53397.26725079167,0.291259765625,-0.009033203125,-0.1862030029296875,1,0.9
2020-05-18 19:28:25.927 -0400,1589844504.999754,41.34158018151742,-71.83554618071896,12.54394,3.007927,21.14331763968403,3.890986905297998,5.419726070251307,-9999,53397.31722391667,0.44317626953125,-0.62994384765625,-0.1359405517578125,1,0.9
2020-05-18 19:28:25.977 -0400,1589844504.999754,41.34158018151742,-71.83554618071896,12.54394,3.007927,21.14331763968403,3.890986905297998,5.419726070251307,-9999,53397.36719691667,0.4666900634765625,-0.96966552734375,0.0599212646484375,1,0.9
2020-05-18 19:28:26.027 -0400,1589844504.999754,41.34158018151742,-71.83554618071896,12.54394,3.007927,21.14331763968403,3.890986905297998,5.419726070251307,-9999,53397.41717091667,0.6201324462890625,-0.4392242431640625,0.1577911376953125,1,0.9
2020-05-18 19:28:26.077 -0400,1589844504.999754,41.34158018151742,-71.83554618071896,12.54394,3.007927,21.14331763968403,3.890986905297998,5.419726070251307,-9999,53397.46714391667,1.144088745117188,-0.1329498291015625,0.1714630126953125,1,0.9
2020-05-18 19:28:26.127 -0400,1589844504.999754,41.34158018151742,-71.83554618071896,12.54394,3.007927,21.14331763968403,3.890986905297998,5.419726070251307,-9999,53397.51711791667,3.950698852539062,3.34722900390625,-0.732391357421875,1,0.9
2020-05-18 19:28:26.177 -0400,1589844504.999754,41.34158018151742,-71.83554618071896,12.54394,3.007927,21.14331763968403,3.890986905297998,5.419726070251307,-9999,53397.56709091667,1.619949340820312,3.337173461914062,-0.976654052734375,1,0.9
2020-05-18 19:28:26.227 -0400,1589844504.999754,41.34158018151742,-71.83554618071896,12.54394,3.007927,21.14331763968403,3.890986905297998,5.419726070251307,-9999,53397.61706491667,0.048126220703125,1.53765869140625,-0.726165771484375,1,0.9
2020-05-18 19:28:26.278 -0400,1589844504.999754,41.34158018151742,-71.83554618071896,12.54394,3.007927,21.14331763968403,3.890986905297998,5.419726070251307,-9999,53397.66703791667,-0.802703857421875,0.5196533203125,-0.480438232421875,1,0.9
2020-05-18 19:28:26.327 -0400,1589844504.999754,41.34158018151742,-71.83554618071896,12.54394,3.007927,21.14331763968403,3.890986905297998,5.419726070251307,-9999,53397.71701191667,-1.06268310546875,0.1457061767578125,-0.306915283203125,1,0.9
2020-05-18 19:28:26.377 -0400,1589844505.999754,41.34161021018941,-71.83554309319503,12.31299,2.871545,15.51747076145316,3.896184996529907,5.38908582747655,-9999,53397.76698491667,-0.7783203125,0.0417938232421875,-0.0884246826171875,1,0.9
2020-05-18 19:28:26.427 -0400,1589844505.999754,41.34161021018941,-71.83554309319503,12.31299,2.871545,15.51747076145316,3.896184996529907,5.38908582747655,-9999,53397.81695891667,-0.479522705078125,0.075592041015625,-0.134735107421875,1,0.9
2020-05-18 19:28:26.477 -0400,1589844505.999754,41.34161021018941,-71.83554309319503,12.31299,2.871545,15.51747076145316,3.896184996529907,5.38908582747655,-9999,53397.86693191667,-0.37908935546875,1.119277954101562,0.09698486328125,1,0.9
2020-05-18 19:28:26.527 -0400,1589844505.999754,41.34161021018941,-71.83554309319503,12.31299,2.871545,15.51747076145316,3.896184996529907,5.38908582747655,-9999,53397.91690591667,1.112258911132812,5.153976440429688,0.0276947021484375,1,0.9
2020-05-18 19:28:26.577 -0400,1589844505.999754,41.34161021018941,-71.83554309319503,12.31299,2.871545,15.51747076145316,3.896184996529907,5.38908582747655,-9999,53397.96687891667,1.134597778320312,2.36785888671875,-0.257781982421875,1,0.9
2020-05-18 19:28:26.627 -0400,1589844505.999754,41.34161021018941,-71.83554309319503,12.31299,2.871545,15.51747076145316,3.896184996529907,5.38908582747655,-9999,53398.01685291667,0.8870086669921875,0.6725921630859375,-0.088623046875,1,0.9
2020-05-18 19:28:26.677 -0400,1589844505.999754,41.34161021018941,-71.83554309319503,12.31299,2.871545,15.51747076145316,3.896184996529907,5.38908582747655,-9999,53398.06682591667,0.43994140625,-0.5963897705078125,-0.1698150634765625,1,0.9
2020-05-18 19:28:26.727 -0400,1589844505.999754,41.34161021018941,-71.83554309319503,12.31299,2.871545,15.51747076145316,3.896184996529907,5.38908582747655,-9999,53398.11679991667,0.3615570068359375,-0.96405029296875,-0.044769287109375,1,0.9
2020-05-18 19:28:26.777 -0400,1589844505.999754,41.34161021018941,-71.83554309319503,12.31299,2.871545,15.51747076145316,3.896184996529907,5.38908582747655,-9999,53398.16677291667,0.329254150390625,-0.70330810546875,0.1657867431640625,1,0.9
2020-05-18 19:28:26.827 -0400,1589844505.999754,41.34161021018941,-71.83554309319503,12.31299,2.871545,15.51747076145316,3.896184996529907,5.38908582747655,-9999,53398.21674691667,0.72686767578125,-0.2625732421875,0.1876068115234375,1,0.9
2020-05-18 19:28:26.877 -0400,1589844505.999754,41.34161021018941,-71.83554309319503,12.31299,2.871545,15.51747076145316,3.896184996529907,5.38908582747655,-9999,53398.26671991667,1.869903564453125,1.110427856445312,-0.08770751953125,1,0.9
2020-05-18 19:28:26.927 -0400,1589844505.999754,41.34161021018941,-71.83554309319503,12.31299,2.871545,15.51747076145316,3.896184996529907,5.38908582747655,-9999,53398.31669462501,3.5230712890625,3.011993408203125,-0.8084259033203125,1,0.9
2020-05-18 19:28:26.977 -0400,1589844505.999754,41.34161021018941,-71.83554309319503,12.31299,2.871545,15.51747076145316,3.896184996529907,5.38908582747655,-9999,53398.36666762501,1.00091552734375,2.015823364257812,-0.792755126953125,1,0.9
2020-05-18 19:28:27.027 -0400,1589844505.999754,41.34161021018941,-71.83554309319503,12.31299,2.871545,15.51747076145316,3.896184996529907,5.38908582747655,-9999,53398.416641625,-0.1411285400390625,0.9193115234375,-0.37017822265625,1,0.9
2020-05-18 19:28:27.077 -0400,1589844505.999754,41.34161021018941,-71.83554309319503,12.31299,2.871545,15.51747076145316,3.896184996529907,5.38908582747655,-9999,53398.466614625,-0.99884033203125,0.6620941162109375,-0.519378662109375,1,0.9
2020-05-18 19:28:27.127 -0400,1589844505.999754,41.34161021018941,-71.83554309319503,12.31299,2.871545,15.51747076145316,3.896184996529907,5.38908582747655,-9999,53398.516588625,-1.058349609375,0.1170654296875,-0.1867828369140625,1,0.9
2020-05-18 19:28:27.177 -0400,1589844505.999754,41.34161021018941,-71.83554309319503,12.31299,2.871545,15.51747076145316,3.896184996529907,5.38908582747655,-9999,53398.566561625,-0.758392333984375,0.128387451171875,-0.075927734375,1,0.9
2020-05-18 19:28:27.227 -0400,1589844505.999754,41.34161021018941,-71.83554309319503,12.31299,2.871545,15.51747076145316,3.896184996529907,5.38908582747655,-9999,53398.61653562501,-0.2932281494140625,0.6151580810546875,-0.088104248046875,1,0.9
2020-05-18 19:28:27.277 -0400,1589844505.999754,41.34161021018941,-71.83554309319503,12.31299,2.871545,15.51747076145316,3.896184996529907,5.38908582747655,-9999,53398.66650862501,-0.19488525390625,2.70892333984375,0.0547637939453125,1,0.9
2020-05-18 19:28:27.327 -0400,1589844505.999754,41.34161021018941,-71.83554309319503,12.31299,2.871545,15.51747076145316,3.896184996529907,5.38908582747655,-9999,53398.716482625,2.533279418945312,3.405136108398438,0.225006103515625,1,0.9
2020-05-18 19:28:27.377 -0400,1589844505.999754,41.34161021018941,-71.83554309319503,12.31299,2.871545,15.51747076145316,3.896184996529907,5.38908582747655,-9999,53398.766455625,1.251296997070312,1.518417358398438,-0.1473388671875,1,0.9
2020-05-18 19:28:27.427 -0400,1589844505.999754,41.34161021018941,-71.83554309319503,12.31299,2.871545,15.51747076145316,3.896184996529907,5.38908582747655,-9999,53398.816429625,0.2692413330078125,-0.1311492919921875,0.010040283203125,1,0.9
2020-05-18 19:28:27.477 -0400,1589844505.999754,41.34161021018941,-71.83554309319503,12.31299,2.871545,15.51747076145316,3.896184996529907,5.38908582747655,-9999,53398.866402625,0.289520263671875,-0.8812103271484375,0.0661468505859375,1,0.9
2020-05-18 19:28:27.527 -0400,1589844505.999754,41.34161021018941,-71.83554309319503,12.31299,2.871545,15.51747076145316,3.896184996529907,5.38908582747655,-9999,53398.91637662501,0.390350341796875,-0.8856964111328125,-0.003753662109375,1,0.9
2020-05-18 19:28:27.577 -0400,1589844505.999754,41.34161021018941,-71.83554309319503,12.31299,2.871545,15.51747076145316,3.896184996529907,5.38908582747655,-9999,53398.96634962501,0.5309295654296875,-0.5467681884765625,0.1836395263671875,1,0.9
2020-05-18 19:28:27.626 -0400,1589844505.999754,41.34161021018941,-71.83554309319503,12.31299,2.871545,15.51747076145316,3.896184996529907,5.38908582747655,-9999,53399.016323625,1.076278686523438,-0.2068328857421875,0.094329833984375,1,0.9
2020-05-18 19:28:27.677 -0400,1589844505.999754,41.34161021018941,-71.83554309319503,12.31299,2.871545,15.51747076145316,3.896184996529907,5.38908582747655,-9999,53399.066296625,4.16064453125,3.157684326171875,-0.4270477294921875,1,0.9
2020-05-18 19:28:27.726 -0400,1589844506.99975,41.34163750676954,-71.83553537067903,10.20817,2.84338,10.46455061964917,3.827259038011649,5.30911902991748,-9999,53399.116270625,2.051406860351562,3.175338745117188,-0.8309173583984375,1,0.9
2020-05-18 19:28:27.777 -0400,1589844506.99975,41.34163750676954,-71.83553537067903,10.20817,2.84338,10.46455061964917,3.827259038011649,5.30911902991748,-9999,53399.166243625,0.287689208984375,1.609848022460938,-0.5786590576171875,1,0.9
2020-05-18 19:28:27.827 -0400,1589844506.99975,41.34163750676954,-71.83553537067903,10.20817,2.84338,10.46455061964917,3.827259038011649,5.30911902991748,-9999,53399.21621762501,-0.6396942138671875,0.6537322998046875,-0.299835205078125,1,0.9
2020-05-18 19:28:27.876 -0400,1589844506.99975,41.34163750676954,-71.83553537067903,10.20817,2.84338,10.46455061964917,3.827259038011649,5.30911902991748,-9999,53399.26619062501,-1.069503784179688,0.3328399658203125,-0.3342742919921875,1,0.9
2020-05-18 19:28:27.927 -0400,1589844506.99975,41.34163750676954,-71.83553537067903,10.20817,2.84338,10.46455061964917,3.827259038011649,5.30911902991748,-9999,53399.31616491667,-0.8877105712890625,0.018829345703125,-0.1280975341796875,1,0.9
2020-05-18 19:28:27.976 -0400,1589844506.99975,41.34163750676954,-71.83553537067903,10.20817,2.84338,10.46455061964917,3.827259038011649,5.30911902991748,-9999,53399.36613791667,-0.522918701171875,0.154937744140625,-0.1433563232421875,1,0.9
2020-05-18 19:28:28.026 -0400,1589844506.99975,41.34163750676954,-71.83553537067903,10.20817,2.84338,10.46455061964917,3.827259038011649,5.30911902991748,-9999,53399.41611191667,-0.2640838623046875,0.9670257568359375,0.0650634765625,1,0.9
2020-05-18 19:28:28.076 -0400,1589844506.99975,41.34163750676954,-71.83553537067903,10.20817,2.84338,10.46455061964917,3.827259038011649,5.30911902991748,-9999,53399.46608491667,1.1256103515625,5.129669189453125,0.1396331787109375,1,0.9
2020-05-18 19:28:28.126 -0400,1589844506.99975,41.34163750676954,-71.83553537067903,10.20817,2.84338,10.46455061964917,3.827259038011649,5.30911902991748,-9999,53399.51605891667,1.06622314453125,2.480484008789062,-0.261199951171875,1,0.9
2020-05-18 19:28:28.176 -0400,1589844506.99975,41.34163750676954,-71.83553537067903,10.20817,2.84338,10.46455061964917,3.827259038011649,5.30911902991748,-9999,53399.56603191667,0.74432373046875,0.70294189453125,-0.2101593017578125,1,0.9
2020-05-18 19:28:28.226 -0400,1589844506.99975,41.34163750676954,-71.83553537067903,10.20817,2.84338,10.46455061964917,3.827259038011649,5.30911902991748,-9999,53399.61600591667,0.4380340576171875,-0.52484130859375,-0.1134033203125,1,0.9
2020-05-18 19:28:28.276 -0400,1589844506.99975,41.34163750676954,-71.83553537067903,10.20817,2.84338,10.46455061964917,3.827259038011649,5.30911902991748,-9999,53399.66597891667,0.438323974609375,-1.082382202148438,0.155487060546875,1,0.9
2020-05-18 19:28:28.326 -0400,1589844506.99975,41.34163750676954,-71.83553537067903,10.20817,2.84338,10.46455061964917,3.827259038011649,5.30911902991748,-9999,53399.71595291667,0.4493408203125,-0.7906036376953125,0.1345672607421875,1,0.9
2020-05-18 19:28:28.376 -0400,1589844507.999751,41.34166443636146,-71.83552404189355,9.969593,2.765262,10.68133804668948,3.767505311530432,5.262140053948565,-9999,53399.76592591667,0.8504638671875,-0.30157470703125,0.2468414306640625,1,0.9
2020-05-18 19:28:28.426 -0400,1589844507.999751,41.34166443636146,-71.83552404189355,9.969593,2.765262,10.68133804668948,3.767505311530432,5.262140053948565,-9999,53399.81589991667,1.954315185546875,1.836090087890625,-0.1139068603515625,1,0.9
2020-05-18 19:28:28.476 -0400,1589844507.999751,41.34166443636146,-71.83552404189355,9.969593,2.765262,10.68133804668948,3.767505311530432,5.262140053948565,-9999,53399.86587291667,3.025680541992188,3.276504516601562,-1.036514282226562,1,0.9
2020-05-18 19:28:28.526 -0400,1589844507.999751,41.34166443636146,-71.83552404189355,9.969593,2.765262,10.68133804668948,3.767505311530432,5.262140053948565,-9999,53399.91584691667,0.6656036376953125,2.06781005859375,-0.7572479248046875,1,0.9
2020-05-18 19:28:28.576 -0400,1589844507.999751,41.34166443636146,-71.83552404189355,9.969593,2.765262,10.68133804668948,3.767505311530432,5.262140053948565,-9999,53399.96581991667,-0.2638702392578125,0.7957000732421875,-0.3556976318359375,1,0.9
2020-05-18 19:28:28.626 -0400,1589844507.999751,41.34166443636146,-71.83552404189355,9.969593,2.765262,10.68133804668948,3.767505311530432,5.262140053948565,-9999,53400.01579391667,-0.9167327880859375,0.53973388671875,-0.4069976806640625,1,0.9
2020-05-18 19:28:28.676 -0400,1589844507.999751,41.34166443636146,-71.83552404189355,9.969593,2.765262,10.68133804668948,3.767505311530432,5.262140053948565,-9999,53400.06576691667,-0.9746246337890625,0.104736328125,-0.181915283203125,1,0.9
2020-05-18 19:28:28.726 -0400,1589844507.999751,41.34166443636146,-71.83552404189355,9.969593,2.765262,10.68133804668948,3.767505311530432,5.262140053948565,-9999,53400.11574091667,-0.712432861328125,0.0569915771484375,-0.153106689453125,1,0.9
2020-05-18 19:28:28.776 -0400,1589844507.999751,41.34166443636146,-71.83552404189355,9.969593,2.765262,10.68133804668948,3.767505311530432,5.262140053948565,-9999,53400.16571391667,-0.3338623046875,0.3638916015625,-0.03448486328125,1,0.9
2020-05-18 19:28:28.826 -0400,1589844507.999751,41.34166443636146,-71.83552404189355,9.969593,2.765262,10.68133804668948,3.767505311530432,5.262140053948565,-9999,53400.21568791667,-0.4426116943359375,3.438339233398438,-0.428497314453125,1,0.9
2020-05-18 19:28:28.876 -0400,1589844507.999751,41.34166443636146,-71.83552404189355,9.969593,2.765262,10.68133804668948,3.767505311530432,5.262140053948565,-9999,53400.26566091667,2.138961791992188,3.738311767578125,0.037384033203125,1,0.9
2020-05-18 19:28:28.926 -0400,1589844507.999751,41.34166443636146,-71.83552404189355,9.969593,2.765262,10.68133804668948,3.767505311530432,5.262140053948565,-9999,53400.315634375,1.081329345703125,1.155166625976562,-0.0382232666015625,1,0.9
2020-05-18 19:28:28.976 -0400,1589844507.999751,41.34166443636146,-71.83552404189355,9.969593,2.765262,10.68133804668948,3.767505311530432,5.262140053948565,-9999,53400.365607375,0.321197509765625,-0.4580078125,0.0384521484375,1,0.9
2020-05-18 19:28:29.026 -0400,1589844507.999751,41.34166443636146,-71.83552404189355,9.969593,2.765262,10.68133804668948,3.767505311530432,5.262140053948565,-9999,53400.415581375,0.4299774169921875,-1.011001586914062,0.16827392578125,1,0.9
2020-05-18 19:28:29.076 -0400,1589844507.999751,41.34166443636146,-71.83552404189355,9.969593,2.765262,10.68133804668948,3.767505311530432,5.262140053948565,-9999,53400.46555437501,0.5464935302734375,-0.6663055419921875,0.1180572509765625,1,0.9
2020-05-18 19:28:29.126 -0400,1589844507.999751,41.34166443636146,-71.83552404189355,9.969593,2.765262,10.68133804668948,3.767505311530432,5.262140053948565,-9999,53400.51552837501,0.79443359375,-0.37255859375,0.2501373291015625,1,0.9
2020-05-18 19:28:29.176 -0400,1589844507.999751,41.34166443636146,-71.83552404189355,9.969593,2.765262,10.68133804668948,3.767505311530432,5.262140053948565,-9999,53400.565501375,1.25927734375,0.1109466552734375,0.021575927734375,1,0.9
2020-05-18 19:28:29.226 -0400,1589844507.999751,41.34166443636146,-71.83552404189355,9.969593,2.765262,10.68133804668948,3.767505311530432,5.262140053948565,-9999,53400.615475375,4.19476318359375,3.023101806640625,-0.420196533203125,1,0.9
2020-05-18 19:28:29.276 -0400,1589844507.999751,41.34166443636146,-71.83552404189355,9.969593,2.765262,10.68133804668948,3.767505311530432,5.262140053948565,-9999,53400.665448375,1.636444091796875,2.879776000976562,-0.8210601806640625,1,0.9
2020-05-18 19:28:29.326 -0400,1589844508.999744,41.34169352051603,-71.8355246354546,10.07381,2.693066,4.460964957795649,3.997909687114556,5.266385500122762,-9999,53400.715422375,0.2133941650390625,1.464523315429688,-0.48388671875,1,0.9
2020-05-18 19:28:29.376 -0400,1589844508.999744,41.34169352051603,-71.8355246354546,10.07381,2.693066,4.460964957795649,3.997909687114556,5.266385500122762,-9999,53400.76539537501,-0.670745849609375,0.770172119140625,-0.3402099609375,1,0.9
2020-05-18 19:28:29.426 -0400,1589844508.999744,41.34169352051603,-71.8355246354546,10.07381,2.693066,4.460964957795649,3.997909687114556,5.266385500122762,-9999,53400.81536937501,-0.976348876953125,0.422515869140625,-0.3373260498046875,1,0.9
2020-05-18 19:28:29.476 -0400,1589844508.999744,41.34169352051603,-71.8355246354546,10.07381,2.693066,4.460964957795649,3.997909687114556,5.266385500122762,-9999,53400.865342375,-0.7493743896484375,0.0161590576171875,-0.10687255859375,1,0.9
2020-05-18 19:28:29.526 -0400,1589844508.999744,41.34169352051603,-71.8355246354546,10.07381,2.693066,4.460964957795649,3.997909687114556,5.266385500122762,-9999,53400.915316375,-0.5097503662109375,0.2151947021484375,-0.0743255615234375,1,0.9
2020-05-18 19:28:29.575 -0400,1589844508.999744,41.34169352051603,-71.8355246354546,10.07381,2.693066,4.460964957795649,3.997909687114556,5.266385500122762,-9999,53400.965289375,-0.463775634765625,1.143936157226562,0.290283203125,1,0.9
2020-05-18 19:28:29.625 -0400,1589844508.999744,41.34169352051603,-71.8355246354546,10.07381,2.693066,4.460964957795649,3.997909687114556,5.266385500122762,-9999,53401.015263375,0.9667510986328125,4.622482299804688,0.2569122314453125,1,0.9
2020-05-18 19:28:29.675 -0400,1589844508.999744,41.34169352051603,-71.8355246354546,10.07381,2.693066,4.460964957795649,3.997909687114556,5.266385500122762,-9999,53401.06523637501,0.8851318359375,2.422073364257812,-0.2004241943359375,1,0.9
2020-05-18 19:28:29.725 -0400,1589844508.999744,41.34169352051603,-71.8355246354546,10.07381,2.693066,4.460964957795649,3.997909687114556,5.266385500122762,-9999,53401.11521037501,0.6922760009765625,0.692291259765625,-0.1704864501953125,1,0.9
2020-05-18 19:28:29.775 -0400,1589844508.999744,41.34169352051603,-71.8355246354546,10.07381,2.693066,4.460964957795649,3.997909687114556,5.266385500122762,-9999,53401.165183375,0.3675079345703125,-0.480682373046875,-0.027557373046875,1,0.9
2020-05-18 19:28:29.826 -0400,1589844508.999744,41.34169352051603,-71.8355246354546,10.07381,2.693066,4.460964957795649,3.997909687114556,5.266385500122762,-9999,53401.215157375,0.556793212890625,-0.871551513671875,0.0054931640625,1,0.9
2020-05-18 19:28:29.875 -0400,1589844508.999744,41.34169352051603,-71.8355246354546,10.07381,2.693066,4.460964957795649,3.997909687114556,5.266385500122762,-9999,53401.265130375,0.5587921142578125,-0.7470703125,0.0592803955078125,1,0.9
2020-05-18 19:28:29.925 -0400,1589844508.999744,41.34169352051603,-71.8355246354546,10.07381,2.693066,4.460964957795649,3.997909687114556,5.266385500122762,-9999,53401.315103375,0.981109619140625,-0.1599578857421875,0.051300048828125,1,0.9
2020-05-18 19:28:29.975 -0400,1589844508.999744,41.34169352051603,-71.8355246354546,10.07381,2.693066,4.460964957795649,3.997909687114556,5.266385500122762,-9999,53401.365076375,3.262237548828125,2.855331420898438,-0.6110992431640625,1,0.9
2020-05-18 19:28:30.026 -0400,1589844508.999744,41.34169352051603,-71.8355246354546,10.07381,2.693066,4.460964957795649,3.997909687114556,5.266385500122762,-9999,53401.41505037501,3.071685791015625,2.693267822265625,-0.6646728515625,1,0.9
2020-05-18 19:28:30.075 -0400,1589844508.999744,41.34169352051603,-71.8355246354546,10.07381,2.693066,4.460964957795649,3.997909687114556,5.266385500122762,-9999,53401.465023375,0.2125701904296875,2.353378295898438,-0.892303466796875,1,0.9
2020-05-18 19:28:30.125 -0400,1589844508.999744,41.34169352051603,-71.8355246354546,10.07381,2.693066,4.460964957795649,3.997909687114556,5.266385500122762,-9999,53401.514997375,-1.017776489257812,1.00909423828125,-0.6818695068359375,1,0.9
2020-05-18 19:28:30.175 -0400,1589844508.999744,41.34169352051603,-71.8355246354546,10.07381,2.693066,4.460964957795649,3.997909687114556,5.266385500122762,-9999,53401.564970375,-1.028900146484375,0.5956878662109375,-0.426910400390625,1,0.9
2020-05-18 19:28:30.225 -0400,1589844508.999744,41.34169352051603,-71.8355246354546,10.07381,2.693066,4.460964957795649,3.997909687114556,5.266385500122762,-9999,53401.614944375,-0.5507354736328125,0.132781982421875,-0.080841064453125,1,0.9
2020-05-18 19:28:30.275 -0400,1589844509.999745,41.34171342339058,-71.83551431089693,7.163114,2.473048,6.833843187230906,3.943334708309949,5.299434284700911,-9999,53401.664917375,-0.3329620361328125,0.141326904296875,-0.011566162109375,1,0.9
2020-05-18 19:28:30.325 -0400,1589844509.999745,41.34171342339058,-71.83551431089693,7.163114,2.473048,6.833843187230906,3.943334708309949,5.299434284700911,-9999,53401.71489137501,-0.3141021728515625,0.6507110595703125,0.1634674072265625,1,0.9
2020-05-18 19:28:30.375 -0400,1589844509.999745,41.34171342339058,-71.83551431089693,7.163114,2.473048,6.833843187230906,3.943334708309949,5.299434284700911,-9999,53401.764864375,0.4051055908203125,4.151626586914062,0.23773193359375,1,0.9
2020-05-18 19:28:30.425 -0400,1589844509.999745,41.34171342339058,-71.83551431089693,7.163114,2.473048,6.833843187230906,3.943334708309949,5.299434284700911,-9999,53401.814838375,1.349273681640625,2.8067626953125,-0.3174896240234375,1,0.9
2020-05-18 19:28:30.475 -0400,1589844509.999745,41.34171342339058,-71.83551431089693,7.163114,2.473048,6.833843187230906,3.943334708309949,5.299434284700911,-9999,53401.864811375,0.93280029296875,1.000930786132812,-0.1102294921875,1,0.9
2020-05-18 19:28:30.525 -0400,1589844509.999745,41.34171342339058,-71.83551431089693,7.163114,2.473048,6.833843187230906,3.943334708309949,5.299434284700911,-9999,53401.914785375,0.428741455078125,-0.3074188232421875,0.059356689453125,1,0.9
2020-05-18 19:28:30.575 -0400,1589844509.999745,41.34171342339058,-71.83551431089693,7.163114,2.473048,6.833843187230906,3.943334708309949,5.299434284700911,-9999,53401.964758375,0.5522003173828125,-0.7022857666015625,-0.28619384765625,1,0.9
2020-05-18 19:28:30.625 -0400,1589844509.999745,41.34171342339058,-71.83551431089693,7.163114,2.473048,6.833843187230906,3.943334708309949,5.299434284700911,-9999,53402.01473237501,0.5226593017578125,-0.9976806640625,0.0250396728515625,1,0.9
2020-05-18 19:28:30.675 -0400,1589844509.999745,41.34171342339058,-71.83551431089693,7.163114,2.473048,6.833843187230906,3.943334708309949,5.299434284700911,-9999,53402.064705375,0.794921875,-0.38714599609375,-0.0039825439453125,1,0.9
2020-05-18 19:28:30.725 -0400,1589844509.999745,41.34171342339058,-71.83551431089693,7.163114,2.473048,6.833843187230906,3.943334708309949,5.299434284700911,-9999,53402.114679375,1.730728149414062,1.294921875,-0.51641845703125,1,0.9
2020-05-18 19:28:30.775 -0400,1589844509.999745,41.34171342339058,-71.83551431089693,7.163114,2.473048,6.833843187230906,3.943334708309949,5.299434284700911,-9999,53402.164652375,3.286544799804688,4.117385864257812,-1.220001220703125,1,0.9
2020-05-18 19:28:30.825 -0400,1589844509.999745,41.34171342339058,-71.83551431089693,7.163114,2.473048,6.833843187230906,3.943334708309949,5.299434284700911,-9999,53402.214626375,0.73687744140625,2.09271240234375,-0.951904296875,1,0.9
2020-05-18 19:28:30.875 -0400,1589844509.999745,41.34171342339058,-71.83551431089693,7.163114,2.473048,6.833843187230906,3.943334708309949,5.299434284700911,-9999,53402.264599375,-0.2815093994140625,0.7670745849609375,-0.1337432861328125,1,0.9
2020-05-18 19:28:30.925 -0400,1589844509.999745,41.34171342339058,-71.83551431089693,7.163114,2.473048,6.833843187230906,3.943334708309949,5.299434284700911,-9999,53402.314575125,-0.8545379638671875,0.474029541015625,-0.3263702392578125,1,0.9
2020-05-18 19:28:30.975 -0400,1589844509.999745,41.34171342339058,-71.83551431089693,7.163114,2.473048,6.833843187230906,3.943334708309949,5.299434284700911,-9999,53402.36454812501,-1.07421875,0.14501953125,-0.130767822265625,1,0.9
2020-05-18 19:28:31.025 -0400,1589844509.999745,41.34171342339058,-71.83551431089693,7.163114,2.473048,6.833843187230906,3.943334708309949,5.299434284700911,-9999,53402.414522125,-0.8468780517578125,-0.0443572998046875,-0.1837310791015625,1,0.9
2020-05-18 19:28:31.075 -0400,1589844509.999745,41.34171342339058,-71.83551431089693,7.163114,2.473048,6.833843187230906,3.943334708309949,5.299434284700911,-9999,53402.464495125,-0.3668670654296875,0.3406524658203125,-0.1321868896484375,1,0.9
2020-05-18 19:28:31.125 -0400,1589844509.999745,41.34171342339058,-71.83551431089693,7.163114,2.473048,6.833843187230906,3.943334708309949,5.299434284700911,-9999,53402.514469125,-0.4374237060546875,2.21014404296875,-0.124237060546875,1,0.9
2020-05-18 19:28:31.175 -0400,1589844509.999745,41.34171342339058,-71.83551431089693,7.163114,2.473048,6.833843187230906,3.943334708309949,5.299434284700911,-9999,53402.564442125,2.046463012695312,3.6492919921875,0.240081787109375,1,0.9
2020-05-18 19:28:31.225 -0400,1589844509.999745,41.34171342339058,-71.83551431089693,7.163114,2.473048,6.833843187230906,3.943334708309949,5.299434284700911,-9999,53402.614416125,0.7715911865234375,1.679229736328125,-0.0548858642578125,1,0.9
2020-05-18 19:28:31.275 -0400,1589844509.999745,41.34171342339058,-71.83551431089693,7.163114,2.473048,6.833843187230906,3.943334708309949,5.299434284700911,-9999,53402.66438912501,0.23114013671875,0.0034942626953125,-0.4073486328125,1,0.9
2020-05-18 19:28:31.325 -0400,1589844509.999745,41.34171342339058,-71.83551431089693,7.163114,2.473048,6.833843187230906,3.943334708309949,5.299434284700911,-9999,53402.714363125,0.326446533203125,-0.920135498046875,0.033203125,1,0.9
2020-05-18 19:28:31.374 -0400,1589844509.999745,41.34171342339058,-71.83551431089693,7.163114,2.473048,6.833843187230906,3.943334708309949,5.299434284700911,-9999,53402.764336125,0.405059814453125,-0.9832916259765625,0.2085418701171875,1,0.9
2020-05-18 19:28:31.424 -0400,1589844509.999745,41.34171342339058,-71.83551431089693,7.163114,2.473048,6.833843187230906,3.943334708309949,5.299434284700911,-9999,53402.814310125,0.75262451171875,-0.2724761962890625,0.034149169921875,1,0.9
2020-05-18 19:28:31.474 -0400,1589844509.999745,41.34171342339058,-71.83551431089693,7.163114,2.473048,6.833843187230906,3.943334708309949,5.299434284700911,-9999,53402.864283125,1.429916381835938,0.22723388671875,-0.075653076171875,1,0.9
2020-05-18 19:28:31.524 -0400,1589844509.999745,41.34171342339058,-71.83551431089693,7.163114,2.473048,6.833843187230906,3.943334708309949,5.299434284700911,-9999,53402.914257125,3.661529541015625,3.077301025390625,-0.933441162109375,1,0.9
2020-05-18 19:28:31.574 -0400,1589844509.999745,41.34171342339058,-71.83551431089693,7.163114,2.473048,6.833843187230906,3.943334708309949,5.299434284700911,-9999,53402.96423012501,1.192962646484375,2.85888671875,-0.909027099609375,1,0.9
2020-05-18 19:28:31.624 -0400,1589844509.999745,41.34171342339058,-71.83551431089693,7.163114,2.473048,6.833843187230906,3.943334708309949,5.299434284700911,-9999,53403.014204125,0.026824951171875,1.302398681640625,-0.538299560546875,1,0.9
2020-05-18 19:28:31.674 -0400,1589844509.999745,41.34171342339058,-71.83551431089693,7.163114,2.473048,6.833843187230906,3.943334708309949,5.299434284700911,-9999,53403.064177125,-0.8119354248046875,0.6227874755859375,-0.324920654296875,1,0.9
2020-05-18 19:28:31.724 -0400,1589844509.999745,41.34171342339058,-71.83551431089693,7.163114,2.473048,6.833843187230906,3.943334708309949,5.299434284700911,-9999,53403.114151125,-1.045013427734375,0.2949981689453125,-0.2546844482421875,1,0.9
2020-05-18 19:28:31.774 -0400,1589844509.999745,41.34171342339058,-71.83551431089693,7.163114,2.473048,6.833843187230906,3.943334708309949,5.299434284700911,-9999,53403.164124125,-0.9031219482421875,-0.028594970703125,-0.1321258544921875,1,0.9
2020-05-18 19:28:31.824 -0400,1589844509.999745,41.34171342339058,-71.83551431089693,7.163114,2.473048,6.833843187230906,3.943334708309949,5.299434284700911,-9999,53403.214098125,-0.5778656005859375,0.0995635986328125,-0.0500946044921875,1,0.9
2020-05-18 19:28:31.874 -0400,1589844509.999745,41.34171342339058,-71.83551431089693,7.163114,2.473048,6.833843187230906,3.943334708309949,5.299434284700911,-9999,53403.26407212501,-0.6970062255859375,1.157363891601562,0.3470306396484375,1,0.9
2020-05-18 19:28:31.924 -0400,1589844509.999745,41.34171342339058,-71.83551431089693,7.163114,2.473048,6.833843187230906,3.943334708309949,5.299434284700911,-9999,53403.31404454167,1.8326416015625,5.190383911132812,0.498779296875,1,0.9
2020-05-18 19:28:31.974 -0400,1589844509.999745,41.34171342339058,-71.83551431089693,7.163114,2.473048,6.833843187230906,3.943334708309949,5.299434284700911,-9999,53403.36401854167,0.841064453125,2.260238647460938,-0.4087066650390625,1,0.9
2020-05-18 19:28:32.024 -0400,1589844509.999745,41.34171342339058,-71.83551431089693,7.163114,2.473048,6.833843187230906,3.943334708309949,5.299434284700911,-9999,53403.41399154167,0.653350830078125,0.2503509521484375,0.084197998046875,1,0.9
2020-05-18 19:28:32.074 -0400,1589844509.999745,41.34171342339058,-71.83551431089693,7.163114,2.473048,6.833843187230906,3.943334708309949,5.299434284700911,-9999,53403.46396554167,0.689361572265625,-0.9583740234375,-0.085906982421875,1,0.9
2020-05-18 19:28:32.124 -0400,1589844509.999745,41.34171342339058,-71.83551431089693,7.163114,2.473048,6.833843187230906,3.943334708309949,5.299434284700911,-9999,53403.51393854167,0.6131134033203125,-1.023956298828125,0.097381591796875,1,0.9
2020-05-18 19:28:32.174 -0400,1589844509.999745,41.34171342339058,-71.83551431089693,7.163114,2.473048,6.833843187230906,3.943334708309949,5.299434284700911,-9999,53403.56391254167,0.67633056640625,-0.5105743408203125,0.210662841796875,1,0.9
2020-05-18 19:28:32.224 -0400,1589844509.999745,41.34171342339058,-71.83551431089693,7.163114,2.473048,6.833843187230906,3.943334708309949,5.299434284700911,-9999,53403.61388554167,1.027633666992188,0.100311279296875,-0.0249481201171875,1,0.9
2020-05-18 19:28:32.278 -0400,1589844510.999754,41.34172959860293,-71.83550402947485,4.361901,2.159194,8.350622052615403,3.922914270038472,5.423097600025682,-9999,53403.66385954167,4.152374267578125,3.418411254882812,-0.8999786376953125,1,0.9
2020-05-18 19:28:32.324 -0400,1589844510.999754,41.34172959860293,-71.83550402947485,4.361901,2.159194,8.350622052615403,3.922914270038472,5.423097600025682,-9999,53403.71383254167,2.107650756835938,3.068527221679688,-0.850341796875,1,0.9
2020-05-18 19:28:32.374 -0400,1589844510.999754,41.34172959860293,-71.83550402947485,4.361901,2.159194,8.350622052615403,3.922914270038472,5.423097600025682,-9999,53403.76380654167,0.189178466796875,1.621841430664062,-0.973541259765625,1,0.9
2020-05-18 19:28:32.424 -0400,1589844510.999754,41.34172959860293,-71.83550402947485,4.361901,2.159194,8.350622052615403,3.922914270038472,5.423097600025682,-9999,53403.81377954167,-0.8564605712890625,0.669891357421875,-0.5436553955078125,1,0.9
2020-05-18 19:28:32.474 -0400,1589844510.999754,41.34172959860293,-71.83550402947485,4.361901,2.159194,8.350622052615403,3.922914270038472,5.423097600025682,-9999,53403.86375354167,-1.001937866210938,0.24334716796875,-0.3427276611328125,1,0.9
2020-05-18 19:28:32.524 -0400,1589844510.999754,41.34172959860293,-71.83550402947485,4.361901,2.159194,8.350622052615403,3.922914270038472,5.423097600025682,-9999,53403.91372654167,-0.5828857421875,0.02947998046875,-0.127105712890625,1,0.9
2020-05-18 19:28:32.574 -0400,1589844510.999754,41.34172959860293,-71.83550402947485,4.361901,2.159194,8.350622052615403,3.922914270038472,5.423097600025682,-9999,53403.96370054167,-0.328704833984375,0.1673583984375,-0.156402587890625,1,0.9
2020-05-18 19:28:32.624 -0400,1589844510.999754,41.34172959860293,-71.83550402947485,4.361901,2.159194,8.350622052615403,3.922914270038472,5.423097600025682,-9999,53404.01367354167,-0.3153533935546875,1.062347412109375,0.0900726318359375,1,0.9
2020-05-18 19:28:32.674 -0400,1589844510.999754,41.34172959860293,-71.83550402947485,4.361901,2.159194,8.350622052615403,3.922914270038472,5.423097600025682,-9999,53404.06364754167,1.025115966796875,4.840484619140625,-0.040740966796875,1,0.9
2020-05-18 19:28:32.724 -0400,1589844511.999742,41.34175523721186,-71.8354918806106,5.48036,2.275505,13.71687916649884,3.957503144320076,5.694687636464905,-9999,53404.11362054167,0.6487579345703125,2.51544189453125,-0.2954559326171875,1,0.9
2020-05-18 19:28:32.774 -0400,1589844511.999742,41.34175523721186,-71.8354918806106,5.48036,2.275505,13.71687916649884,3.957503144320076,5.694687636464905,-9999,53404.16359454167,0.5493621826171875,0.705810546875,-0.25531005859375,1,0.9
2020-05-18 19:28:32.824 -0400,1589844511.999742,41.34175523721186,-71.8354918806106,5.48036,2.275505,13.71687916649884,3.957503144320076,5.694687636464905,-9999,53404.21356754167,0.448577880859375,-0.6620941162109375,-0.1175384521484375,1,0.9
2020-05-18 19:28:32.874 -0400,1589844511.999742,41.34175523721186,-71.8354918806106,5.48036,2.275505,13.71687916649884,3.957503144320076,5.694687636464905,-9999,53404.26354154167,0.59356689453125,-0.9521331787109375,0.0662994384765625,1,0.9
2020-05-18 19:28:32.924 -0400,1589844511.999742,41.34175523721186,-71.8354918806106,5.48036,2.275505,13.71687916649884,3.957503144320076,5.694687636464905,-9999,53404.31351450001,0.5746917724609375,-0.832733154296875,0.248138427734375,1,0.9
2020-05-18 19:28:32.974 -0400,1589844511.999742,41.34175523721186,-71.8354918806106,5.48036,2.275505,13.71687916649884,3.957503144320076,5.694687636464905,-9999,53404.36348850001,1.12652587890625,-0.1872100830078125,0.0274200439453125,1,0.9
2020-05-18 19:28:33.024 -0400,1589844511.999742,41.34175523721186,-71.8354918806106,5.48036,2.275505,13.71687916649884,3.957503144320076,5.694687636464905,-9999,53404.4134615,4.172134399414062,3.548904418945312,-0.2915191650390625,1,0.9
2020-05-18 19:28:33.074 -0400,1589844511.999742,41.34175523721186,-71.8354918806106,5.48036,2.275505,13.71687916649884,3.957503144320076,5.694687636464905,-9999,53404.4634355,2.056442260742188,3.483306884765625,-1.107986450195312,1,0.9
2020-05-18 19:28:33.124 -0400,1589844511.999742,41.34175523721186,-71.8354918806106,5.48036,2.275505,13.71687916649884,3.957503144320076,5.694687636464905,-9999,53404.5134085,0.0509033203125,1.731475830078125,-0.6258544921875,1,0.9
2020-05-18 19:28:33.174 -0400,1589844511.999742,41.34175523721186,-71.8354918806106,5.48036,2.275505,13.71687916649884,3.957503144320076,5.694687636464905,-9999,53404.5633825,-1.043182373046875,0.8397064208984375,-0.3976593017578125,1,0.9
2020-05-18 19:28:33.224 -0400,1589844511.999742,41.34175523721186,-71.8354918806106,5.48036,2.275505,13.71687916649884,3.957503144320076,5.694687636464905,-9999,53404.61335550001,-1.025466918945312,0.549713134765625,-0.3357391357421875,1,0.9
2020-05-18 19:28:33.274 -0400,1589844511.999742,41.34175523721186,-71.8354918806106,5.48036,2.275505,13.71687916649884,3.957503144320076,5.694687636464905,-9999,53404.66332950001,-0.7486724853515625,0.077972412109375,-0.1578521728515625,1,0.9
2020-05-18 19:28:33.324 -0400,1589844511.999742,41.34175523721186,-71.8354918806106,5.48036,2.275505,13.71687916649884,3.957503144320076,5.694687636464905,-9999,53404.7133025,-0.4797821044921875,0.0773162841796875,-0.1199798583984375,1,0.9
2020-05-18 19:28:33.374 -0400,1589844511.999742,41.34175523721186,-71.8354918806106,5.48036,2.275505,13.71687916649884,3.957503144320076,5.694687636464905,-9999,53404.7632765,-0.25469970703125,0.725494384765625,0.0774688720703125,1,0.9
2020-05-18 19:28:33.424 -0400,1589844512.999737,41.34177677328515,-71.83546960478506,5.345747,2.194551,22.69321795776887,4.108634968392501,5.846751307688741,-9999,53404.8132495,-0.0297393798828125,4.5313720703125,-0.3061370849609375,1,0.9
2020-05-18 19:28:33.726 -0400,1589844512.999737,41.34177677328515,-71.83546960478506,5.345747,2.194551,22.69321795776887,4.108634968392501,5.846751307688741,-9999,53404.8632235,1.077102661132812,2.851791381835938,-0.153961181640625,1,0.9
2020-05-18 19:28:33.728 -0400,1589844512.999737,41.34177677328515,-71.83546960478506,5.345747,2.194551,22.69321795776887,4.108634968392501,5.846751307688741,-9999,53404.91319650001,0.6031341552734375,0.874755859375,-0.1826171875,1,0.9
2020-05-18 19:28:33.827 -0400,1589844512.999737,41.34177677328515,-71.83546960478506,5.345747,2.194551,22.69321795776887,4.108634968392501,5.846751307688741,-9999,53404.96317050001,0.2205810546875,-0.3598785400390625,-0.1109619140625,1,0.9
2020-05-18 19:28:33.828 -0400,1589844512.999737,41.34177677328515,-71.83546960478506,5.345747,2.194551,22.69321795776887,4.108634968392501,5.846751307688741,-9999,53405.0131435,0.4111175537109375,-0.7056121826171875,-0.003631591796875,1,0.9
2020-05-18 19:28:33.829 -0400,1589844512.999737,41.34177677328515,-71.83546960478506,5.345747,2.194551,22.69321795776887,4.108634968392501,5.846751307688741,-9999,53405.0631175,0.510986328125,-0.8795318603515625,0.2347412109375,1,0.9
2020-05-18 19:28:33.830 -0400,1589844512.999737,41.34177677328515,-71.83546960478506,5.345747,2.194551,22.69321795776887,4.108634968392501,5.846751307688741,-9999,53405.1130905,1.051040649414062,-0.269500732421875,0.2984771728515625,1,0.9
2020-05-18 19:28:33.831 -0400,1589844512.999737,41.34177677328515,-71.83546960478506,5.345747,2.194551,22.69321795776887,4.108634968392501,5.846751307688741,-9999,53405.1630645,2.084259033203125,1.724578857421875,-0.138671875,1,0.9
