loggingTime(txt),accelerometerTimestamp_sinceReboot(s),accelerometerAccelerationX(G),accelerometerAccelerationY(G),accelerometerAccelerationZ(G),batteryState,batteryLevel
2020-05-15 19:11:24.310 -0400,5967.42864225,-0.06243896484375,-0.16448974609375,-0.933380126953125,1,0.88
2020-05-15 19:11:24.429 -0400,5967.54837525,0.038604736328125,-0.1114349365234375,-1.07476806640625,1,0.88
2020-05-15 19:11:24.549 -0400,5967.668107250001,0.21612548828125,-0.0618438720703125,-1.161331176757812,1,0.88
2020-05-15 19:11:24.669 -0400,5967.787844500001,0.2404632568359375,-0.1150665283203125,-0.9622344970703125,1,0.88
2020-05-15 19:11:24.789 -0400,5967.907581500001,0.1765289306640625,-0.1159515380859375,-0.8019866943359375,1,0.88
2020-05-15 19:11:24.908 -0400,5968.0273205,0.142730712890625,-0.2360992431640625,-0.765625,1,0.88
2020-05-15 19:11:25.028 -0400,5968.1470545,0.0352630615234375,-0.3131256103515625,-1.009872436523438,1,0.88
2020-05-15 19:11:25.148 -0400,5968.266790500001,0.0048065185546875,-0.19891357421875,-1.13592529296875,1,0.88
2020-05-15 19:11:25.268 -0400,5968.386524500001,0.11260986328125,0.0839691162109375,-0.9963836669921875,1,0.88
2020-05-15 19:11:25.388 -0400,5968.5062595,0.179046630859375,0.2394256591796875,-0.705535888671875,1,0.88
2020-05-15 19:11:25.507 -0400,5968.625993500001,-0.1196441650390625,1.031387329101562,-0.1717681884765625,1,0.88
2020-05-15 19:11:25.627 -0400,5968.7457215,-0.0760040283203125,0.9535980224609375,-0.21514892578125,1,0.88
2020-05-15 19:11:25.747 -0400,5968.86545275,0.4570465087890625,0.863494873046875,-0.0393218994140625,1,0.88
2020-05-15 19:11:25.866 -0400,5968.985185750001,1.531661987304688,1.658340454101562,-0.250091552734375,1,0.88
2020-05-15 19:11:25.966 -0400,5969.084969750001,0.17926025390625,1.279129028320312,-0.141265869140625,1,0.88
2020-05-15 19:11:26.040 -0400,5969.15481575,-0.2883758544921875,0.63165283203125,-0.2769012451171875,1,0.88
2020-05-15 19:11:26.106 -0400,5969.224662750001,-0.6513671875,-0.0334014892578125,-0.1504669189453125,1,0.88
2020-05-15 19:11:26.176 -0400,5969.29450675,-0.6072540283203125,0.1766815185546875,-0.0506134033203125,1,0.88
2020-05-15 19:11:26.246 -0400,5969.36435075,-0.3727569580078125,1.79498291015625,-0.631805419921875,1,0.88
2020-05-15 19:11:26.315 -0400,5969.434194750001,1.09930419921875,3.67474365234375,-1.356399536132812,1,0.88
2020-05-15 19:11:26.385 -0400,5969.50404575,0.5165252685546875,1.2080078125,-0.09930419921875,1,0.88
2020-05-15 19:11:26.455 -0400,5969.573895750001,0.4544219970703125,0.1594085693359375,-0.0300445556640625,1,0.88
2020-05-15 19:11:26.525 -0400,5969.64374675,0.5268402099609375,-0.33306884765625,0.042510986328125,1,0.88
2020-05-15 19:11:26.595 -0400,5969.713596750001,0.52276611328125,-0.4857025146484375,0.1576080322265625,1,0.88
2020-05-15 19:11:26.665 -0400,5969.783442125,0.8317413330078125,1.502059936523438,0.13409423828125,1,0.88
2020-05-15 19:11:26.735 -0400,5969.853288125,1.000717163085938,3.572662353515625,-0.8528900146484375,1,0.88
2020-05-15 19:11:26.804 -0400,5969.923136125,-0.291473388671875,1.860061645507812,-0.2545318603515625,1,0.88
2020-05-15 19:11:26.874 -0400,5969.992986125,-0.46868896484375,0.26806640625,-0.1663818359375,1,0.88
2020-05-15 19:11:26.944 -0400,5970.062833125,-0.6707305908203125,-0.1052093505859375,-0.1285400390625,1,0.88
2020-05-15 19:11:27.014 -0400,5970.132677125001,-0.7008056640625,0.2113189697265625,0.2276763916015625,1,0.88
2020-05-15 19:11:27.084 -0400,5970.202519125,-0.4544677734375,3.420944213867188,-1.008499145507812,1,0.88
2020-05-15 19:11:27.154 -0400,5970.272362125001,0.2187652587890625,2.774566650390625,-0.872802734375,1,0.88
2020-05-15 19:11:27.223 -0400,5970.342205125,0.6271514892578125,1.048095703125,-0.1004486083984375,1,0.88
2020-05-15 19:11:27.294 -0400,5970.412047125001,0.51641845703125,-0.269195556640625,0.0300750732421875,1,0.88
2020-05-15 19:11:27.363 -0400,5970.481889125001,0.5876617431640625,-0.42852783203125,0.0758514404296875,1,0.88
2020-05-15 19:11:27.433 -0400,5970.551734125001,0.573211669921875,-0.1829071044921875,0.0808563232421875,1,0.88
2020-05-15 19:11:27.503 -0400,5970.621579125001,0.89093017578125,2.341751098632812,-0.54541015625,1,0.88
2020-05-15 19:11:27.573 -0400,5970.691421125,0.6289825439453125,2.8065185546875,-0.8062744140625,1,0.88
2020-05-15 19:11:27.643 -0400,5970.761262125,-0.2010650634765625,1.233154296875,-0.14776611328125,1,0.88
2020-05-15 19:11:27.712 -0400,5970.831105125,-0.7071380615234375,-0.0007171630859375,-0.0204620361328125,1,0.88
2020-05-15 19:11:27.782 -0400,5970.900953125,-1.200408935546875,-0.0976409912109375,0.081146240234375,1,0.88
2020-05-15 19:11:27.852 -0400,5970.970801125,-0.5281829833984375,0.8145294189453125,-0.04718017578125,1,0.88
2020-05-15 19:11:27.922 -0400,5971.040649125001,0.4639434814453125,4.181182861328125,-0.2465362548828125,1,0.88
2020-05-15 19:11:27.992 -0400,5971.110492125001,0.4508819580078125,2.042816162109375,-0.2935638427734375,1,0.88
2020-05-15 19:11:28.081 -0400,5971.180339125001,0.3492889404296875,0.2356414794921875,0.108673095703125,1,0.88
2020-05-15 19:11:28.132 -0400,5971.250182125001,0.591766357421875,-0.5010528564453125,0.1038360595703125,1,0.88
2020-05-15 19:11:28.201 -0400,5971.320029125,0.6675262451171875,-0.26947021484375,0.079254150390625,1,0.88
2020-05-15 19:11:28.271 -0400,5971.389873125,0.6918487548828125,1.109420776367188,-0.1634521484375,1,0.88
2020-05-15 19:11:28.341 -0400,5971.459718125,1.074554443359375,3.505615234375,-0.66192626953125,1,0.88
2020-05-15 19:11:28.411 -0400,5971.529563125,-0.0658721923828125,1.995803833007812,-0.389068603515625,1,0.88
2020-05-15 19:11:28.482 -0400,5971.599406125,-0.5182342529296875,0.45831298828125,-0.2140655517578125,1,0.88
2020-05-15 19:11:28.551 -0400,5971.669250125,-1.335494995117188,-0.1067657470703125,-0.040679931640625,1,0.88
2020-05-15 19:11:28.621 -0400,5971.739092125001,-0.9402008056640625,0.43487548828125,0.2327880859375,1,0.88
2020-05-15 19:11:28.690 -0400,5971.808931875001,-0.274169921875,4.345916748046875,-1.179779052734375,1,0.88
2020-05-15 19:11:28.760 -0400,5971.878771875,0.47998046875,2.209793090820312,-0.4229278564453125,1,0.88
2020-05-15 19:11:28.830 -0400,5971.948615875001,0.536834716796875,0.2988433837890625,-0.074249267578125,1,0.88
2020-05-15 19:11:28.900 -0400,5972.018458875001,0.6838531494140625,-0.5836181640625,0.016448974609375,1,0.88
2020-05-15 19:11:28.970 -0400,5972.088301875,0.674163818359375,-0.415924072265625,0.0887603759765625,1,0.88
2020-05-15 19:11:29.039 -0400,5972.158142875001,0.8598480224609375,1.758560180664062,-0.4235382080078125,1,0.88
2020-05-15 19:11:29.109 -0400,5972.227985875001,0.99114990234375,3.320480346679688,-1.070816040039062,1,0.88
2020-05-15 19:11:29.179 -0400,5972.297828875,-0.116729736328125,1.897232055664062,-0.5757293701171875,1,0.88
2020-05-15 19:11:29.254 -0400,5972.367674875,-0.645416259765625,-0.04522705078125,-0.035614013671875,1,0.88
2020-05-15 19:11:29.319 -0400,5972.437516875,-1.147979736328125,0.237396240234375,0.019287109375,1,0.88
2020-05-15 19:11:29.389 -0400,5972.507357875001,-0.629547119140625,1.112152099609375,0.0009918212890625,1,0.88
2020-05-15 19:11:29.459 -0400,5972.577198875,0.4511260986328125,3.773086547851562,-0.88739013671875,1,0.88
2020-05-15 19:11:29.528 -0400,5972.647038875,0.3920745849609375,1.745941162109375,-0.326690673828125,1,0.88
2020-05-15 19:11:29.598 -0400,5972.716882875,0.5854644775390625,0.003662109375,0.1758575439453125,1,0.88
2020-05-15 19:11:29.668 -0400,5972.786726666667,0.7872161865234375,-0.6405029296875,0.2806243896484375,1,0.88
2020-05-15 19:11:29.738 -0400,5972.856567666667,0.74871826171875,-0.2468109130859375,0.0872344970703125,1,0.88
2020-05-15 19:11:29.808 -0400,5972.926410666667,1.036483764648438,1.167388916015625,-0.5107574462890625,1,0.88
2020-05-15 19:11:29.878 -0400,5972.996255666667,1.31097412109375,3.33660888671875,-0.835296630859375,1,0.88
2020-05-15 19:11:29.947 -0400,5973.066100666667,0.13214111328125,1.593353271484375,-0.4924774169921875,1,0.88
2020-05-15 19:11:30.017 -0400,5973.135944666667,-0.5634613037109375,0.1744537353515625,-0.1472625732421875,1,0.88
2020-05-15 19:11:30.087 -0400,5973.205793666667,-1.097457885742188,0.0211639404296875,0.1978302001953125,1,0.88
2020-05-15 19:11:30.157 -0400,5973.275637666667,-0.6131591796875,0.8809661865234375,0.087432861328125,1,0.88
2020-05-15 19:11:30.227 -0400,5973.345477666667,0.7373046875,4.345367431640625,-0.92022705078125,1,0.88
2020-05-15 19:11:30.297 -0400,5973.415315666667,1.301315307617188,2.358489990234375,-0.42205810546875,1,0.88
2020-05-15 19:11:30.367 -0400,5973.485157666667,0.713623046875,0.0794830322265625,0.0103759765625,1,0.88
2020-05-15 19:11:30.436 -0400,5973.555000666667,0.75775146484375,-0.655181884765625,0.0290374755859375,1,0.88
2020-05-15 19:11:30.506 -0400,5973.624844666667,0.9456634521484375,-0.5123291015625,0.256439208984375,1,0.88
2020-05-15 19:11:30.576 -0400,5973.694689666667,1.112808227539062,1.42633056640625,-0.325897216796875,1,0.88
2020-05-15 19:11:30.646 -0400,5973.7645375,1.151275634765625,4.165802001953125,-0.7125091552734375,1,0.88
2020-05-15 19:11:30.716 -0400,5973.8343825,-0.3833160400390625,1.5018310546875,-0.2734375,1,0.88
2020-05-15 19:11:30.786 -0400,5973.9042285,-0.9592132568359375,0.0323028564453125,0.1419677734375,1,0.88
2020-05-15 19:11:30.855 -0400,5973.974076500001,-1.267318725585938,0.362762451171875,0.3706512451171875,1,0.88
2020-05-15 19:11:30.925 -0400,5974.043924500001,-0.69146728515625,0.7088165283203125,-0.0465850830078125,1,0.88
2020-05-15 19:11:30.995 -0400,5974.113774500001,-0.339202880859375,4.3514404296875,-1.088333129882812,1,0.88
2020-05-15 19:11:31.065 -0400,5974.1836245,0.4665069580078125,1.951812744140625,-0.4085845947265625,1,0.88
2020-05-15 19:11:31.135 -0400,5974.2534695,0.599212646484375,0.1142578125,-0.1772003173828125,1,0.88
2020-05-15 19:11:31.205 -0400,5974.323312500001,0.7586212158203125,-1.003189086914062,0.1458587646484375,1,0.88
2020-05-15 19:11:31.274 -0400,5974.3931595,1.1160888671875,-0.223907470703125,0.16339111328125,1,0.88
2020-05-15 19:11:31.344 -0400,5974.4630045,1.257049560546875,1.969146728515625,0.0941925048828125,1,0.88
2020-05-15 19:11:31.414 -0400,5974.5328515,0.90020751953125,3.792022705078125,-0.907623291015625,1,0.88
2020-05-15 19:11:31.484 -0400,5974.6026945,-0.5352935791015625,1.445770263671875,-0.2066192626953125,1,0.88
2020-05-15 19:11:31.554 -0400,5974.6725385,-1.17156982421875,0.31982421875,0.0169525146484375,1,0.88
2020-05-15 19:11:31.624 -0400,5974.7423815,-1.014434814453125,0.316375732421875,0.18988037109375,1,0.88
2020-05-15 19:11:31.694 -0400,5974.812225500001,-0.5208740234375,1.416427612304688,-0.292724609375,1,0.88
2020-05-15 19:11:31.763 -0400,5974.8820715,1.150711059570312,4.1051025390625,-1.095443725585938,1,0.88
2020-05-15 19:11:31.833 -0400,5974.951915500001,0.7760162353515625,1.323440551757812,-0.2593994140625,1,0.88
2020-05-15 19:11:31.903 -0400,5975.021763500001,0.430755615234375,0.036407470703125,-0.0973052978515625,1,0.88
2020-05-15 19:11:31.973 -0400,5975.0916075,0.8244476318359375,-0.46722412109375,-0.0496368408203125,1,0.88
2020-05-15 19:11:32.043 -0400,5975.1614545,1.190155029296875,-0.2687225341796875,0.0345306396484375,1,0.88
2020-05-15 19:11:32.113 -0400,5975.2312995,0.88568115234375,2.468460083007812,0.0523529052734375,1,0.88
2020-05-15 19:11:32.182 -0400,5975.301143500001,0.272125244140625,3.273086547851562,-0.6200408935546875,1,0.88
2020-05-15 19:11:32.252 -0400,5975.3709845,-0.4206695556640625,1.055984497070312,-0.15887451171875,1,0.88
2020-05-15 19:11:32.322 -0400,5975.4408245,-1.037185668945312,0.1405029296875,0.044708251953125,1,0.88
2020-05-15 19:11:32.392 -0400,5975.5106635,-1.17791748046875,0.32781982421875,0.220733642578125,1,0.88
2020-05-15 19:11:32.462 -0400,5975.580504500001,-0.7020416259765625,1.944107055664062,-0.4469757080078125,1,0.88
2020-05-15 19:11:32.532 -0400,5975.650346500001,1.221588134765625,4.84716796875,-1.097869873046875,1,0.88
2020-05-15 19:11:32.602 -0400,5975.7201885,0.8153076171875,0.909027099609375,0.0927734375,1,0.88
2020-05-15 19:11:32.671 -0400,5975.790029166667,0.610504150390625,-0.26953125,0.1700592041015625,1,0.88
2020-05-15 19:11:32.741 -0400,5975.859870166667,0.7476348876953125,-0.6421661376953125,0.35430908203125,1,0.88
2020-05-15 19:11:32.811 -0400,5975.929710166667,0.974761962890625,0.1051025390625,-0.1118316650390625,1,0.88
2020-05-15 19:11:32.881 -0400,5975.999553166667,0.6942291259765625,2.814208984375,-1.231658935546875,1,0.88
2020-05-15 19:11:32.951 -0400,5976.069397166667,0.4931182861328125,1.866683959960938,-1.410308837890625,1,0.88
2020-05-15 19:11:33.021 -0400,5976.139242166667,-0.3506622314453125,0.9349365234375,-0.2826080322265625,1,0.88
2020-05-15 19:11:33.091 -0400,5976.209085166667,-0.941436767578125,0.293212890625,0.086669921875,1,0.88
2020-05-15 19:11:33.160 -0400,5976.278932166667,-0.8272552490234375,0.19110107421875,0.1295166015625,1,0.88
2020-05-15 19:11:33.230 -0400,5976.348774166667,-0.74822998046875,1.801559448242188,-0.38214111328125,1,0.88
2020-05-15 19:11:33.300 -0400,5976.418613166667,0.6221466064453125,4.085128784179688,-0.982696533203125,1,0.88
2020-05-15 19:11:33.370 -0400,5976.488452166667,0.8793182373046875,1.31878662109375,-0.1114654541015625,1,0.88
2020-05-15 19:11:33.440 -0400,5976.558294166667,0.6031036376953125,-0.42388916015625,0.0885162353515625,1,0.88
2020-05-15 19:11:33.510 -0400,5976.628138166667,0.8514556884765625,-0.6243438720703125,0.1460723876953125,1,0.88
2020-05-15 19:11:33.579 -0400,5976.697978166667,0.9576568603515625,-0.4228973388671875,0.1095123291015625,1,0.88
2020-05-15 19:11:33.649 -0400,5976.767817125,2.348617553710938,2.480361938476562,-0.4772796630859375,1,0.88
2020-05-15 19:11:33.719 -0400,5976.837656125001,0.9584197998046875,3.292404174804688,-0.4405975341796875,1,0.88
2020-05-15 19:11:33.789 -0400,5976.907495125,-0.25286865234375,1.073989868164062,0.0032958984375,1,0.88
2020-05-15 19:11:33.859 -0400,5976.977334125,-0.942047119140625,0.0283203125,0.1181182861328125,1,0.88
2020-05-15 19:11:33.929 -0400,5977.047173125,-1.105194091796875,-0.0372772216796875,0.3433837890625,1,0.88
2020-05-15 19:11:33.998 -0400,5977.117013125,-0.7956390380859375,0.527008056640625,0.09716796875,1,0.88
2020-05-15 19:11:34.068 -0400,5977.186853125,1.881515502929688,5.589248657226562,-0.8441314697265625,1,0.88
2020-05-15 19:11:34.138 -0400,5977.256696125,1.185348510742188,1.51904296875,-0.1746978759765625,1,0.88
2020-05-15 19:11:34.208 -0400,5977.326537125,0.819976806640625,-0.15380859375,0.0423736572265625,1,0.88
2020-05-15 19:11:34.278 -0400,5977.396377125,0.98077392578125,-1.545333862304688,0.2179412841796875,1,0.88
2020-05-15 19:11:34.348 -0400,5977.466217125,1.386993408203125,-0.5567474365234375,0.127410888671875,1,0.88
2020-05-15 19:11:34.418 -0400,5977.536060125,1.704071044921875,3.783477783203125,0.3970489501953125,1,0.88
2020-05-15 19:11:34.487 -0400,5977.605901125,0.805450439453125,3.049606323242188,-0.4986572265625,1,0.88
2020-05-15 19:11:34.557 -0400,5977.675740125001,-0.3251953125,1.317123413085938,-0.2116241455078125,1,0.88
2020-05-15 19:11:34.627 -0400,5977.745581125,-0.9952850341796875,-0.0373382568359375,0.0823822021484375,1,0.88
2020-05-15 19:11:34.697 -0400,5977.815430791667,-0.7986297607421875,0.431884765625,0.0510711669921875,1,0.88
2020-05-15 19:11:34.767 -0400,5977.885273791667,-0.252960205078125,1.171539306640625,-0.9365386962890625,1,0.88
2020-05-15 19:11:34.837 -0400,5977.955114791667,1.221603393554688,3.652694702148438,-2.321945190429688,1,0.88
2020-05-15 19:11:34.906 -0400,5978.024956791667,0.92596435546875,0.9033355712890625,-0.6530303955078125,1,0.88
2020-05-15 19:11:34.976 -0400,5978.094798791667,0.865692138671875,-0.315460205078125,0.3453521728515625,1,0.88
2020-05-15 19:11:35.046 -0400,5978.164637791667,0.82470703125,-0.60357666015625,0.3929290771484375,1,0.88
2020-05-15 19:11:35.116 -0400,5978.234480791667,0.920806884765625,-0.1428070068359375,-0.0257568359375,1,0.88
2020-05-15 19:11:35.186 -0400,5978.304323791667,0.8525543212890625,3.629684448242188,-2.042343139648438,1,0.88
2020-05-15 19:11:35.256 -0400,5978.374165791667,0.722381591796875,-0.3596038818359375,-2.555252075195312,1,0.88
2020-05-15 19:11:35.325 -0400,5978.444006791667,-0.0779876708984375,0.717864990234375,-0.5251617431640625,1,0.88
2020-05-15 19:11:35.395 -0400,5978.513847791667,-0.9871063232421875,0.5048370361328125,0.08392333984375,1,0.88
2020-05-15 19:11:35.465 -0400,5978.583684791667,-0.700958251953125,0.0995635986328125,0.08831787109375,1,0.88
2020-05-15 19:11:35.536 -0400,5978.653522791667,-0.804931640625,0.902313232421875,-1.484100341796875,1,0.88
2020-05-15 19:11:35.605 -0400,5978.723354791667,1.364425659179688,3.871261596679688,-3.18731689453125,1,0.88
2020-05-15 19:11:35.675 -0400,5978.793192375,0.78204345703125,0.5257720947265625,-0.6777191162109375,1,0.88
2020-05-15 19:11:35.744 -0400,5978.863030375001,0.917022705078125,-0.534027099609375,0.518096923828125,1,0.88
2020-05-15 19:11:35.814 -0400,5978.932866375,0.8502044677734375,-0.34600830078125,0.3676910400390625,1,0.88
2020-05-15 19:11:35.884 -0400,5979.002706375,0.7514190673828125,0.3700408935546875,-0.3061370849609375,1,0.88
2020-05-15 19:11:35.954 -0400,5979.072544375001,0.8995208740234375,2.882644653320312,-2.015090942382812,1,0.88
2020-05-15 19:11:36.024 -0400,5979.142379375,0.530120849609375,1.447296142578125,-1.514877319335938,1,0.88
2020-05-15 19:11:36.094 -0400,5979.212211375,-0.473114013671875,0.4720611572265625,-0.1594696044921875,1,0.88
2020-05-15 19:11:36.164 -0400,5979.282046375,-1.065902709960938,0.1035614013671875,0.1534576416015625,1,0.88
2020-05-15 19:11:36.234 -0400,5979.351882375,-0.6558990478515625,0.1559906005859375,0.13360595703125,1,0.88
2020-05-15 19:11:36.303 -0400,5979.421721375001,-0.83001708984375,2.10723876953125,-1.2637939453125,1,0.88
2020-05-15 19:11:36.373 -0400,5979.491560375001,0.4967498779296875,3.102264404296875,-1.5576171875,1,0.88
2020-05-15 19:11:36.443 -0400,5979.561401375,0.3949737548828125,0.7129364013671875,-0.246246337890625,1,0.88
2020-05-15 19:11:36.513 -0400,5979.631243375,0.848297119140625,-0.6433563232421875,0.247772216796875,1,0.88
2020-05-15 19:11:36.582 -0400,5979.701082375001,0.872711181640625,-0.4792938232421875,0.3580322265625,1,0.88
2020-05-15 19:11:36.652 -0400,5979.771009166667,0.944183349609375,0.7603759765625,-0.4251251220703125,1,0.88
2020-05-15 19:11:36.722 -0400,5979.840974166667,1.078659057617188,2.157012939453125,-2.459381103515625,1,0.88
2020-05-15 19:11:36.793 -0400,5979.910938166667,0.7768096923828125,0.4780426025390625,-1.86932373046875,1,0.88
2020-05-15 19:11:36.862 -0400,5979.980903166667,-0.3631439208984375,0.661468505859375,-0.4383697509765625,1,0.88
2020-05-15 19:11:36.932 -0400,5980.050867166667,-1.167816162109375,0.4323883056640625,0.0069732666015625,1,0.88
2020-05-15 19:11:37.002 -0400,5980.120832166667,-0.6719818115234375,0.334503173828125,0.090057373046875,1,0.88
2020-05-15 19:11:37.072 -0400,5980.190796166667,-0.5479278564453125,1.512252807617188,-1.5523681640625,1,0.88
2020-05-15 19:11:37.142 -0400,5980.260761166667,1.085494995117188,2.98712158203125,-2.582534790039062,1,0.88
2020-05-15 19:11:37.212 -0400,5980.330725166667,0.583282470703125,0.7645721435546875,-0.5755462646484375,1,0.88
2020-05-15 19:11:37.282 -0400,5980.400689166667,0.7154693603515625,-0.668853759765625,0.5470733642578125,1,0.88
2020-05-15 19:11:37.352 -0400,5980.470654166667,0.9688720703125,-0.1673431396484375,0.05316162109375,1,0.88
2020-05-15 19:11:37.422 -0400,5980.540618166667,1.125152587890625,-0.0778961181640625,-0.288055419921875,1,0.88
2020-05-15 19:11:37.492 -0400,5980.610583166667,0.72918701171875,3.5557861328125,-1.027450561523438,1,0.88
2020-05-15 19:11:37.562 -0400,5980.680547166667,-0.1080474853515625,1.773178100585938,-0.72637939453125,1,0.88
2020-05-15 19:11:37.632 -0400,5980.750512166667,-0.26123046875,0.236175537109375,-0.203521728515625,1,0.88
2020-05-15 19:11:37.702 -0400,5980.8204765,-1.319595336914062,0.3513641357421875,0.3692626953125,1,0.88
2020-05-15 19:11:37.772 -0400,5980.890441500001,-0.7241973876953125,0.948486328125,0.005279541015625,1,0.88
2020-05-15 19:11:37.842 -0400,5980.9604055,-0.100311279296875,3.723541259765625,-0.4878997802734375,1,0.88
2020-05-15 19:11:37.912 -0400,5981.030370500001,1.13348388671875,2.780044555664062,-0.4599609375,1,0.88
2020-05-15 19:11:37.982 -0400,5981.1003345,0.3234405517578125,0.135955810546875,-0.0196533203125,1,0.88
2020-05-15 19:11:38.052 -0400,5981.170299500001,0.7387847900390625,-0.5203704833984375,0.1682281494140625,1,0.88
2020-05-15 19:11:38.122 -0400,5981.240263500001,0.877838134765625,-0.4045257568359375,0.2092132568359375,1,0.88
2020-05-15 19:11:38.192 -0400,5981.3102285,0.929168701171875,1.014923095703125,-0.3916015625,1,0.88
2020-05-15 19:11:38.262 -0400,5981.380192500001,1.931472778320312,3.52081298828125,-1.191482543945312,1,0.88
2020-05-15 19:11:38.332 -0400,5981.4501575,-0.0682830810546875,1.976318359375,-0.4433135986328125,1,0.88
2020-05-15 19:11:38.402 -0400,5981.520121500001,-0.6772308349609375,-0.1259765625,0.0841064453125,1,0.88
2020-05-15 19:11:38.472 -0400,5981.5900865,-1.43505859375,0.056915283203125,0.221893310546875,1,0.88
2020-05-15 19:11:38.541 -0400,5981.660050500001,-0.7344512939453125,0.5438232421875,-0.0511932373046875,1,0.88
2020-05-15 19:11:38.612 -0400,5981.7300155,-0.092864990234375,5.004135131835938,-1.437271118164062,1,0.88
2020-05-15 19:11:38.681 -0400,5981.799979875001,1.115341186523438,2.20196533203125,-0.6589508056640625,1,0.88
2020-05-15 19:11:38.752 -0400,5981.869944875,0.5430908203125,0.1072998046875,-0.051300048828125,1,0.88
2020-05-15 19:11:38.821 -0400,5981.939908875001,0.764373779296875,-0.8774566650390625,0.2650299072265625,1,0.88
2020-05-15 19:11:38.891 -0400,5982.009873875,1.037353515625,-0.5020904541015625,0.175537109375,1,0.88
2020-05-15 19:11:38.962 -0400,5982.079837875001,1.188674926757812,1.329635620117188,-0.5825042724609375,1,0.88
2020-05-15 19:11:39.031 -0400,5982.149801875001,1.447021484375,4.194808959960938,-1.062225341796875,1,0.88
2020-05-15 19:11:39.102 -0400,5982.219766875,-0.24420166015625,1.842422485351562,-0.503204345703125,1,0.88
2020-05-15 19:11:39.171 -0400,5982.289730875001,-0.627105712890625,0.1967010498046875,0.05108642578125,1,0.88
2020-05-15 19:11:39.241 -0400,5982.359695875,-1.074356079101562,0.187225341796875,0.24652099609375,1,0.88
2020-05-15 19:11:39.311 -0400,5982.429659875001,-0.6787567138671875,0.50164794921875,-0.1074676513671875,1,0.88
2020-05-15 19:11:39.381 -0400,5982.499624875,-0.3361053466796875,4.087677001953125,-2.168869018554688,1,0.88
2020-05-15 19:11:39.451 -0400,5982.569588875001,1.313018798828125,2.3160400390625,-1.317596435546875,1,0.88
2020-05-15 19:11:39.521 -0400,5982.639553875,0.656585693359375,-0.0094757080078125,-0.1348724365234375,1,0.88
2020-05-15 19:11:39.591 -0400,5982.709517875001,0.856109619140625,-0.230224609375,0.4385528564453125,1,0.88
2020-05-15 19:11:39.661 -0400,5982.779482916667,1.061538696289062,-0.5221710205078125,0.4032745361328125,1,0.88
2020-05-15 19:11:39.731 -0400,5982.849446916667,1.0780029296875,0.545196533203125,-0.2750396728515625,1,0.88
2020-05-15 19:11:39.801 -0400,5982.919410916667,1.251235961914062,3.716598510742188,-1.587982177734375,1,0.88
2020-05-15 19:11:39.871 -0400,5982.989375916667,0.07916259765625,1.511032104492188,-1.205322265625,1,0.88
2020-05-15 19:11:39.941 -0400,5983.059339916667,-0.9443206787109375,0.3055877685546875,0.10009765625,1,0.88
2020-05-15 19:11:40.011 -0400,5983.129304916667,-1.286483764648438,0.4450836181640625,0.288116455078125,1,0.88
2020-05-15 19:11:40.081 -0400,5983.199268916667,-0.6473236083984375,0.7648468017578125,-0.4037628173828125,1,0.88
2020-05-15 19:11:40.151 -0400,5983.269233916667,0.5787200927734375,4.464019775390625,-2.13543701171875,1,0.88
2020-05-15 19:11:40.221 -0400,5983.339197916667,1.464630126953125,1.940414428710938,-0.6878509521484375,1,0.88
2020-05-15 19:11:40.291 -0400,5983.409161916667,0.4552154541015625,-0.0701904296875,-0.0213470458984375,1,0.88
2020-05-15 19:11:40.361 -0400,5983.479126916667,0.9438629150390625,-0.538818359375,0.3219146728515625,1,0.88
2020-05-15 19:11:40.431 -0400,5983.549090916667,1.064437866210938,-0.5075836181640625,0.210968017578125,1,0.88
2020-05-15 19:11:40.500 -0400,5983.619055916667,1.4820556640625,0.7697296142578125,-0.458984375,1,0.88
2020-05-15 19:11:40.570 -0400,5983.689019916667,2.261367797851562,4.06256103515625,-0.306610107421875,1,0.88
2020-05-15 19:11:40.640 -0400,5983.758984916667,0.102081298828125,2.17352294921875,-0.22747802734375,1,0.88
2020-05-15 19:11:40.710 -0400,5983.8289485,-1.186416625976562,0.2389984130859375,0.2454071044921875,1,0.88
2020-05-15 19:11:40.781 -0400,5983.898912500001,-1.122634887695312,0.40142822265625,0.308319091796875,1,0.88
2020-05-15 19:11:40.850 -0400,5983.9688775,-0.486480712890625,1.076995849609375,-0.05535888671875,1,0.88
2020-05-15 19:11:40.920 -0400,5984.038841500001,0.6207275390625,4.3115234375,-0.6962890625,1,0.88
2020-05-15 19:11:40.990 -0400,5984.1088065,0.8715972900390625,2.117599487304688,-0.31884765625,1,0.88
2020-05-15 19:11:41.060 -0400,5984.178770500001,0.4791412353515625,-0.1279754638671875,0.0312347412109375,1,0.88
2020-05-15 19:11:41.130 -0400,5984.2487345,0.9781036376953125,-0.6200103759765625,0.2523345947265625,1,0.88
2020-05-15 19:11:41.200 -0400,5984.318699500001,1.228057861328125,-0.4704437255859375,0.309356689453125,1,0.88
2020-05-15 19:11:41.270 -0400,5984.388663500001,1.679473876953125,1.432846069335938,-0.1551666259765625,1,0.88
2020-05-15 19:11:41.340 -0400,5984.4586285,1.9610595703125,4.209640502929688,-1.16729736328125,1,0.88
2020-05-15 19:11:41.410 -0400,5984.528592500001,-0.10357666015625,2.070022583007812,-0.5372314453125,1,0.88
2020-05-15 19:11:41.480 -0400,5984.5985565,-0.9895477294921875,0.107513427734375,0.0907745361328125,1,0.88
2020-05-15 19:11:41.550 -0400,5984.668521500001,-0.8322906494140625,0.1966705322265625,-0.0630645751953125,1,0.88
2020-05-15 19:11:41.620 -0400,5984.7384855,-0.5364532470703125,0.46435546875,-0.62713623046875,1,0.88
2020-05-15 19:11:41.690 -0400,5984.808449291667,0.4023590087890625,2.937423706054688,-3.678680419921875,1,0.88
2020-05-15 19:11:41.760 -0400,5984.878414291667,1.605331420898438,1.157501220703125,-1.232635498046875,1,0.88
2020-05-15 19:11:41.830 -0400,5984.948378291667,0.755706787109375,-0.2138671875,0.2138214111328125,1,0.88
2020-05-15 19:11:41.900 -0400,5985.018343291667,0.9802398681640625,-0.4680633544921875,0.53466796875,1,0.88
2020-05-15 19:11:41.970 -0400,5985.088307291667,0.890380859375,-0.1311187744140625,0.0850982666015625,1,0.88
2020-05-15 19:11:42.040 -0400,5985.158271291667,0.693084716796875,1.78314208984375,-0.9264068603515625,1,0.88
2020-05-15 19:11:42.110 -0400,5985.228236291667,2.068374633789062,0.640655517578125,-2.3502197265625,1,0.88
2020-05-15 19:11:42.180 -0400,5985.298200291667,0.2336883544921875,0.96600341796875,-0.9550933837890625,1,0.88
2020-05-15 19:11:42.250 -0400,5985.368164291667,-0.77801513671875,0.28961181640625,0.057861328125,1,0.88
2020-05-15 19:11:42.320 -0400,5985.438129291667,-1.085678100585938,0.500640869140625,0.043365478515625,1,0.88
2020-05-15 19:11:42.394 -0400,5985.508093291667,-0.98675537109375,0.5796051025390625,-0.4904022216796875,1,0.88
2020-05-15 19:11:42.460 -0400,5985.578057291667,0.1856842041015625,4.213363647460938,-2.390045166015625,1,0.88
2020-05-15 19:11:42.530 -0400,5985.648022291667,1.031661987304688,1.131393432617188,-0.459381103515625,1,0.88
2020-05-15 19:11:42.600 -0400,5985.717986291667,0.74676513671875,-0.199462890625,0.055023193359375,1,0.88
2020-05-15 19:11:42.669 -0400,5985.787950291667,0.7793731689453125,-0.69024658203125,0.2290802001953125,1,0.88
2020-05-15 19:11:42.740 -0400,5985.857915291667,1.164901733398438,-0.0784149169921875,-0.0231781005859375,1,0.88
2020-05-15 19:11:42.810 -0400,5985.927879291667,1.591217041015625,2.312911987304688,-1.104110717773438,1,0.88
2020-05-15 19:11:42.879 -0400,5985.997843291667,1.676345825195312,3.126007080078125,-1.605712890625,1,0.88
2020-05-15 19:11:42.949 -0400,5986.067808291667,-0.1637115478515625,1.410385131835938,-0.144500732421875,1,0.88
2020-05-15 19:11:43.019 -0400,5986.137772291667,-0.93798828125,0.170654296875,0.0738067626953125,1,0.88
2020-05-15 19:11:43.089 -0400,5986.207736291667,-1.0145263671875,0.3214111328125,0.190673828125,1,0.88
2020-05-15 19:11:43.159 -0400,5986.277701291667,-0.7794189453125,0.9151611328125,-0.233795166015625,1,0.88
2020-05-15 19:11:43.229 -0400,5986.347665291667,0.3042144775390625,4.59478759765625,-1.248138427734375,1,0.88
2020-05-15 19:11:43.305 -0400,5986.417629291667,1.558349609375,2.082107543945312,-0.486419677734375,1,0.88
2020-05-15 19:11:43.369 -0400,5986.487594291667,0.8099822998046875,-0.23126220703125,-0.028228759765625,1,0.88
2020-05-15 19:11:43.439 -0400,5986.557558291667,0.88909912109375,-0.538299560546875,0.1570587158203125,1,0.88
2020-05-15 19:11:43.509 -0400,5986.627522291667,0.8232269287109375,-0.2145538330078125,0.017486572265625,1,0.88
2020-05-15 19:11:43.579 -0400,5986.697487291667,0.9371795654296875,1.645782470703125,-0.7220306396484375,1,0.88
2020-05-15 19:11:43.649 -0400,5986.767451291667,0.87469482421875,2.996734619140625,-1.305313110351562,1,0.88
2020-05-15 19:11:43.719 -0400,5986.837415291667,-0.1525115966796875,1.318603515625,-0.5902557373046875,1,0.88
2020-05-15 19:11:43.789 -0400,5986.907379291667,-0.807830810546875,-0.0037994384765625,-0.0944061279296875,1,0.88
2020-05-15 19:11:43.859 -0400,5986.977344291667,-0.9614105224609375,0.2354888916015625,0.1931304931640625,1,0.88
2020-05-15 19:11:43.929 -0400,5987.047308291667,-0.3702545166015625,0.4875946044921875,-0.3942108154296875,1,0.88
2020-05-15 19:11:43.999 -0400,5987.117272291667,-0.1436309814453125,3.971298217773438,-1.704254150390625,1,0.88
2020-05-15 19:11:44.069 -0400,5987.187237291667,0.789825439453125,2.159591674804688,-0.802459716796875,1,0.88
2020-05-15 19:11:44.139 -0400,5987.257201291667,0.4509124755859375,0.2285919189453125,-0.006927490234375,1,0.88
2020-05-15 19:11:44.209 -0400,5987.327165291667,1.007125854492188,-0.45367431640625,0.096160888671875,1,0.88
2020-05-15 19:11:44.279 -0400,5987.397129291667,1.06781005859375,-0.4148406982421875,0.3139801025390625,1,0.88
2020-05-15 19:11:44.349 -0400,5987.467094291667,1.1793212890625,1.029327392578125,-0.232635498046875,1,0.88
2020-05-15 19:11:44.419 -0400,5987.537058291667,1.837554931640625,3.197250366210938,-1.877487182617188,1,0.88
2020-05-15 19:11:44.488 -0400,5987.607022291667,-0.014129638671875,1.967681884765625,-0.98687744140625,1,0.88
2020-05-15 19:11:44.558 -0400,5987.676986291667,-0.6904449462890625,-0.3082275390625,-0.2445068359375,1,0.88
2020-05-15 19:11:44.628 -0400,5987.746951291667,-0.9486541748046875,0.285491943359375,0.1801910400390625,1,0.88
2020-05-15 19:11:44.698 -0400,5987.816915750001,-0.6523590087890625,0.5440673828125,-0.31011962890625,1,0.88
2020-05-15 19:11:44.768 -0400,5987.88687975,0.0825042724609375,3.0618896484375,-2.959213256835938,1,0.88
2020-05-15 19:11:44.838 -0400,5987.95684375,1.128341674804688,2.532867431640625,-1.576156616210938,1,0.88
2020-05-15 19:11:44.908 -0400,5988.026808750001,0.7480621337890625,-0.0562896728515625,-0.0440826416015625,1,0.88
2020-05-15 19:11:44.978 -0400,5988.09677275,0.8302459716796875,-0.567474365234375,0.35064697265625,1,0.88
2020-05-15 19:11:45.048 -0400,5988.16673675,0.921600341796875,-0.2776031494140625,0.222137451171875,1,0.88
2020-05-15 19:11:45.118 -0400,5988.236700750001,1.136123657226562,0.8998870849609375,-0.3581085205078125,1,0.88
2020-05-15 19:11:45.188 -0400,5988.30666575,1.715469360351562,3.141815185546875,-1.487655639648438,1,0.88
2020-05-15 19:11:45.258 -0400,5988.376629750001,-0.2241058349609375,2.134719848632812,-0.8897552490234375,1,0.88
2020-05-15 19:11:45.328 -0400,5988.44659375,-0.84613037109375,0.3027191162109375,-0.4104156494140625,1,0.88
2020-05-15 19:11:45.398 -0400,5988.51655775,-1.269485473632812,0.3313751220703125,0.0740814208984375,1,0.88
2020-05-15 19:11:45.468 -0400,5988.58652175,-0.5854034423828125,0.9429473876953125,-0.3660888671875,1,0.88
2020-05-15 19:11:45.538 -0400,5988.65648675,0.5795745849609375,3.556854248046875,-2.228302001953125,1,0.88
2020-05-15 19:11:45.608 -0400,5988.72645075,1.139236450195312,2.083816528320312,-1.224044799804688,1,0.88
2020-05-15 19:11:45.678 -0400,5988.796414375,0.573028564453125,-0.1363067626953125,0.018096923828125,1,0.88
2020-05-15 19:11:45.748 -0400,5988.866378375001,0.95513916015625,-0.58856201171875,0.1523284912109375,1,0.88
2020-05-15 19:11:45.818 -0400,5988.936342375,1.0096435546875,-0.2663116455078125,0.275482177734375,1,0.88
2020-05-15 19:11:45.888 -0400,5989.006307375001,1.121536254882812,1.195755004882812,-0.768463134765625,1,0.88
2020-05-15 19:11:45.958 -0400,5989.076271375,1.281524658203125,3.226806640625,-1.267868041992188,1,0.88
2020-05-15 19:11:46.028 -0400,5989.146235375,0.04498291015625,1.504791259765625,-0.792205810546875,1,0.88
2020-05-15 19:11:46.098 -0400,5989.216199375001,-0.5101318359375,0.326416015625,0.03173828125,1,0.88
2020-05-15 19:11:46.168 -0400,5989.286163375001,-1.003707885742188,0.6035308837890625,0.10980224609375,1,0.88
2020-05-15 19:11:46.238 -0400,5989.356128375,-0.631622314453125,0.5873870849609375,-0.1502227783203125,1,0.88
2020-05-15 19:11:46.308 -0400,5989.426092375001,-0.2615509033203125,3.680221557617188,-1.928375244140625,1,0.88
2020-05-15 19:11:46.377 -0400,5989.496056375,1.144058227539062,2.455429077148438,-0.839202880859375,1,0.88
2020-05-15 19:11:46.448 -0400,5989.566020375,0.6933746337890625,-0.089202880859375,0.0270538330078125,1,0.88
2020-05-15 19:11:46.517 -0400,5989.635984375001,0.821258544921875,-0.4935150146484375,0.3414764404296875,1,0.88
2020-05-15 19:11:46.587 -0400,5989.705948375,0.9219818115234375,-0.4100189208984375,0.16070556640625,1,0.88
2020-05-15 19:11:46.657 -0400,5989.775913750001,0.9436187744140625,0.9882354736328125,-0.569061279296875,1,0.88
2020-05-15 19:11:46.727 -0400,5989.84587775,1.36602783203125,3.701065063476562,-1.184616088867188,1,0.88
2020-05-15 19:11:46.797 -0400,5989.91584175,0.04119873046875,1.860916137695312,-0.551910400390625,1,0.88
2020-05-15 19:11:46.867 -0400,5989.985805750001,-0.68115234375,0.2228546142578125,0.0428924560546875,1,0.88
2020-05-15 19:11:46.937 -0400,5990.055769750001,-1.099609375,0.3524627685546875,0.0957794189453125,1,0.88
2020-05-15 19:11:47.007 -0400,5990.12573375,-0.533203125,0.7103424072265625,-0.103485107421875,1,0.88
2020-05-15 19:11:47.077 -0400,5990.195698750001,-0.2494964599609375,2.996337890625,-1.236495971679688,1,0.88
2020-05-15 19:11:47.147 -0400,5990.26566275,1.162384033203125,3.188858032226562,-1.3865966796875,1,0.88
2020-05-15 19:11:47.217 -0400,5990.33562675,0.6139984130859375,0.186798095703125,-0.0834197998046875,1,0.88
2020-05-15 19:11:47.287 -0400,5990.405590750001,0.8609771728515625,-0.5221710205078125,0.238555908203125,1,0.88
2020-05-15 19:11:47.357 -0400,5990.475554750001,0.98614501953125,-0.4678192138671875,0.1924591064453125,1,0.88
2020-05-15 19:11:47.427 -0400,5990.54551875,0.866485595703125,0.8848876953125,-0.542694091796875,1,0.88
2020-05-15 19:11:47.497 -0400,5990.61548275,0.9636688232421875,3.08984375,-1.745956420898438,1,0.88
2020-05-15 19:11:47.567 -0400,5990.685446750001,0.4208221435546875,1.638320922851562,-0.9625091552734375,1,0.88
2020-05-15 19:11:47.637 -0400,5990.75541175,-0.60296630859375,0.7357025146484375,-0.0055694580078125,1,0.88
2020-05-15 19:11:47.707 -0400,5990.825375625001,-1.094192504882812,0.3263092041015625,0.1175079345703125,1,0.88
2020-05-15 19:11:47.777 -0400,5990.895339625001,-0.70556640625,0.34912109375,0.051483154296875,1,0.88
2020-05-15 19:11:47.847 -0400,5990.965303625,-0.259063720703125,4.0296630859375,-1.44659423828125,1,0.88
2020-05-15 19:11:47.917 -0400,5991.035267625,1.040283203125,2.557876586914062,-0.64654541015625,1,0.88
2020-05-15 19:11:47.987 -0400,5991.105231625001,0.7107391357421875,0.374664306640625,-0.12060546875,1,0.88
2020-05-15 19:11:48.057 -0400,5991.175195625,0.6885223388671875,-0.435821533203125,0.329254150390625,1,0.88
2020-05-15 19:11:48.127 -0400,5991.245159625,1.039230346679688,-0.506805419921875,0.327972412109375,1,0.88
2020-05-15 19:11:48.197 -0400,5991.315123625001,1.037322998046875,0.42498779296875,-0.4479522705078125,1,0.88
2020-05-15 19:11:48.267 -0400,5991.385087625001,1.694122314453125,4.311508178710938,-0.8476409912109375,1,0.88
2020-05-15 19:11:48.337 -0400,5991.455052625,-0.079498291015625,2.2935791015625,-0.6488189697265625,1,0.88
2020-05-15 19:11:48.407 -0400,5991.525016625001,-0.5373687744140625,0.172637939453125,-0.172637939453125,1,0.88
2020-05-15 19:11:48.477 -0400,5991.594980625,-1.248046875,0.0800323486328125,0.144500732421875,1,0.88
2020-05-15 19:11:48.546 -0400,5991.664944625,-0.737091064453125,0.7487335205078125,0.0352630615234375,1,0.88
2020-05-15 19:11:48.616 -0400,5991.734908625001,-0.4067840576171875,4.051803588867188,-1.043441772460938,1,0.88
2020-05-15 19:11:48.686 -0400,5991.804872625,1.075042724609375,2.770599365234375,-0.873565673828125,1,0.88
2020-05-15 19:11:48.757 -0400,5991.874836625,0.542327880859375,0.0724334716796875,-0.0758514404296875,1,0.88
2020-05-15 19:11:48.827 -0400,5991.944800625,0.9299163818359375,-0.5306549072265625,0.4561004638671875,1,0.88
2020-05-15 19:11:48.896 -0400,5992.014764625001,0.98907470703125,-0.3517303466796875,0.2330474853515625,1,0.88
2020-05-15 19:11:48.966 -0400,5992.084728625,1.309417724609375,1.104202270507812,-0.349853515625,1,0.88
2020-05-15 19:11:49.036 -0400,5992.154692625,1.265853881835938,3.841217041015625,-1.043960571289062,1,0.88
2020-05-15 19:11:49.106 -0400,5992.224656625001,-0.392608642578125,1.611679077148438,-0.178375244140625,1,0.88
2020-05-15 19:11:49.176 -0400,5992.294620625001,-0.81011962890625,0.04345703125,-0.215972900390625,1,0.88
2020-05-15 19:11:49.246 -0400,5992.364584625,-1.162063598632812,-0.0802001953125,0.26202392578125,1,0.88
2020-05-15 19:11:49.316 -0400,5992.434548625,-0.731292724609375,1.251266479492188,0.18194580078125,1,0.88
2020-05-15 19:11:49.386 -0400,5992.504512625001,0.04132080078125,4.089141845703125,-0.610595703125,1,0.88
2020-05-15 19:11:49.456 -0400,5992.574476625,1.214813232421875,2.142364501953125,-0.2563934326171875,1,0.88
2020-05-15 19:11:49.526 -0400,5992.644440625,0.8524169921875,-0.112884521484375,0.0003814697265625,1,0.88
2020-05-15 19:11:49.596 -0400,5992.714404625,1.09320068359375,-0.746612548828125,0.0771636962890625,1,0.88
2020-05-15 19:11:49.666 -0400,5992.784369125,0.906341552734375,-0.353851318359375,0.2574462890625,1,0.88
2020-05-15 19:11:49.736 -0400,5992.854333125,1.018142700195312,1.120834350585938,-0.441650390625,1,0.88
2020-05-15 19:11:49.806 -0400,5992.924297125001,1.337112426757812,3.584136962890625,-0.56365966796875,1,0.88
2020-05-15 19:11:49.877 -0400,5992.994261125001,0.1091156005859375,2.069900512695312,-0.5287322998046875,1,0.88
2020-05-15 19:11:49.946 -0400,5993.064225125,-0.70428466796875,0.1161041259765625,-0.0273284912109375,1,0.88
2020-05-15 19:11:50.016 -0400,5993.134189125,-1.3375244140625,0.4622039794921875,0.15087890625,1,0.88
2020-05-15 19:11:50.086 -0400,5993.204153125001,-0.4430084228515625,1.231826782226562,-0.4066314697265625,1,0.88
2020-05-15 19:11:50.156 -0400,5993.274117125,1.22821044921875,4.846038818359375,-1.80914306640625,1,0.88
2020-05-15 19:11:50.225 -0400,5993.344081125,1.226943969726562,1.31256103515625,-0.3030242919921875,1,0.88
2020-05-15 19:11:50.296 -0400,5993.414045125,0.5719757080078125,-0.064849853515625,0.051910400390625,1,0.88
2020-05-15 19:11:50.366 -0400,5993.484009125001,0.819915771484375,-0.5241851806640625,0.1100006103515625,1,0.88
2020-05-15 19:11:50.435 -0400,5993.553973125,0.77716064453125,-0.4594879150390625,0.1423797607421875,1,0.88
2020-05-15 19:11:50.506 -0400,5993.623937125,1.020416259765625,1.048843383789062,-0.399627685546875,1,0.88
2020-05-15 19:11:50.575 -0400,5993.693901125001,1.810867309570312,4.263275146484375,-1.097808837890625,1,0.88
2020-05-15 19:11:50.645 -0400,5993.763865125,-0.0846710205078125,1.742752075195312,-0.430511474609375,1,0.88
2020-05-15 19:11:50.715 -0400,5993.833828125001,-1.378097534179688,0.0413818359375,0.0145721435546875,1,0.88
2020-05-15 19:11:50.785 -0400,5993.903792125,-1.359329223632812,0.2935943603515625,0.3449249267578125,1,0.88
2020-05-15 19:11:50.855 -0400,5993.973756125,-0.4181060791015625,1.171844482421875,-0.3369293212890625,1,0.88
2020-05-15 19:11:50.925 -0400,5994.043720125001,1.183151245117188,5.316177368164062,-1.408309936523438,1,0.88
2020-05-15 19:11:50.995 -0400,5994.113684125,0.92547607421875,1.674301147460938,-0.36383056640625,1,0.88
2020-05-15 19:11:51.065 -0400,5994.183648125,0.515899658203125,0.2028045654296875,-0.05731201171875,1,0.88
2020-05-15 19:11:51.135 -0400,5994.253612125,1.10748291015625,-0.7046661376953125,0.315277099609375,1,0.88
2020-05-15 19:11:51.205 -0400,5994.323576125001,0.8299560546875,-0.450225830078125,0.24261474609375,1,0.88
2020-05-15 19:11:51.275 -0400,5994.393540125,1.182296752929688,0.7343292236328125,-0.1536407470703125,1,0.88
2020-05-15 19:11:51.345 -0400,5994.463504125,1.797943115234375,4.274887084960938,-1.1988525390625,1,0.88
2020-05-15 19:11:51.415 -0400,5994.533468125001,0.0837554931640625,2.082916259765625,-0.56829833984375,1,0.88
2020-05-15 19:11:51.485 -0400,5994.603432125,-0.810516357421875,0.206695556640625,0.0454864501953125,1,0.88
2020-05-15 19:11:51.555 -0400,5994.673396125,-1.380889892578125,0.5195465087890625,0.1490936279296875,1,0.88
2020-05-15 19:11:51.625 -0400,5994.743359125,-0.67828369140625,0.8370361328125,-0.0383148193359375,1,0.88
2020-05-15 19:11:51.695 -0400,5994.813323916667,-0.1774139404296875,4.195510864257812,-1.141998291015625,1,0.88
2020-05-15 19:11:51.765 -0400,5994.883287916667,1.5408935546875,2.697784423828125,-0.386260986328125,1,0.88
2020-05-15 19:11:51.835 -0400,5994.953251916667,0.867523193359375,0.3504638671875,0.14959716796875,1,0.88
2020-05-15 19:11:51.905 -0400,5995.023215916667,1.090362548828125,-0.61407470703125,0.2212982177734375,1,0.88
2020-05-15 19:11:51.975 -0400,5995.093179916667,1.061141967773438,-0.5923309326171875,0.2771759033203125,1,0.88
2020-05-15 19:11:52.045 -0400,5995.163143916667,1.115066528320312,0.9078826904296875,-0.6378631591796875,1,0.88
2020-05-15 19:11:52.115 -0400,5995.233107916667,1.983963012695312,3.7479248046875,-1.353988647460938,1,0.88
2020-05-15 19:11:52.185 -0400,5995.303071916667,0.0537872314453125,2.39508056640625,-0.8762054443359375,1,0.88
2020-05-15 19:11:52.255 -0400,5995.373035916667,-0.4649505615234375,0.6127166748046875,-0.3223114013671875,1,0.88
2020-05-15 19:11:52.325 -0400,5995.442999916667,-1.370819091796875,0.355743408203125,0.0870513916015625,1,0.88
2020-05-15 19:11:52.394 -0400,5995.512962916667,-0.5785369873046875,0.0320892333984375,-0.047271728515625,1,0.88
2020-05-15 19:11:52.465 -0400,5995.582926916667,-0.4549407958984375,2.030960083007812,-1.928680419921875,1,0.88
2020-05-15 19:11:52.535 -0400,5995.652890916667,1.342178344726562,2.388534545898438,-1.704879760742188,1,0.88
2020-05-15 19:11:52.606 -0400,5995.722854916667,0.467132568359375,0.90869140625,-0.48846435546875,1,0.88
2020-05-15 19:11:52.675 -0400,5995.792818875,0.7806549072265625,-0.3415069580078125,0.1650238037109375,1,0.88
2020-05-15 19:11:52.744 -0400,5995.862782875,0.6455230712890625,-0.7130889892578125,0.0528411865234375,1,0.88
2020-05-15 19:11:52.814 -0400,5995.932746875001,0.8250885009765625,0.12841796875,-0.2190093994140625,1,0.88
2020-05-15 19:11:52.884 -0400,5996.002710875,1.084823608398438,3.64117431640625,-0.7799530029296875,1,0.88
2020-05-15 19:11:52.954 -0400,5996.072673875,0.313385009765625,2.335479736328125,-1.049026489257812,1,0.88
2020-05-15 19:11:53.024 -0400,5996.142637875,-0.409210205078125,0.6114349365234375,-0.1295623779296875,1,0.88
2020-05-15 19:11:53.094 -0400,5996.212601875,-0.802490234375,0.4719085693359375,-0.189544677734375,1,0.88
2020-05-15 19:11:53.164 -0400,5996.282565875001,-0.806640625,0.134185791015625,0.1720428466796875,1,0.88
2020-05-15 19:11:53.246 -0400,5996.352529875,-0.52459716796875,0.4874420166015625,0.0137176513671875,1,0.88
2020-05-15 19:11:53.304 -0400,5996.422493875,1.172454833984375,4.6783447265625,-1.090866088867188,1,0.88
2020-05-15 19:11:53.374 -0400,5996.492456875,0.8752593994140625,1.983139038085938,-0.2654266357421875,1,0.88
2020-05-15 19:11:53.444 -0400,5996.562420875,0.558258056640625,-0.019561767578125,-0.0536346435546875,1,0.88
2020-05-15 19:11:53.514 -0400,5996.632384875001,0.90411376953125,-0.6541595458984375,0.0943450927734375,1,0.88
2020-05-15 19:11:53.584 -0400,5996.702348875,0.9665374755859375,-0.4055938720703125,0.13726806640625,1,0.88
2020-05-15 19:11:53.654 -0400,5996.772312875,1.192367553710938,0.790283203125,-0.265106201171875,1,0.88
2020-05-15 19:11:53.724 -0400,5996.842276791667,1.74774169921875,3.87200927734375,-1.549728393554688,1,0.88
2020-05-15 19:11:53.794 -0400,5996.912239791667,0.04876708984375,1.715377807617188,-0.9734039306640625,1,0.88
2020-05-15 19:11:53.864 -0400,5996.982203791667,-0.5113677978515625,0.0663909912109375,-0.2293548583984375,1,0.88
2020-05-15 19:11:53.934 -0400,5997.052167791667,-1.018585205078125,0.3004150390625,0.1445159912109375,1,0.88
2020-05-15 19:11:54.004 -0400,5997.122131791667,-0.877593994140625,0.7625885009765625,0.05072021484375,1,0.88
2020-05-15 19:11:54.074 -0400,5997.192095791667,-0.4410247802734375,3.278640747070312,-1.447708129882812,1,0.88
2020-05-15 19:11:54.144 -0400,5997.262058791667,1.272628784179688,3.396987915039062,-1.286087036132812,1,0.88
2020-05-15 19:11:54.214 -0400,5997.332022791667,0.97283935546875,0.451202392578125,-0.1322784423828125,1,0.88
2020-05-15 19:11:54.284 -0400,5997.401986791667,0.7255096435546875,-0.52471923828125,0.1263885498046875,1,0.88
2020-05-15 19:11:54.354 -0400,5997.471950791667,0.8216400146484375,-0.5594024658203125,0.204376220703125,1,0.88
2020-05-15 19:11:54.423 -0400,5997.541914791667,1.072021484375,0.2980804443359375,-0.259063720703125,1,0.88
2020-05-15 19:11:54.494 -0400,5997.611877791667,1.430633544921875,3.321060180664062,-0.5423126220703125,1,0.88
2020-05-15 19:11:54.563 -0400,5997.681841791667,0.4387664794921875,2.960067749023438,-0.551483154296875,1,0.88
2020-05-15 19:11:54.633 -0400,5997.751805791667,-0.4754486083984375,0.6444854736328125,-0.00982666015625,1,0.88
2020-05-15 19:11:54.703 -0400,5997.82176925,-1.195892333984375,0.075042724609375,0.31805419921875,1,0.88
2020-05-15 19:11:54.773 -0400,5997.89173225,-0.8551483154296875,0.3790740966796875,0.122802734375,1,0.88
2020-05-15 19:11:54.843 -0400,5997.96169625,-0.479248046875,1.514053344726562,-0.4710693359375,1,0.88
2020-05-15 19:11:54.913 -0400,5998.031660250001,1.002288818359375,5.200881958007812,-1.187835693359375,1,0.88
2020-05-15 19:11:54.983 -0400,5998.10162425,0.954437255859375,1.371734619140625,-0.23626708984375,1,0.88
2020-05-15 19:11:55.053 -0400,5998.171587250001,0.730926513671875,0.115753173828125,-0.02984619140625,1,0.88
2020-05-15 19:11:55.123 -0400,5998.24155125,0.9068603515625,-0.8371124267578125,0.301727294921875,1,0.88
2020-05-15 19:11:55.193 -0400,5998.31151525,0.8849945068359375,-0.12359619140625,0.0644989013671875,1,0.88
2020-05-15 19:11:55.263 -0400,5998.381479250001,0.775238037109375,1.875457763671875,-0.558685302734375,1,0.88
2020-05-15 19:11:55.333 -0400,5998.451442250001,0.904937744140625,3.278076171875,-1.2366943359375,1,0.88
2020-05-15 19:11:55.403 -0400,5998.52140625,0.0345611572265625,1.262481689453125,-0.256591796875,1,0.88
2020-05-15 19:11:55.473 -0400,5998.59137025,-0.665557861328125,0.3244781494140625,0.1799163818359375,1,0.88
2020-05-15 19:11:55.543 -0400,5998.66133425,-1.468414306640625,0.4914398193359375,0.3635406494140625,1,0.88
2020-05-15 19:11:55.613 -0400,5998.73129725,-0.5839080810546875,0.66644287109375,-0.1153411865234375,1,0.88
2020-05-15 19:11:55.683 -0400,5998.801261250001,1.636917114257812,4.7523193359375,-1.038986206054688,1,0.88
2020-05-15 19:11:55.753 -0400,5998.87122525,1.171585083007812,1.710830688476562,-0.3302001953125,1,0.88
2020-05-15 19:11:55.823 -0400,5998.941188250001,0.4967041015625,-0.02667236328125,0.052398681640625,1,0.88
2020-05-15 19:11:55.893 -0400,5999.01115225,0.8080902099609375,-0.769561767578125,0.190948486328125,1,0.88
2020-05-15 19:11:55.963 -0400,5999.08111625,0.9167327880859375,-0.3666839599609375,0.1020050048828125,1,0.88
2020-05-15 19:11:56.033 -0400,5999.151080250001,1.266006469726562,1.30462646484375,-0.0655670166015625,1,0.88
2020-05-15 19:11:56.103 -0400,5999.221043250001,1.57403564453125,3.713912963867188,-0.845458984375,1,0.88
2020-05-15 19:11:56.173 -0400,5999.291007250001,0.141876220703125,1.8370361328125,0.161834716796875,1,0.88
2020-05-15 19:11:56.243 -0400,5999.36097125,-0.80328369140625,0.323028564453125,0.11590576171875,1,0.88
2020-05-15 19:11:56.312 -0400,5999.43093425,-1.102020263671875,0.2350921630859375,0.1979522705078125,1,0.88
2020-05-15 19:11:56.382 -0400,5999.50089825,-0.794403076171875,0.4238433837890625,0.2192535400390625,1,0.88
2020-05-15 19:11:56.453 -0400,5999.570862250001,-0.6875152587890625,4.499984741210938,-0.8670501708984375,1,0.88
2020-05-15 19:11:56.522 -0400,5999.64082525,1.190338134765625,2.315322875976562,-0.454071044921875,1,0.88
2020-05-15 19:11:56.592 -0400,5999.710789250001,1.044586181640625,-0.00592041015625,-0.000244140625,1,0.88
2020-05-15 19:11:56.663 -0400,5999.78075325,0.9212646484375,-0.7333526611328125,0.30987548828125,1,0.88
2020-05-15 19:11:56.732 -0400,5999.850716541667,0.696502685546875,-0.25506591796875,0.114501953125,1,0.88
2020-05-15 19:11:56.802 -0400,5999.920680541667,0.750885009765625,0.6514892578125,-0.5435791015625,1,0.88
2020-05-15 19:11:56.872 -0400,5999.990644541667,1.762527465820312,3.3134765625,-1.084930419921875,1,0.88
2020-05-15 19:11:56.942 -0400,6000.060607541667,0.2135009765625,1.842239379882812,-0.4045562744140625,1,0.88
2020-05-15 19:11:57.012 -0400,6000.130571541667,-0.4392242431640625,0.3971405029296875,-0.2105865478515625,1,0.88
2020-05-15 19:11:57.082 -0400,6000.200535541667,-1.005538940429688,-0.0297698974609375,0.1930389404296875,1,0.88
2020-05-15 19:11:57.152 -0400,6000.270498541667,-0.8725128173828125,0.7046661376953125,0.0969696044921875,1,0.88
2020-05-15 19:11:57.222 -0400,6000.340462541667,-0.761993408203125,2.695953369140625,-0.6250457763671875,1,0.88
2020-05-15 19:11:57.292 -0400,6000.410426541667,1.655380249023438,3.676864624023438,-0.787353515625,1,0.88
2020-05-15 19:11:57.362 -0400,6000.480389541667,0.760650634765625,0.34136962890625,-0.179229736328125,1,0.88
2020-05-15 19:11:57.432 -0400,6000.550353541667,0.92523193359375,-0.975830078125,0.303314208984375,1,0.88
2020-05-15 19:11:57.502 -0400,6000.620316541667,0.9257354736328125,-0.4163818359375,0.235931396484375,1,0.88
2020-05-15 19:11:57.572 -0400,6000.690280541667,1.006576538085938,0.7242279052734375,-0.488128662109375,1,0.88
2020-05-15 19:11:57.642 -0400,6000.760244541667,1.5828857421875,3.862838745117188,-0.526214599609375,1,0.88
2020-05-15 19:11:57.712 -0400,6000.830207375,0.6494903564453125,1.860366821289062,-0.7747039794921875,1,0.88
2020-05-15 19:11:57.782 -0400,6000.900171375,-0.5405120849609375,0.6522369384765625,0.2238311767578125,1,0.88
2020-05-15 19:11:57.852 -0400,6000.970134375,-1.235305786132812,0.6504364013671875,0.2870025634765625,1,0.88
2020-05-15 19:11:57.922 -0400,6001.040098375001,-0.7649383544921875,0.5218353271484375,0.15338134765625,1,0.88
2020-05-15 19:11:57.992 -0400,6001.110062375001,-0.3078765869140625,2.999786376953125,-0.607025146484375,1,0.88
2020-05-15 19:11:58.062 -0400,6001.180025375001,1.5439453125,2.8458251953125,-0.8202972412109375,1,0.88
2020-05-15 19:11:58.132 -0400,6001.249989375,0.6628265380859375,0.5678558349609375,-0.1866455078125,1,0.88
2020-05-15 19:11:58.202 -0400,6001.319952375,0.75543212890625,-0.4130706787109375,0.0064849853515625,1,0.88
2020-05-15 19:11:58.272 -0400,6001.389916375,0.7249298095703125,-0.6264190673828125,0.278656005859375,1,0.88
2020-05-15 19:11:58.342 -0400,6001.459880375,0.8681640625,0.070953369140625,-0.0564727783203125,1,0.88
2020-05-15 19:11:58.412 -0400,6001.529843375,1.25244140625,3.120086669921875,-0.2712554931640625,1,0.88
2020-05-15 19:11:58.481 -0400,6001.599807375001,0.3252410888671875,2.826385498046875,-0.474029541015625,1,0.88
2020-05-15 19:11:58.552 -0400,6001.669770375001,-0.5176544189453125,0.7002716064453125,0.0639190673828125,1,0.88
2020-05-15 19:11:58.621 -0400,6001.739734375001,-1.0257568359375,-0.0052032470703125,0.174774169921875,1,0.88
2020-05-15 19:11:58.691 -0400,6001.809697791667,-1.064651489257812,0.2536468505859375,0.3134002685546875,1,0.88
2020-05-15 19:11:58.761 -0400,6001.879661791667,-0.6692352294921875,1.583084106445312,0.2147064208984375,1,0.88
2020-05-15 19:11:58.831 -0400,6001.949625791667,1.39984130859375,4.942550659179688,-0.1512451171875,1,0.88
2020-05-15 19:11:58.901 -0400,6002.019588791667,0.901092529296875,1.296356201171875,-0.024658203125,1,0.88
2020-05-15 19:11:58.971 -0400,6002.089552791667,0.768890380859375,-0.2636566162109375,0.0180816650390625,1,0.88
2020-05-15 19:11:59.041 -0400,6002.159515791667,1.145767211914062,-0.878143310546875,0.2718353271484375,1,0.88
2020-05-15 19:11:59.111 -0400,6002.229479791667,1.0123291015625,-0.013031005859375,0.0131683349609375,1,0.88
2020-05-15 19:11:59.181 -0400,6002.299442791667,0.9371795654296875,2.859603881835938,-0.469207763671875,1,0.88
2020-05-15 19:11:59.256 -0400,6002.364408791667,0.5306243896484375,3.380813598632812,-0.840057373046875,1,0.88
2020-05-15 19:11:59.311 -0400,6002.429375791667,-0.4815673828125,0.8915863037109375,-0.1985931396484375,1,0.88
2020-05-15 19:11:59.376 -0400,6002.494341791667,-0.929656982421875,-0.0100250244140625,0.0649261474609375,1,0.88
2020-05-15 19:11:59.441 -0400,6002.559307791667,-1.186172485351562,0.1594085693359375,0.144439697265625,1,0.88
2020-05-15 19:11:59.506 -0400,6002.624273791667,-0.5496063232421875,1.0699462890625,-0.085968017578125,1,0.88
2020-05-15 19:11:59.571 -0400,6002.689239791667,0.6692352294921875,4.83074951171875,-1.318023681640625,1,0.88
2020-05-15 19:11:59.636 -0400,6002.754205791667,0.723846435546875,2.259552001953125,-0.500732421875,1,0.88
2020-05-15 19:11:59.701 -0400,6002.8191715,0.76123046875,0.0973358154296875,0.0530853271484375,1,0.88
2020-05-15 19:11:59.766 -0400,6002.8841375,1.059341430664062,-0.7568206787109375,0.3329620361328125,1,0.88
2020-05-15 19:11:59.831 -0400,6002.9491035,0.8150787353515625,-0.3547210693359375,0.2674713134765625,1,0.88
2020-05-15 19:11:59.896 -0400,6003.0140705,0.94989013671875,0.89971923828125,-0.512664794921875,1,0.88
2020-05-15 19:11:59.961 -0400,6003.0790365,1.238800048828125,3.148529052734375,-1.119720458984375,1,0.88
2020-05-15 19:12:00.026 -0400,6003.1440025,0.2313995361328125,2.101303100585938,-0.749267578125,1,0.88
2020-05-15 19:12:00.091 -0400,6003.2089685,-0.33148193359375,0.8067779541015625,-0.0674591064453125,1,0.88
2020-05-15 19:12:00.156 -0400,6003.2739345,-0.8506927490234375,0.293853759765625,-0.1066436767578125,1,0.88
2020-05-15 19:12:00.221 -0400,6003.338900500001,-0.857574462890625,0.2713165283203125,0.0794677734375,1,0.88
2020-05-15 19:12:00.285 -0400,6003.403866500001,-0.634033203125,1.183853149414062,-0.196746826171875,1,0.88
2020-05-15 19:12:00.351 -0400,6003.468832500001,1.235488891601562,4.832870483398438,-1.120376586914062,1,0.88
2020-05-15 19:12:00.415 -0400,6003.533798500001,0.8747406005859375,1.937240600585938,-0.328338623046875,1,0.88
2020-05-15 19:12:00.480 -0400,6003.5987645,0.701812744140625,0.05560302734375,-0.0062408447265625,1,0.88
2020-05-15 19:12:00.545 -0400,6003.6637305,0.9544830322265625,-0.696075439453125,0.1787872314453125,1,0.88
2020-05-15 19:12:00.610 -0400,6003.728697500001,0.8380126953125,-0.3119354248046875,0.0494384765625,1,0.88
2020-05-15 19:12:00.675 -0400,6003.793663125,0.98944091796875,0.4691162109375,-0.369964599609375,1,0.88
2020-05-15 19:12:00.741 -0400,6003.858629125,1.11553955078125,3.225830078125,-0.9061279296875,1,0.88
2020-05-15 19:12:00.805 -0400,6003.923595125,0.318939208984375,2.856536865234375,-0.7237548828125,1,0.88
2020-05-15 19:12:00.870 -0400,6003.988561125,-0.5364990234375,0.6139678955078125,-0.251953125,1,0.88
2020-05-15 19:12:00.935 -0400,6004.053527125,-0.988311767578125,0.1334228515625,-0.018218994140625,1,0.88
2020-05-15 19:12:01.000 -0400,6004.118493125,-0.961761474609375,0.227783203125,0.252288818359375,1,0.88
2020-05-15 19:12:01.065 -0400,6004.183459125001,-0.525360107421875,0.90240478515625,-0.104278564453125,1,0.88
2020-05-15 19:12:01.130 -0400,6004.248425125001,0.65771484375,4.612075805664062,-1.340530395507812,1,0.88
2020-05-15 19:12:01.195 -0400,6004.313391125001,0.968719482421875,1.91448974609375,-0.456085205078125,1,0.88
2020-05-15 19:12:01.260 -0400,6004.378357125001,0.8363494873046875,0.02703857421875,-0.1713104248046875,1,0.88
2020-05-15 19:12:01.334 -0400,6004.443323125,0.9420013427734375,-0.822784423828125,0.1184234619140625,1,0.88
2020-05-15 19:12:01.390 -0400,6004.508289125,0.8778533935546875,-0.4877777099609375,0.1654205322265625,1,0.88
2020-05-15 19:12:01.455 -0400,6004.573255125,1.077926635742188,1.032608032226562,-0.2991485595703125,1,0.88
2020-05-15 19:12:01.520 -0400,6004.638221125,1.152206420898438,3.337631225585938,-0.9252777099609375,1,0.88
2020-05-15 19:12:01.585 -0400,6004.703187125,0.4903564453125,2.131332397460938,-0.8659820556640625,1,0.88
2020-05-15 19:12:01.650 -0400,6004.768153125,-0.3732452392578125,0.3209228515625,-0.080718994140625,1,0.88
2020-05-15 19:12:01.715 -0400,6004.83311975,-0.8352813720703125,0.1914215087890625,-0.01531982421875,1,0.88
2020-05-15 19:12:01.780 -0400,6004.89808575,-0.905303955078125,0.1572418212890625,0.18243408203125,1,0.88
2020-05-15 19:12:01.845 -0400,6004.96305175,-0.5840911865234375,0.98516845703125,0.0219879150390625,1,0.88
2020-05-15 19:12:01.910 -0400,6005.028017750001,0.958953857421875,4.981796264648438,-0.4812774658203125,1,0.88
2020-05-15 19:12:01.975 -0400,6005.092983750001,1.192459106445312,2.228546142578125,-0.401397705078125,1,0.88
2020-05-15 19:12:02.040 -0400,6005.157949750001,0.6933441162109375,-0.117919921875,0.011871337890625,1,0.88
2020-05-15 19:12:02.105 -0400,6005.222915750001,0.6632843017578125,-0.6529083251953125,0.05902099609375,1,0.88
2020-05-15 19:12:02.170 -0400,6005.28788175,0.83428955078125,-0.4167327880859375,0.0571746826171875,1,0.88
2020-05-15 19:12:02.235 -0400,6005.35284775,0.9542083740234375,0.8089141845703125,-0.375701904296875,1,0.88
2020-05-15 19:12:02.300 -0400,6005.41781375,1.337799072265625,3.394332885742188,-0.7991943359375,1,0.88
2020-05-15 19:12:02.364 -0400,6005.48277975,0.349945068359375,2.240982055664062,-0.8847198486328125,1,0.88
2020-05-15 19:12:02.430 -0400,6005.54774575,-0.4432830810546875,0.429901123046875,-0.0955047607421875,1,0.88
2020-05-15 19:12:02.494 -0400,6005.61271175,-1.214523315429688,0.109405517578125,0.211639404296875,1,0.88
2020-05-15 19:12:02.559 -0400,6005.67767775,-0.921142578125,0.468536376953125,0.1102142333984375,1,0.88
2020-05-15 19:12:02.624 -0400,6005.742643750001,-0.5775299072265625,2.10125732421875,-0.58111572265625,1,0.88
2020-05-15 19:12:02.689 -0400,6005.807609166667,0.676177978515625,4.276351928710938,-1.031326293945312,1,0.88
2020-05-15 19:12:02.754 -0400,6005.872575166667,0.9396514892578125,1.068527221679688,-0.082611083984375,1,0.88
2020-05-15 19:12:02.819 -0400,6005.937541166667,0.8991241455078125,-0.3617095947265625,0.14495849609375,1,0.88
2020-05-15 19:12:02.884 -0400,6006.002507166667,1.104736328125,-0.8302001953125,0.421844482421875,1,0.88
2020-05-15 19:12:02.949 -0400,6006.067473166667,1.08941650390625,0.23443603515625,0.028717041015625,1,0.88
2020-05-15 19:12:03.014 -0400,6006.132439166667,0.8741912841796875,2.936813354492188,-0.8473052978515625,1,0.88
2020-05-15 19:12:03.079 -0400,6006.197405166667,0.8292999267578125,3.016281127929688,-1.241714477539062,1,0.88
2020-05-15 19:12:03.144 -0400,6006.262371166667,-0.267822265625,1.010726928710938,-0.3025360107421875,1,0.88
2020-05-15 19:12:03.209 -0400,6006.327337166667,-0.5959014892578125,0.216064453125,0.048583984375,1,0.88
2020-05-15 19:12:03.274 -0400,6006.392303166667,-1.108810424804688,0.086517333984375,0.11798095703125,1,0.88
2020-05-15 19:12:03.339 -0400,6006.457269166667,-0.7177734375,0.467437744140625,0.0159759521484375,1,0.88
2020-05-15 19:12:03.404 -0400,6006.522235166667,-1.216140747070312,2.858871459960938,-0.569366455078125,1,0.88
2020-05-15 19:12:03.469 -0400,6006.587201166667,0.7061309814453125,3.673904418945312,-0.7889404296875,1,0.88
2020-05-15 19:12:03.534 -0400,6006.652167166667,0.72332763671875,1.0701904296875,0.0207672119140625,1,0.88
2020-05-15 19:12:03.599 -0400,6006.717133166667,1.10302734375,-0.485198974609375,0.3020782470703125,1,0.88
2020-05-15 19:12:03.664 -0400,6006.782099166667,1.144393920898438,-0.3858184814453125,0.2558135986328125,1,0.88
2020-05-15 19:12:03.729 -0400,6006.847065875,0.7572479248046875,-0.007049560546875,-0.0863037109375,1,0.88
2020-05-15 19:12:03.794 -0400,6006.912031875,0.672332763671875,3.487579345703125,-0.8557281494140625,1,0.88
2020-05-15 19:12:03.859 -0400,6006.976996875001,0.3646240234375,2.567901611328125,-1.4234619140625,1,0.88
2020-05-15 19:12:03.924 -0400,6007.041962875001,-0.3202362060546875,0.8611907958984375,-0.4234466552734375,1,0.88
2020-05-15 19:12:03.989 -0400,6007.106928875,-0.7952728271484375,0.258697509765625,-0.11602783203125,1,0.88
2020-05-15 19:12:04.053 -0400,6007.171894875,-1.152786254882812,0.353424072265625,0.3062896728515625,1,0.88
2020-05-15 19:12:04.119 -0400,6007.236860875,-0.7795562744140625,0.5804901123046875,-0.0053863525390625,1,0.88
2020-05-15 19:12:04.184 -0400,6007.301826875,-0.4606475830078125,4.52264404296875,-1.122467041015625,1,0.88
2020-05-15 19:12:04.248 -0400,6007.366792875,1.284530639648438,2.44573974609375,-0.6019439697265625,1,0.88
2020-05-15 19:12:04.314 -0400,6007.431758875,0.7207183837890625,0.4205780029296875,-0.0667572021484375,1,0.88
2020-05-15 19:12:04.379 -0400,6007.496724875,0.93096923828125,-0.62335205078125,0.2722320556640625,1,0.88
2020-05-15 19:12:04.443 -0400,6007.561690875001,0.8342742919921875,-0.5566253662109375,0.2108154296875,1,0.88
2020-05-15 19:12:04.509 -0400,6007.626656875001,0.9440460205078125,0.4110565185546875,-0.4288330078125,1,0.88
2020-05-15 19:12:04.573 -0400,6007.691621875,1.128204345703125,3.370758056640625,-0.940948486328125,1,0.88
2020-05-15 19:12:04.638 -0400,6007.756587875,0.358673095703125,2.209747314453125,-1.053253173828125,1,0.88
2020-05-15 19:12:04.703 -0400,6007.821553625,-0.4599456787109375,0.64471435546875,-0.20196533203125,1,0.88
2020-05-15 19:12:04.768 -0400,6007.886519625001,-1.509933471679688,0.334259033203125,0.1781158447265625,1,0.88
2020-05-15 19:12:04.833 -0400,6007.951485625001,-0.9877471923828125,0.260009765625,0.239410400390625,1,0.88
2020-05-15 19:12:04.898 -0400,6008.016451625001,-0.4185028076171875,1.2567138671875,-0.623809814453125,1,0.88
2020-05-15 19:12:04.963 -0400,6008.081417625001,1.194442749023438,4.599288940429688,-1.376861572265625,1,0.88
2020-05-15 19:12:05.028 -0400,6008.146383625,0.5996856689453125,1.445953369140625,-0.4919281005859375,1,0.88
2020-05-15 19:12:05.093 -0400,6008.211349625,0.5194091796875,0.2039642333984375,0.059417724609375,1,0.88
2020-05-15 19:12:05.158 -0400,6008.276314625,0.9170074462890625,-0.82720947265625,0.2827301025390625,1,0.88
2020-05-15 19:12:05.223 -0400,6008.341280625001,0.9497528076171875,-0.3389892578125,0.138336181640625,1,0.88
2020-05-15 19:12:05.291 -0400,6008.406246625001,1.172744750976562,1.048294067382812,-0.655487060546875,1,0.88
2020-05-15 19:12:05.353 -0400,6008.471212625001,1.1531982421875,3.696701049804688,-1.029922485351562,1,0.88
2020-05-15 19:12:05.418 -0400,6008.536178625001,0.345672607421875,2.184982299804688,-1.164932250976562,1,0.88
2020-05-15 19:12:05.483 -0400,6008.601144625,-0.6438446044921875,0.3471527099609375,-0.068389892578125,1,0.88
2020-05-15 19:12:05.548 -0400,6008.666110625,-1.1654052734375,0.2002716064453125,0.1091461181640625,1,0.88
2020-05-15 19:12:05.613 -0400,6008.731075625001,-1.038986206054688,0.1114654541015625,0.2885589599609375,1,0.88
2020-05-15 19:12:05.678 -0400,6008.796041125001,-0.7052764892578125,2.202041625976562,-0.5105743408203125,1,0.88
2020-05-15 19:12:05.743 -0400,6008.861007125,2.178421020507812,4.153213500976562,-1.413375854492188,1,0.88
2020-05-15 19:12:05.808 -0400,6008.925973125,0.6469879150390625,1.105148315429688,-0.477813720703125,1,0.88
2020-05-15 19:12:05.873 -0400,6008.990939125,0.784912109375,-0.248016357421875,0.126983642578125,1,0.88
2020-05-15 19:12:05.938 -0400,6009.055905125,0.950225830078125,-0.9786376953125,0.31011962890625,1,0.88
2020-05-15 19:12:06.002 -0400,6009.120870125001,0.939056396484375,0.072723388671875,0.028411865234375,1,0.88
2020-05-15 19:12:06.068 -0400,6009.185836125001,0.94122314453125,2.539260864257812,-0.6545257568359375,1,0.88
2020-05-15 19:12:06.132 -0400,6009.250802125001,0.4789886474609375,2.907791137695312,-1.394805908203125,1,0.88
2020-05-15 19:12:06.198 -0400,6009.315768125,-0.1361846923828125,0.8746490478515625,-0.61614990234375,1,0.88
2020-05-15 19:12:06.262 -0400,6009.380734125,-0.4792938232421875,0.215911865234375,-0.3300628662109375,1,0.88
2020-05-15 19:12:06.328 -0400,6009.445700125,-1.081817626953125,0.3717041015625,0.0054168701171875,1,0.88
2020-05-15 19:12:06.392 -0400,6009.510665125001,-0.5887298583984375,0.4598846435546875,0.0056915283203125,1,0.88
2020-05-15 19:12:06.459 -0400,6009.575631125001,-0.7938079833984375,3.18115234375,-2.01544189453125,1,0.88
2020-05-15 19:12:06.522 -0400,6009.640597125001,1.156295776367188,2.192825317382812,-1.038925170898438,1,0.88
2020-05-15 19:12:06.587 -0400,6009.705563125,0.6939239501953125,0.5843048095703125,-0.2119598388671875,1,0.88
2020-05-15 19:12:06.652 -0400,6009.770529125,0.8608245849609375,-0.59429931640625,0.3436737060546875,1,0.88
2020-05-15 19:12:06.717 -0400,6009.835494416667,1.045684814453125,-0.4059600830078125,0.26849365234375,1,0.88
2020-05-15 19:12:06.782 -0400,6009.900460416667,0.9362335205078125,0.02362060546875,-0.0158538818359375,1,0.88
2020-05-15 19:12:06.847 -0400,6009.965426416667,1.072784423828125,2.832443237304688,-0.37908935546875,1,0.88
2020-05-15 19:12:06.912 -0400,6010.030392416667,0.9222259521484375,2.837875366210938,-1.264434814453125,1,0.88
2020-05-15 19:12:06.977 -0400,6010.095357416667,-0.205596923828125,1.16534423828125,-0.2743682861328125,1,0.88
2020-05-15 19:12:07.042 -0400,6010.160323416667,-1.153152465820312,0.284912109375,0.1112213134765625,1,0.88
2020-05-15 19:12:07.107 -0400,6010.225289416667,-1.297805786132812,0.1782684326171875,0.2883148193359375,1,0.88
2020-05-15 19:12:07.172 -0400,6010.290255416667,-0.5449066162109375,0.5471038818359375,-0.017181396484375,1,0.88
2020-05-15 19:12:07.237 -0400,6010.355221416667,-0.381103515625,4.588424682617188,-0.927520751953125,1,0.88
2020-05-15 19:12:07.302 -0400,6010.420186416667,1.704010009765625,2.054534912109375,-0.2017669677734375,1,0.88
2020-05-15 19:12:07.377 -0400,6010.485152416667,0.898193359375,0.3884124755859375,-0.105743408203125,1,0.88
2020-05-15 19:12:07.432 -0400,6010.550118416667,0.9781341552734375,-0.907867431640625,0.1506500244140625,1,0.88
2020-05-15 19:12:07.497 -0400,6010.615084416667,0.8247528076171875,-0.5876312255859375,0.1699676513671875,1,0.88
2020-05-15 19:12:07.562 -0400,6010.680049416667,0.7162017822265625,0.4129180908203125,-0.2234954833984375,1,0.88
2020-05-15 19:12:07.627 -0400,6010.745015416667,0.816162109375,3.554977416992188,-0.66827392578125,1,0.88
2020-05-15 19:12:07.692 -0400,6010.809981875001,0.33697509765625,2.596908569335938,-0.9639129638671875,1,0.88
2020-05-15 19:12:07.757 -0400,6010.874947875001,-0.321746826171875,0.5343780517578125,-0.2255401611328125,1,0.88
2020-05-15 19:12:07.821 -0400,6010.939912875,-0.97552490234375,0.0660858154296875,0.0380859375,1,0.88
2020-05-15 19:12:07.887 -0400,6011.004878875,-0.98663330078125,-0.03582763671875,0.196533203125,1,0.88
2020-05-15 19:12:07.951 -0400,6011.069844875,-0.5887908935546875,1.361160278320312,-0.297760009765625,1,0.88
2020-05-15 19:12:08.017 -0400,6011.134810875001,0.9336090087890625,4.176925659179688,-0.576568603515625,1,0.88
2020-05-15 19:12:08.082 -0400,6011.199775875,0.7999267578125,1.723831176757812,-0.081085205078125,1,0.88
2020-05-15 19:12:08.146 -0400,6011.264741875,0.593994140625,0.054962158203125,-0.0581207275390625,1,0.88
2020-05-15 19:12:08.211 -0400,6011.329707875,0.7849578857421875,-0.813018798828125,0.2608489990234375,1,0.88
2020-05-15 19:12:08.277 -0400,6011.394673875,0.8582916259765625,-0.2317047119140625,0.166961669921875,1,0.88
2020-05-15 19:12:08.342 -0400,6011.459638875001,0.9415283203125,1.261367797851562,-0.53057861328125,1,0.88
2020-05-15 19:12:08.407 -0400,6011.524604875,0.928314208984375,3.472183227539062,-0.678741455078125,1,0.88
2020-05-15 19:12:08.471 -0400,6011.589570875,0.0790252685546875,1.754486083984375,-0.6580047607421875,1,0.88
2020-05-15 19:12:08.536 -0400,6011.654535875,-0.408843994140625,0.3777923583984375,-0.075469970703125,1,0.88
2020-05-15 19:12:08.601 -0400,6011.719501875001,-1.044906616210938,0.1112518310546875,0.1451416015625,1,0.88
2020-05-15 19:12:08.666 -0400,6011.784467875001,-0.9283905029296875,0.4479827880859375,0.140960693359375,1,0.88
2020-05-15 19:12:08.731 -0400,6011.849433,-0.7828216552734375,2.180313110351562,-0.404541015625,1,0.88
2020-05-15 19:12:08.796 -0400,6011.914398000001,1.465560913085938,4.071884155273438,-0.8090362548828125,1,0.88
2020-05-15 19:12:08.861 -0400,6011.979364000001,0.889892578125,1.113662719726562,-0.0026397705078125,1,0.88
2020-05-15 19:12:08.926 -0400,6012.044330000001,0.7110137939453125,-0.23150634765625,0.041259765625,1,0.88
2020-05-15 19:12:08.991 -0400,6012.109295,0.88934326171875,-0.6483306884765625,0.176910400390625,1,0.88
2020-05-15 19:12:09.056 -0400,6012.174261,0.72064208984375,-0.1428985595703125,0.024169921875,1,0.88
2020-05-15 19:12:09.121 -0400,6012.239227,0.7342987060546875,1.542572021484375,-0.594573974609375,1,0.88
2020-05-15 19:12:09.186 -0400,6012.304192000001,0.711273193359375,3.370147705078125,-1.219131469726562,1,0.88
2020-05-15 19:12:09.251 -0400,6012.369158,-0.06463623046875,0.9735260009765625,-0.9234161376953125,1,0.88
2020-05-15 19:12:09.316 -0400,6012.434124,-0.6340179443359375,0.0120086669921875,-0.0172271728515625,1,0.88
2020-05-15 19:12:09.387 -0400,6012.499089,-1.466323852539062,0.3119354248046875,0.4147796630859375,1,0.88
2020-05-15 19:12:09.446 -0400,6012.564055000001,-0.7158660888671875,1.013351440429688,0.1869049072265625,1,0.88
2020-05-15 19:12:09.511 -0400,6012.629021000001,-0.5572357177734375,3.32373046875,-0.4889984130859375,1,0.88
2020-05-15 19:12:09.576 -0400,6012.693987000001,0.886688232421875,2.997970581054688,-0.419525146484375,1,0.88
2020-05-15 19:12:09.641 -0400,6012.758952,0.4285888671875,0.733673095703125,-0.0746002197265625,1,0.88
2020-05-15 19:12:09.706 -0400,6012.823918625,0.72113037109375,-0.3790740966796875,0.0348052978515625,1,0.88
2020-05-15 19:12:09.771 -0400,6012.888884625,0.872314453125,-0.526824951171875,0.136138916015625,1,0.88
2020-05-15 19:12:09.836 -0400,6012.953849625001,0.841522216796875,0.0550079345703125,-0.16912841796875,1,0.88
2020-05-15 19:12:09.900 -0400,6013.018815625001,0.8020477294921875,2.090545654296875,-0.4246368408203125,1,0.88
2020-05-15 19:12:09.965 -0400,6013.083780625,0.5857391357421875,3.187759399414062,-0.8711090087890625,1,0.88
2020-05-15 19:12:10.030 -0400,6013.148746625,-0.0096435546875,1.223114013671875,-0.3441619873046875,1,0.88
2020-05-15 19:12:10.096 -0400,6013.213712625,-0.6423187255859375,0.2158966064453125,-0.0081024169921875,1,0.88
2020-05-15 19:12:10.160 -0400,6013.278677625,-1.3277587890625,0.095672607421875,0.1460418701171875,1,0.88
2020-05-15 19:12:10.225 -0400,6013.343643625,-0.663360595703125,0.9719085693359375,-0.1974029541015625,1,0.88
2020-05-15 19:12:10.290 -0400,6013.408609625,-0.0113372802734375,4.15216064453125,-1.19854736328125,1,0.88
2020-05-15 19:12:10.355 -0400,6013.473574625001,0.7093353271484375,2.267013549804688,-0.51806640625,1,0.88
2020-05-15 19:12:10.420 -0400,6013.538540625001,0.4340057373046875,0.534576416015625,-0.0172576904296875,1,0.88
2020-05-15 19:12:10.497 -0400,6013.603506625001,0.793212890625,-0.7167510986328125,0.1700286865234375,1,0.88
2020-05-15 19:12:10.550 -0400,6013.668471625,0.8957061767578125,-0.5000762939453125,0.2025146484375,1,0.88
2020-05-15 19:12:10.615 -0400,6013.733437625,0.785400390625,0.1819000244140625,-0.2426300048828125,1,0.88
2020-05-15 19:12:10.680 -0400,6013.798403000001,0.97515869140625,2.983367919921875,-0.9023590087890625,1,0.88
2020-05-15 19:12:10.745 -0400,6013.863368,0.432403564453125,2.787261962890625,-0.7258148193359375,1,0.88
2020-05-15 19:12:10.810 -0400,6013.928334,-0.19921875,1.1473388671875,-0.15679931640625,1,0.88
2020-05-15 19:12:10.875 -0400,6013.993299000001,-0.7926788330078125,0.3595428466796875,0.047607421875,1,0.88
2020-05-15 19:12:10.940 -0400,6014.058265000001,-1.241363525390625,0.1474456787109375,0.254638671875,1,0.88
2020-05-15 19:12:11.005 -0400,6014.123231,-0.4930267333984375,0.8122406005859375,0.0399932861328125,1,0.88
2020-05-15 19:12:11.070 -0400,6014.188196,-0.4256134033203125,3.713272094726562,-0.9295806884765625,1,0.88
2020-05-15 19:12:11.135 -0400,6014.253162,0.6576385498046875,2.649734497070312,-0.6016082763671875,1,0.88
2020-05-15 19:12:11.200 -0400,6014.318127,0.50054931640625,0.44232177734375,-0.060943603515625,1,0.88
2020-05-15 19:12:11.276 -0400,6014.383093,1.045883178710938,-0.68170166015625,0.2485504150390625,1,0.88
2020-05-15 19:12:11.330 -0400,6014.448059,1.112396240234375,-0.430999755859375,0.152313232421875,1,0.88
2020-05-15 19:12:11.395 -0400,6014.513024000001,0.8542633056640625,0.5166778564453125,-0.411285400390625,1,0.88
2020-05-15 19:12:11.460 -0400,6014.577990000001,0.6905364990234375,3.621719360351562,-0.6961822509765625,1,0.88
2020-05-15 19:12:11.525 -0400,6014.642955,0.2034149169921875,2.450881958007812,-1.104019165039062,1,0.88
2020-05-15 19:12:11.590 -0400,6014.707921,-0.3138275146484375,0.689178466796875,-0.1091156005859375,1,0.88
2020-05-15 19:12:11.655 -0400,6014.772887,-0.8690032958984375,0.172149658203125,0.1131744384765625,1,0.88
2020-05-15 19:12:11.719 -0400,6014.837852791667,-0.9521636962890625,0.0482635498046875,0.21826171875,1,0.88
2020-05-15 19:12:11.785 -0400,6014.902818791667,-0.4630126953125,1.167999267578125,-0.295318603515625,1,0.88
2020-05-15 19:12:11.849 -0400,6014.967783791667,0.130584716796875,4.525543212890625,-0.628509521484375,1,0.88
2020-05-15 19:12:11.914 -0400,6015.032749791667,0.8852691650390625,2.039764404296875,-0.16802978515625,1,0.88
2020-05-15 19:12:11.979 -0400,6015.097714791667,0.7804107666015625,0.1887359619140625,-0.077911376953125,1,0.88
2020-05-15 19:12:12.045 -0400,6015.162680791667,0.8685150146484375,-0.8424835205078125,0.17498779296875,1,0.88
2020-05-15 19:12:12.109 -0400,6015.227646791667,0.8849639892578125,-0.3294830322265625,0.131195068359375,1,0.88
2020-05-15 19:12:12.174 -0400,6015.292611791667,0.8343658447265625,0.592071533203125,-0.5098876953125,1,0.88
2020-05-15 19:12:12.239 -0400,6015.357577791667,1.085922241210938,3.2137451171875,-0.80145263671875,1,0.88
2020-05-15 19:12:12.304 -0400,6015.422542791667,0.1374053955078125,2.481475830078125,-1.01214599609375,1,0.88
2020-05-15 19:12:12.369 -0400,6015.487508791667,-0.4361572265625,0.5251922607421875,-0.5456085205078125,1,0.88
2020-05-15 19:12:12.434 -0400,6015.552473791667,-0.934783935546875,-0.1105194091796875,0.070098876953125,1,0.88
2020-05-15 19:12:12.499 -0400,6015.617439791667,-0.883544921875,0.4932098388671875,0.1186981201171875,1,0.88
2020-05-15 19:12:12.564 -0400,6015.682404791667,-0.4769134521484375,0.9406585693359375,-0.5761871337890625,1,0.88
2020-05-15 19:12:12.629 -0400,6015.747370791667,1.049850463867188,4.080230712890625,-1.532363891601562,1,0.88
2020-05-15 19:12:12.694 -0400,6015.812334916667,1.008071899414062,1.579345703125,-0.7933197021484375,1,0.88
2020-05-15 19:12:12.759 -0400,6015.877300916667,0.585601806640625,0.1174774169921875,-0.0992431640625,1,0.88
2020-05-15 19:12:12.824 -0400,6015.942265916667,0.7581329345703125,-0.9102020263671875,0.561859130859375,1,0.88
2020-05-15 19:12:12.889 -0400,6016.007231916667,1.066940307617188,-0.3712005615234375,0.1027069091796875,1,0.88
2020-05-15 19:12:12.954 -0400,6016.072197916667,1.166168212890625,0.97119140625,-0.453857421875,1,0.88
2020-05-15 19:12:13.019 -0400,6016.137162916667,1.477462768554688,3.169509887695312,-0.918975830078125,1,0.88
2020-05-15 19:12:13.084 -0400,6016.202128916667,0.2480621337890625,2.248443603515625,-0.4569091796875,1,0.88
2020-05-15 19:12:13.149 -0400,6016.267093916667,-0.4705657958984375,0.5099334716796875,0.02923583984375,1,0.88
2020-05-15 19:12:13.214 -0400,6016.332059916667,-1.032730102539062,0.10302734375,0.2404327392578125,1,0.88
2020-05-15 19:12:13.279 -0400,6016.397024916667,-0.868133544921875,0.083709716796875,0.1870269775390625,1,0.88
2020-05-15 19:12:13.344 -0400,6016.461990916667,-0.665496826171875,1.800140380859375,-0.06463623046875,1,0.88
2020-05-15 19:12:13.409 -0400,6016.526955916667,1.34735107421875,4.213607788085938,-0.6811981201171875,1,0.88
2020-05-15 19:12:13.474 -0400,6016.591921916667,0.878509521484375,1.824737548828125,-0.1649322509765625,1,0.88
2020-05-15 19:12:13.538 -0400,6016.656886916667,0.7359466552734375,-0.2451019287109375,-0.0003814697265625,1,0.88
2020-05-15 19:12:13.604 -0400,6016.721852916667,1.005584716796875,-0.7638397216796875,0.1704864501953125,1,0.88
2020-05-15 19:12:13.668 -0400,6016.786817916667,0.973480224609375,-0.2967987060546875,0.1418914794921875,1,0.88
2020-05-15 19:12:13.734 -0400,6016.851783416667,0.9836273193359375,1.321746826171875,-0.574920654296875,1,0.88
2020-05-15 19:12:13.798 -0400,6016.916749416667,0.9636077880859375,3.5482177734375,-0.942352294921875,1,0.88
2020-05-15 19:12:13.863 -0400,6016.981714416667,0.025360107421875,2.030029296875,-0.7491455078125,1,0.88
2020-05-15 19:12:13.928 -0400,6017.046680416667,-0.452056884765625,0.306121826171875,-0.123382568359375,1,0.88
2020-05-15 19:12:13.994 -0400,6017.111645416667,-1.17523193359375,0.178131103515625,0.089752197265625,1,0.88
2020-05-15 19:12:14.058 -0400,6017.176611416667,-0.8368377685546875,0.5088348388671875,0.13531494140625,1,0.88
2020-05-15 19:12:14.123 -0400,6017.241576416667,-0.7756805419921875,1.905380249023438,-0.702728271484375,1,0.88
2020-05-15 19:12:14.188 -0400,6017.306542416667,1.425888061523438,3.923553466796875,-1.1502685546875,1,0.88
2020-05-15 19:12:14.253 -0400,6017.371507416667,1.032363891601562,1.412841796875,-0.2463226318359375,1,0.88
2020-05-15 19:12:14.318 -0400,6017.436473416667,0.7346649169921875,0.1147308349609375,-0.0846710205078125,1,0.88
2020-05-15 19:12:14.383 -0400,6017.501438416667,0.9535064697265625,-0.8585357666015625,0.289947509765625,1,0.88
2020-05-15 19:12:14.448 -0400,6017.566404416667,0.98223876953125,-0.1970672607421875,0.1270904541015625,1,0.88
2020-05-15 19:12:14.513 -0400,6017.631369416667,0.774383544921875,1.430343627929688,-0.612823486328125,1,0.88
2020-05-15 19:12:14.578 -0400,6017.696334416667,1.207122802734375,3.535324096679688,-1.69866943359375,1,0.88
2020-05-15 19:12:14.643 -0400,6017.761300416667,0.0014801025390625,1.575881958007812,-0.7327728271484375,1,0.88
2020-05-15 19:12:14.708 -0400,6017.826265875,-0.56170654296875,0.299468994140625,-0.318359375,1,0.88
2020-05-15 19:12:14.773 -0400,6017.891231875001,-0.9111480712890625,0.099029541015625,-0.0638885498046875,1,0.88
2020-05-15 19:12:14.838 -0400,6017.956196875,-0.972259521484375,0.2775115966796875,0.035430908203125,1,0.88
2020-05-15 19:12:14.903 -0400,6018.021162875,-0.734405517578125,1.854293823242188,-0.5620880126953125,1,0.88
2020-05-15 19:12:14.968 -0400,6018.086127875001,1.70751953125,4.8564453125,-1.15948486328125,1,0.88
2020-05-15 19:12:15.033 -0400,6018.151092875,0.7736968994140625,1.1318359375,-0.290130615234375,1,0.88
2020-05-15 19:12:15.098 -0400,6018.216058875,0.9233551025390625,-0.154296875,-0.0137481689453125,1,0.88
2020-05-15 19:12:15.163 -0400,6018.281023875001,0.978271484375,-0.912933349609375,0.352508544921875,1,0.88
2020-05-15 19:12:15.228 -0400,6018.345989875001,0.8804931640625,-0.197540283203125,0.077911376953125,1,0.88
2020-05-15 19:12:15.293 -0400,6018.410954875,1.076065063476562,2.25225830078125,-0.450592041015625,1,0.88
2020-05-15 19:12:15.358 -0400,6018.475920875,0.918365478515625,3.517135620117188,-1.171630859375,1,0.88
2020-05-15 19:12:15.423 -0400,6018.540885875001,0.0707550048828125,1.31329345703125,-0.3591156005859375,1,0.88
2020-05-15 19:12:15.487 -0400,6018.605850875,-0.4997711181640625,0.2633514404296875,-0.1034393310546875,1,0.88
2020-05-15 19:12:15.575 -0400,6018.670816875,-0.890777587890625,0.0635833740234375,0.27044677734375,1,0.88
2020-05-15 19:12:15.618 -0400,6018.735781875001,-0.9285125732421875,0.4931488037109375,0.1854248046875,1,0.88
2020-05-15 19:12:15.683 -0400,6018.800747875001,-0.7481231689453125,1.799514770507812,-0.31353759765625,1,0.88
2020-05-15 19:12:15.747 -0400,6018.865712875,1.690292358398438,4.867828369140625,-1.051925659179688,1,0.88
2020-05-15 19:12:15.812 -0400,6018.930677875001,0.9981842041015625,1.3662109375,-0.270538330078125,1,0.88
2020-05-15 19:12:15.877 -0400,6018.995643875,0.749298095703125,-0.044769287109375,-0.165679931640625,1,0.88
2020-05-15 19:12:15.942 -0400,6019.060608875,0.707183837890625,-0.971466064453125,0.0634307861328125,1,0.88
2020-05-15 19:12:16.007 -0400,6019.125573875001,0.8418731689453125,-0.3569488525390625,0.131378173828125,1,0.88
2020-05-15 19:12:16.072 -0400,6019.190539875,0.9333038330078125,0.939422607421875,-0.395782470703125,1,0.88
2020-05-15 19:12:16.137 -0400,6019.255504875,1.0791015625,3.283584594726562,-0.7883148193359375,1,0.88
2020-05-15 19:12:16.202 -0400,6019.320469875001,0.0457611083984375,2.2764892578125,-0.762847900390625,1,0.88
2020-05-15 19:12:16.267 -0400,6019.385435875,-0.4380340576171875,0.569580078125,-0.370849609375,1,0.88
2020-05-15 19:12:16.355 -0400,6019.450400875,-1.054107666015625,0.2827606201171875,-0.0587005615234375,1,0.88
2020-05-15 19:12:16.397 -0400,6019.515366875,-0.8166351318359375,0.477264404296875,0.1015777587890625,1,0.88
2020-05-15 19:12:16.462 -0400,6019.580331875,-0.46307373046875,1.368728637695312,-0.4873504638671875,1,0.88
2020-05-15 19:12:16.527 -0400,6019.645296875,1.102783203125,4.260162353515625,-1.412582397460938,1,0.88
2020-05-15 19:12:16.592 -0400,6019.710262875001,0.7328643798828125,1.559051513671875,-0.3997955322265625,1,0.88
2020-05-15 19:12:16.657 -0400,6019.775227875,0.7158966064453125,-0.0612335205078125,0.0056915283203125,1,0.88
2020-05-15 19:12:16.722 -0400,6019.840191625,1.127197265625,-0.9443817138671875,0.2982635498046875,1,0.88
2020-05-15 19:12:16.787 -0400,6019.905157625,1.137832641601562,-0.3532257080078125,0.13238525390625,1,0.88
2020-05-15 19:12:16.852 -0400,6019.970122625,1.361068725585938,2.391067504882812,-0.5460205078125,1,0.88
2020-05-15 19:12:16.917 -0400,6020.035087625,1.304763793945312,3.123275756835938,-1.146286010742188,1,0.88
2020-05-15 19:12:16.982 -0400,6020.100053625,0.1414947509765625,1.413375854492188,-0.207305908203125,1,0.88
2020-05-15 19:12:17.046 -0400,6020.165018625001,-0.9030609130859375,0.6004638671875,0.0624237060546875,1,0.88
2020-05-15 19:12:17.112 -0400,6020.229983625,-1.357666015625,0.470001220703125,0.2909393310546875,1,0.88
2020-05-15 19:12:17.177 -0400,6020.294949625,-0.5163116455078125,0.7641143798828125,0.0341033935546875,1,0.88
2020-05-15 19:12:17.242 -0400,6020.359914625001,-0.139129638671875,3.644989013671875,-0.62109375,1,0.88
2020-05-15 19:12:17.307 -0400,6020.424879625,1.298385620117188,3.03509521484375,-0.505584716796875,1,0.88
2020-05-15 19:12:17.372 -0400,6020.489845625,0.58404541015625,0.7252960205078125,-0.04913330078125,1,0.88
2020-05-15 19:12:17.436 -0400,6020.554810625001,0.7566986083984375,-0.4936981201171875,0.04931640625,1,0.88
2020-05-15 19:12:17.502 -0400,6020.619775625,0.7207489013671875,-0.5888214111328125,0.0645751953125,1,0.88
2020-05-15 19:12:17.566 -0400,6020.684740625001,0.870025634765625,-0.1239471435546875,0.0681304931640625,1,0.88
2020-05-15 19:12:17.632 -0400,6020.749706625001,1.338668823242188,2.51220703125,-0.4509735107421875,1,0.88
2020-05-15 19:12:17.696 -0400,6020.814672250001,0.5866546630859375,3.013336181640625,-0.98455810546875,1,0.88
2020-05-15 19:12:17.761 -0400,6020.87963725,-0.2118072509765625,1.20147705078125,-0.27105712890625,1,0.88
2020-05-15 19:12:17.826 -0400,6020.94460325,-0.8348846435546875,0.3173828125,-0.0269775390625,1,0.88
2020-05-15 19:12:17.891 -0400,6021.00956825,-1.003341674804688,0.4983062744140625,-0.001190185546875,1,0.88
2020-05-15 19:12:17.956 -0400,6021.07453325,-0.509307861328125,0.498321533203125,-0.013214111328125,1,0.88
2020-05-15 19:12:18.021 -0400,6021.13949925,-0.5611419677734375,3.750823974609375,-0.8346405029296875,1,0.88
2020-05-15 19:12:18.086 -0400,6021.20446425,0.74951171875,2.75494384765625,-0.77447509765625,1,0.88
2020-05-15 19:12:18.151 -0400,6021.26942925,0.616241455078125,0.50616455078125,-0.081573486328125,1,0.88
2020-05-15 19:12:18.216 -0400,6021.334394250001,0.7698974609375,-0.3467254638671875,0.0623779296875,1,0.88
2020-05-15 19:12:18.281 -0400,6021.39936025,0.7677459716796875,-0.5770721435546875,0.226318359375,1,0.88
2020-05-15 19:12:18.346 -0400,6021.46432525,0.975555419921875,0.2922821044921875,-0.1928253173828125,1,0.88
2020-05-15 19:12:18.411 -0400,6021.52929025,0.729949951171875,2.887924194335938,-0.5771636962890625,1,0.88
2020-05-15 19:12:18.476 -0400,6021.59425525,0.364898681640625,2.573165893554688,-0.9223785400390625,1,0.88
2020-05-15 19:12:18.541 -0400,6021.65922125,-0.252777099609375,0.817657470703125,-0.1762237548828125,1,0.88
2020-05-15 19:12:18.606 -0400,6021.72418625,-0.65142822265625,0.19482421875,0.0811309814453125,1,0.88
2020-05-15 19:12:18.671 -0400,6021.78915125,-1.121002197265625,0.3583221435546875,0.083282470703125,1,0.88
2020-05-15 19:12:18.736 -0400,6021.854116916667,-0.62750244140625,0.61749267578125,0.055511474609375,1,0.88
2020-05-15 19:12:18.801 -0400,6021.919082916667,-0.8188018798828125,3.174896240234375,-0.8417510986328125,1,0.88
2020-05-15 19:12:18.866 -0400,6021.984047916667,0.9837646484375,3.331451416015625,-0.9457855224609375,1,0.88
2020-05-15 19:12:18.931 -0400,6022.049012916667,0.562591552734375,0.77508544921875,-0.1669464111328125,1,0.88
2020-05-15 19:12:18.996 -0400,6022.113977916667,0.6699981689453125,-0.1269073486328125,-0.0468902587890625,1,0.88
2020-05-15 19:12:19.061 -0400,6022.178943916667,0.933807373046875,-0.6368865966796875,0.24212646484375,1,0.88
2020-05-15 19:12:19.126 -0400,6022.243908916667,0.8109588623046875,-0.02337646484375,-0.06341552734375,1,0.88
2020-05-15 19:12:19.191 -0400,6022.308873916667,0.54638671875,2.491195678710938,-0.4179534912109375,1,0.88
2020-05-15 19:12:19.258 -0400,6022.373838916667,0.18804931640625,3.064117431640625,-1.104888916015625,1,0.88
2020-05-15 19:12:19.321 -0400,6022.438804916667,-0.375030517578125,1.119522094726562,-0.4180755615234375,1,0.88
2020-05-15 19:12:19.385 -0400,6022.503769916667,-0.907470703125,0.0500335693359375,-0.0925140380859375,1,0.88
2020-05-15 19:12:19.450 -0400,6022.568734916667,-1.106948852539062,-0.0277862548828125,0.24176025390625,1,0.88
2020-05-15 19:12:19.515 -0400,6022.633699916667,-0.5247344970703125,1.029464721679688,-0.25482177734375,1,0.88
2020-05-15 19:12:19.580 -0400,6022.698664916667,-0.170684814453125,3.564865112304688,-0.6533203125,1,0.88
2020-05-15 19:12:19.645 -0400,6022.763630916667,0.4315948486328125,2.326568603515625,-0.506622314453125,1,0.88
2020-05-15 19:12:19.710 -0400,6022.82859525,0.3312835693359375,0.57647705078125,-0.083404541015625,1,0.88
2020-05-15 19:12:19.775 -0400,6022.893560250001,0.6459503173828125,-0.5269012451171875,0.0316925048828125,1,0.88
2020-05-15 19:12:19.840 -0400,6022.95852525,0.6731719970703125,-0.5487213134765625,0.1880340576171875,1,0.88
2020-05-15 19:12:19.905 -0400,6023.023490250001,1.084152221679688,0.07061767578125,-0.0208282470703125,1,0.88
2020-05-15 19:12:19.970 -0400,6023.08845625,1.530746459960938,2.545257568359375,-0.6007843017578125,1,0.88
2020-05-15 19:12:20.035 -0400,6023.15342125,0.5471343994140625,2.846298217773438,-0.888519287109375,1,0.88
2020-05-15 19:12:20.100 -0400,6023.218386250001,-0.095123291015625,1.34649658203125,-0.367156982421875,1,0.88
2020-05-15 19:12:20.165 -0400,6023.28335125,-0.675506591796875,0.2207489013671875,-0.1468658447265625,1,0.88
2020-05-15 19:12:20.231 -0400,6023.348316250001,-0.878814697265625,0.163818359375,0.1588897705078125,1,0.88
2020-05-15 19:12:20.295 -0400,6023.413282250001,-0.588226318359375,0.4056396484375,0.0775146484375,1,0.88
2020-05-15 19:12:20.360 -0400,6023.47824725,-0.759796142578125,2.815704345703125,-0.4589691162109375,1,0.88
2020-05-15 19:12:20.425 -0400,6023.543212250001,1.373916625976562,3.312469482421875,-0.2473297119140625,1,0.88
2020-05-15 19:12:20.490 -0400,6023.60817725,0.679931640625,0.9649810791015625,-0.0565185546875,1,0.88
2020-05-15 19:12:20.555 -0400,6023.673142250001,0.6440887451171875,-0.4430084228515625,0.0346832275390625,1,0.88
2020-05-15 19:12:20.620 -0400,6023.73810725,0.978973388671875,-0.6741485595703125,0.0664825439453125,1,0.88
2020-05-15 19:12:20.685 -0400,6023.80307325,0.8466339111328125,0.0943450927734375,0.0294647216796875,1,0.88
2020-05-15 19:12:20.750 -0400,6023.86803725,0.528045654296875,2.056869506835938,-0.7015838623046875,1,0.88
2020-05-15 19:12:20.815 -0400,6023.933002250001,1.331207275390625,2.490310668945312,-1.2169189453125,1,0.88
2020-05-15 19:12:20.880 -0400,6023.99796725,-0.0667877197265625,0.89776611328125,-0.4871826171875,1,0.88
2020-05-15 19:12:20.945 -0400,6024.062932250001,-0.7221832275390625,0.445281982421875,-0.033294677734375,1,0.88
2020-05-15 19:12:21.010 -0400,6024.12789725,-1.079360961914062,0.4924163818359375,0.002716064453125,1,0.88
2020-05-15 19:12:21.075 -0400,6024.19286225,-0.551788330078125,0.5264129638671875,-0.135406494140625,1,0.88
2020-05-15 19:12:21.140 -0400,6024.257828250001,-0.1595916748046875,2.952423095703125,-1.59576416015625,1,0.88
2020-05-15 19:12:21.204 -0400,6024.32279325,1.160934448242188,2.7933349609375,-0.9019927978515625,1,0.88
2020-05-15 19:12:21.270 -0400,6024.38775825,0.5731201171875,0.79833984375,-0.3238983154296875,1,0.88
2020-05-15 19:12:21.334 -0400,6024.45272325,0.915618896484375,-0.416900634765625,0.2409820556640625,1,0.88
2020-05-15 19:12:21.400 -0400,6024.51768825,0.854644775390625,-0.6027374267578125,0.2302093505859375,1,0.88
2020-05-15 19:12:21.464 -0400,6024.58265325,0.941741943359375,-0.0572509765625,0.0110015869140625,1,0.88
2020-05-15 19:12:21.529 -0400,6024.64761825,1.020660400390625,2.283538818359375,-0.716583251953125,1,0.88
2020-05-15 19:12:21.594 -0400,6024.71258425,0.40728759765625,3.10333251953125,-0.9483184814453125,1,0.88
2020-05-15 19:12:21.659 -0400,6024.77754925,-0.3120574951171875,1.481002807617188,-0.2734832763671875,1,0.88
2020-05-15 19:12:21.724 -0400,6024.842515750001,-0.7633209228515625,0.1806793212890625,-0.0503997802734375,1,0.88
2020-05-15 19:12:21.790 -0400,6024.90748075,-1.246994018554688,0.2064361572265625,0.2867889404296875,1,0.88
2020-05-15 19:12:21.854 -0400,6024.972445750001,-0.4796905517578125,0.8976898193359375,-0.2530975341796875,1,0.88
2020-05-15 19:12:21.919 -0400,6025.03741075,-0.6564483642578125,3.46923828125,-0.646881103515625,1,0.88
2020-05-15 19:12:21.984 -0400,6025.102375750001,0.7689666748046875,3.069503784179688,-0.5302734375,1,0.88
2020-05-15 19:12:22.049 -0400,6025.16734075,0.574127197265625,0.654205322265625,0.0040283203125,1,0.88
2020-05-15 19:12:22.114 -0400,6025.232305750001,1.121551513671875,-0.58880615234375,0.2118377685546875,1,0.88
2020-05-15 19:12:22.179 -0400,6025.29727075,1.102127075195312,-0.512451171875,0.27325439453125,1,0.88
2020-05-15 19:12:22.244 -0400,6025.36223675,1.024200439453125,0.3995513916015625,-0.2547607421875,1,0.88
2020-05-15 19:12:22.309 -0400,6025.427201750001,0.721099853515625,2.494583129882812,-0.9235992431640625,1,0.88
2020-05-15 19:12:22.374 -0400,6025.49216675,0.432586669921875,2.483123779296875,-1.495468139648438,1,0.88
2020-05-15 19:12:22.439 -0400,6025.557131750001,-0.2812042236328125,1.14312744140625,-0.4982452392578125,1,0.88
2020-05-15 19:12:22.504 -0400,6025.62209675,-0.8518829345703125,0.1245880126953125,-0.0729827880859375,1,0.88
2020-05-15 19:12:22.569 -0400,6025.687061750001,-1.026962280273438,0.1197357177734375,0.201873779296875,1,0.88
2020-05-15 19:12:22.634 -0400,6025.75202675,-0.3900604248046875,0.699493408203125,-0.151275634765625,1,0.88
2020-05-15 19:12:22.699 -0400,6025.81699175,-0.2218017578125,3.142578125,-1.99127197265625,1,0.88
2020-05-15 19:12:22.764 -0400,6025.88195675,1.061660766601562,2.075454711914062,-1.2926025390625,1,0.88
2020-05-15 19:12:22.829 -0400,6025.94692175,0.5728912353515625,0.475372314453125,-0.264984130859375,1,0.88
2020-05-15 19:12:22.894 -0400,6026.01188675,0.728302001953125,-0.457427978515625,0.486572265625,1,0.88
2020-05-15 19:12:22.959 -0400,6026.07685175,0.7624969482421875,-0.2286376953125,0.213470458984375,1,0.88
2020-05-15 19:12:23.024 -0400,6026.141816750001,0.8433837890625,0.017333984375,-0.094879150390625,1,0.88
2020-05-15 19:12:23.089 -0400,6026.20678175,1.275833129882812,2.195526123046875,-1.03497314453125,1,0.88
2020-05-15 19:12:23.153 -0400,6026.271746750001,0.92791748046875,2.944778442382812,-1.28851318359375,1,0.88
2020-05-15 19:12:23.218 -0400,6026.336712750001,-0.170501708984375,1.248062133789062,-0.379852294921875,1,0.88
2020-05-15 19:12:23.283 -0400,6026.40167775,-0.83856201171875,0.2067718505859375,-0.066802978515625,1,0.88
2020-05-15 19:12:23.349 -0400,6026.466642750001,-1.3189697265625,0.189697265625,0.228546142578125,1,0.88
2020-05-15 19:12:23.413 -0400,6026.53160775,-0.7616119384765625,0.9758758544921875,0.0212554931640625,1,0.88
2020-05-15 19:12:23.478 -0400,6026.596572750001,0.402435302734375,4.83966064453125,-0.3381805419921875,1,0.88
2020-05-15 19:12:23.543 -0400,6026.66153775,1.020126342773438,1.88592529296875,-0.194061279296875,1,0.88
2020-05-15 19:12:23.608 -0400,6026.726502750001,0.59405517578125,0.1722259521484375,-0.05950927734375,1,0.88
2020-05-15 19:12:23.673 -0400,6026.79146775,0.8819580078125,-0.597442626953125,0.04412841796875,1,0.88
2020-05-15 19:12:23.738 -0400,6026.856432791667,0.924530029296875,-0.371185302734375,0.2384490966796875,1,0.88
2020-05-15 19:12:23.803 -0400,6026.921397791667,0.8298797607421875,0.24169921875,-0.1200103759765625,1,0.88
2020-05-15 19:12:23.868 -0400,6026.986362791667,0.93206787109375,3.705825805664062,-0.59228515625,1,0.88
2020-05-15 19:12:23.933 -0400,6027.051327791667,0.62255859375,2.157638549804688,-1.238113403320312,1,0.88
2020-05-15 19:12:23.998 -0400,6027.116292791667,-0.3645172119140625,0.85302734375,-0.33477783203125,1,0.88
2020-05-15 19:12:24.063 -0400,6027.181257791667,-0.9150390625,0.1001434326171875,-0.15081787109375,1,0.88
2020-05-15 19:12:24.128 -0400,6027.246222791667,-1.04205322265625,-0.0237579345703125,0.0956573486328125,1,0.88
2020-05-15 19:12:24.193 -0400,6027.311187791667,-0.5612945556640625,1.236236572265625,-0.051544189453125,1,0.88
2020-05-15 19:12:24.258 -0400,6027.376152791667,-0.2068328857421875,4.518646240234375,-0.2809906005859375,1,0.88
2020-05-15 19:12:24.323 -0400,6027.441117791667,0.8597412109375,2.013671875,-0.0528106689453125,1,0.88
2020-05-15 19:12:24.388 -0400,6027.506082791667,0.6523284912109375,0.121856689453125,0.0115966796875,1,0.88
2020-05-15 19:12:24.453 -0400,6027.571047791667,0.78741455078125,-0.7731781005859375,0.1921539306640625,1,0.88
2020-05-15 19:12:24.518 -0400,6027.636012791667,0.8636322021484375,-0.396240234375,0.19134521484375,1,0.88
2020-05-15 19:12:24.582 -0400,6027.700977791667,0.9451751708984375,0.67706298828125,-0.404327392578125,1,0.88
2020-05-15 19:12:24.648 -0400,6027.765942791667,1.012466430664062,3.449249267578125,-0.1904296875,1,0.88
2020-05-15 19:12:24.712 -0400,6027.830907916667,0.1538238525390625,2.635604858398438,-0.58251953125,1,0.88
2020-05-15 19:12:24.778 -0400,6027.895872916667,-0.2306365966796875,0.772308349609375,-0.2012786865234375,1,0.88
2020-05-15 19:12:24.842 -0400,6027.960837916667,-0.7375640869140625,-0.0937042236328125,0.2508087158203125,1,0.88
2020-05-15 19:12:24.907 -0400,6028.025802916667,-0.9084625244140625,-0.0659942626953125,0.3816070556640625,1,0.88
2020-05-15 19:12:24.972 -0400,6028.090767916667,-0.8429412841796875,1.179702758789062,-0.008819580078125,1,0.88
2020-05-15 19:12:25.038 -0400,6028.155732916667,0.311248779296875,3.889617919921875,-0.083709716796875,1,0.88
2020-05-15 19:12:25.103 -0400,6028.220696916667,0.833953857421875,2.451019287109375,-0.09185791015625,1,0.88
2020-05-15 19:12:25.167 -0400,6028.285661916667,0.643646240234375,0.2003021240234375,0.0352783203125,1,0.88
2020-05-15 19:12:25.232 -0400,6028.350626916667,1.010482788085938,-0.643280029296875,0.1748504638671875,1,0.88
2020-05-15 19:12:25.298 -0400,6028.415591916667,0.931640625,-0.5545806884765625,0.185455322265625,1,0.88
2020-05-15 19:12:25.362 -0400,6028.480556916667,0.86846923828125,0.1978912353515625,-0.1132354736328125,1,0.88
2020-05-15 19:12:25.427 -0400,6028.545521916667,0.7633056640625,3.690322875976562,-0.7491912841796875,1,0.88
2020-05-15 19:12:25.492 -0400,6028.610486916667,1.209075927734375,2.2882080078125,-1.811752319335938,1,0.88
2020-05-15 19:12:25.557 -0400,6028.675451916667,-0.1132049560546875,1.187149047851562,-0.3202667236328125,1,0.88
2020-05-15 19:12:25.622 -0400,6028.740416916667,-0.9063873291015625,0.2270050048828125,-0.115570068359375,1,0.88
2020-05-15 19:12:25.687 -0400,6028.805381916667,-1.169677734375,0.28564453125,0.100921630859375,1,0.88
2020-05-15 19:12:25.752 -0400,6028.870346250001,-0.5948486328125,0.7182159423828125,0.08135986328125,1,0.88
2020-05-15 19:12:25.817 -0400,6028.93531125,-0.177520751953125,3.70587158203125,-0.907257080078125,1,0.88
2020-05-15 19:12:25.882 -0400,6029.000276250001,1.47998046875,2.794189453125,-0.435150146484375,1,0.88
2020-05-15 19:12:25.947 -0400,6029.06524125,0.728271484375,0.268402099609375,-0.0715179443359375,1,0.88
2020-05-15 19:12:26.012 -0400,6029.130206250001,0.9256134033203125,-0.5635833740234375,0.1149749755859375,1,0.88
2020-05-15 19:12:26.077 -0400,6029.19517125,0.85009765625,-0.6281585693359375,0.1714324951171875,1,0.88
2020-05-15 19:12:26.142 -0400,6029.260135250001,0.9438018798828125,0.376983642578125,-0.183746337890625,1,0.88
2020-05-15 19:12:26.207 -0400,6029.32510025,0.949005126953125,3.2821044921875,-0.6310577392578125,1,0.88
2020-05-15 19:12:26.272 -0400,6029.390065250001,0.4744110107421875,2.540695190429688,-1.20989990234375,1,0.88
2020-05-15 19:12:26.338 -0400,6029.45503025,-0.228851318359375,0.8836669921875,-0.468353271484375,1,0.88
2020-05-15 19:12:26.402 -0400,6029.519995250001,-0.96295166015625,0.0147552490234375,-0.1797027587890625,1,0.88
2020-05-15 19:12:26.467 -0400,6029.58496025,-1.28350830078125,0.2669677734375,0.2043609619140625,1,0.88
2020-05-15 19:12:26.532 -0400,6029.649925250001,-0.3370208740234375,1.18011474609375,-0.3426055908203125,1,0.88
2020-05-15 19:12:26.597 -0400,6029.71489025,0.370849609375,4.094802856445312,-0.9598236083984375,1,0.88
2020-05-15 19:12:26.661 -0400,6029.779855250001,0.81195068359375,2.02642822265625,-0.4389190673828125,1,0.88
2020-05-15 19:12:26.726 -0400,6029.844820291667,0.4195098876953125,0.2111663818359375,-0.077972412109375,1,0.88
2020-05-15 19:12:26.791 -0400,6029.909784291667,0.7902069091796875,-0.6438140869140625,0.16632080078125,1,0.88
2020-05-15 19:12:26.857 -0400,6029.974749291667,0.946929931640625,-0.4845123291015625,0.175079345703125,1,0.88
2020-05-15 19:12:26.921 -0400,6030.039714291667,1.075164794921875,0.4293365478515625,-0.2266845703125,1,0.88
2020-05-15 19:12:26.987 -0400,6030.104679291667,1.347579956054688,3.256149291992188,-0.59552001953125,1,0.88
2020-05-15 19:12:27.051 -0400,6030.169644291667,0.5370025634765625,2.602325439453125,-0.7839813232421875,1,0.88
2020-05-15 19:12:27.116 -0400,6030.234609291667,-0.3719635009765625,0.7982635498046875,-0.4788818359375,1,0.88
2020-05-15 19:12:27.181 -0400,6030.299574291667,-1.253402709960938,0.1188812255859375,-0.0189208984375,1,0.88
2020-05-15 19:12:27.246 -0400,6030.364539291667,-0.8957366943359375,0.3561248779296875,0.1901397705078125,1,0.88
2020-05-15 19:12:27.311 -0400,6030.429503291667,-0.23565673828125,1.239059448242188,-0.3799285888671875,1,0.88
2020-05-15 19:12:27.378 -0400,6030.494468291667,-0.021270751953125,4.085281372070312,-0.8030242919921875,1,0.88
2020-05-15 19:12:27.441 -0400,6030.559433291667,0.822998046875,2.093490600585938,-0.4071044921875,1,0.88
2020-05-15 19:12:27.506 -0400,6030.624398291667,0.689361572265625,0.1676483154296875,-0.1811065673828125,1,0.88
2020-05-15 19:12:27.571 -0400,6030.689363291667,0.9524078369140625,-0.7750701904296875,0.0657501220703125,1,0.88
2020-05-15 19:12:27.636 -0400,6030.754328291667,0.885406494140625,-0.458160400390625,0.1024169921875,1,0.88
2020-05-15 19:12:27.701 -0400,6030.8192925,0.8076324462890625,0.6267852783203125,-0.290283203125,1,0.88
2020-05-15 19:12:27.766 -0400,6030.884257500001,0.933349609375,3.614913940429688,-0.8890533447265625,1,0.88
2020-05-15 19:12:27.831 -0400,6030.9492225,0.2847137451171875,2.339920043945312,-0.8367767333984375,1,0.88
2020-05-15 19:12:27.896 -0400,6031.0141875,-0.25506591796875,0.6568145751953125,-0.2375030517578125,1,0.88
2020-05-15 19:12:27.961 -0400,6031.0791525,-0.7554931640625,0.0771026611328125,0.09039306640625,1,0.88
2020-05-15 19:12:28.026 -0400,6031.1441175,-1.059814453125,0.1229095458984375,0.2147674560546875,1,0.88
2020-05-15 19:12:28.096 -0400,6031.2090815,-0.7244110107421875,0.7419281005859375,-0.163238525390625,1,0.88
2020-05-15 19:12:28.156 -0400,6031.274046500001,0.2044830322265625,4.884201049804688,-0.919830322265625,1,0.88
2020-05-15 19:12:28.229 -0400,6031.3390115,0.788909912109375,2.014694213867188,-0.3915252685546875,1,0.88
2020-05-15 19:12:28.286 -0400,6031.403976500001,0.555938720703125,0.2581024169921875,-0.06036376953125,1,0.88
2020-05-15 19:12:28.351 -0400,6031.4689415,0.8714599609375,-0.8791046142578125,0.316375732421875,1,0.88
2020-05-15 19:12:28.416 -0400,6031.533906500001,0.8329010009765625,-0.16363525390625,0.0547943115234375,1,0.88
2020-05-15 19:12:28.481 -0400,6031.5988705,0.8063507080078125,0.7571258544921875,-0.4677886962890625,1,0.88
2020-05-15 19:12:28.546 -0400,6031.6638355,0.8522186279296875,3.061798095703125,-0.796661376953125,1,0.88
2020-05-15 19:12:28.610 -0400,6031.7288005,0.25836181640625,2.058120727539062,-0.8753204345703125,1,0.88
2020-05-15 19:12:28.675 -0400,6031.793765500001,-0.2530975341796875,0.51080322265625,-0.28643798828125,1,0.88
2020-05-15 19:12:28.740 -0400,6031.858730416667,-1.018218994140625,0.267578125,0.1020660400390625,1,0.88
2020-05-15 19:12:28.805 -0400,6031.923694416667,-0.942291259765625,0.433135986328125,0.0865936279296875,1,0.88
2020-05-15 19:12:28.870 -0400,6031.988659416667,-0.5598297119140625,1.897369384765625,-0.2938385009765625,1,0.88
2020-05-15 19:12:28.935 -0400,6032.053624416667,1.143997192382812,3.890960693359375,-0.6734771728515625,1,0.88
2020-05-15 19:12:29.000 -0400,6032.118589416667,0.671630859375,1.406143188476562,-0.0654296875,1,0.88
2020-05-15 19:12:29.066 -0400,6032.183554416667,0.521575927734375,-0.1964874267578125,0.013580322265625,1,0.88
2020-05-15 19:12:29.130 -0400,6032.248518416667,0.7778778076171875,-0.736663818359375,0.3614501953125,1,0.88
2020-05-15 19:12:29.195 -0400,6032.313483416667,0.812255859375,-0.201873779296875,0.157745361328125,1,0.88
2020-05-15 19:12:29.260 -0400,6032.378448416667,1.165924072265625,0.8496856689453125,-0.0579376220703125,1,0.88
2020-05-15 19:12:29.325 -0400,6032.443413416667,1.253799438476562,3.469650268554688,-0.51318359375,1,0.88
2020-05-15 19:12:29.390 -0400,6032.508377416667,0.0915985107421875,2.299636840820312,-0.5623321533203125,1,0.88
2020-05-15 19:12:29.455 -0400,6032.573342416667,-0.5501861572265625,0.2488250732421875,-0.1842803955078125,1,0.88
2020-05-15 19:12:29.520 -0400,6032.638307416667,-1.192581176757812,-0.04010009765625,0.1737060546875,1,0.88
2020-05-15 19:12:29.585 -0400,6032.703272416667,-0.775909423828125,0.068572998046875,0.260406494140625,1,0.88
2020-05-15 19:12:29.650 -0400,6032.768236416667,-0.865966796875,2.7681884765625,-0.27618408203125,1,0.88
2020-05-15 19:12:29.715 -0400,6032.833201375,1.377029418945312,3.942153930664062,-0.4806060791015625,1,0.88
2020-05-15 19:12:29.780 -0400,6032.898166375,0.6449737548828125,1.079071044921875,-0.0689849853515625,1,0.88
2020-05-15 19:12:29.845 -0400,6032.963131375001,0.664093017578125,-0.45849609375,-0.011138916015625,1,0.88
2020-05-15 19:12:29.910 -0400,6033.028095375001,0.8343048095703125,-0.8222503662109375,0.147979736328125,1,0.88
2020-05-15 19:12:29.975 -0400,6033.093060375,1.134613037109375,0.65325927734375,-0.2004852294921875,1,0.88
2020-05-15 19:12:30.040 -0400,6033.158025375001,0.866943359375,1.532333374023438,-0.66058349609375,1,0.88
2020-05-15 19:12:30.105 -0400,6033.222990375,0.41619873046875,3.114089965820312,-0.9014129638671875,1,0.88
2020-05-15 19:12:30.170 -0400,6033.287954375,-0.05242919921875,1.666763305664062,-0.7865447998046875,1,0.88
2020-05-15 19:12:30.238 -0400,6033.352919375,-1.074630737304688,0.153076171875,0.0389556884765625,1,0.88
2020-05-15 19:12:30.300 -0400,6033.417884375001,-1.359054565429688,0.5727081298828125,0.01123046875,1,0.88
2020-05-15 19:12:30.365 -0400,6033.482849375,-0.520904541015625,0.812896728515625,-0.2057952880859375,1,0.88
2020-05-15 19:12:30.430 -0400,6033.547813375,-0.334381103515625,3.27685546875,-0.95513916015625,1,0.88
2020-05-15 19:12:30.495 -0400,6033.612778375001,1.183609008789062,2.232620239257812,-0.434906005859375,1,0.88
2020-05-15 19:12:30.559 -0400,6033.677743375,0.49261474609375,0.512725830078125,-0.16448974609375,1,0.88
2020-05-15 19:12:30.624 -0400,6033.742707375,0.683441162109375,-1.1246337890625,0.304443359375,1,0.88
2020-05-15 19:12:30.689 -0400,6033.807672375,1.120315551757812,-0.3388671875,0.0772705078125,1,0.88
2020-05-15 19:12:30.754 -0400,6033.87263725,1.112564086914062,0.7523040771484375,-0.25982666015625,1,0.88
2020-05-15 19:12:30.819 -0400,6033.93760225,1.258377075195312,3.351516723632812,-0.7421112060546875,1,0.88
2020-05-15 19:12:30.884 -0400,6034.00256625,0.3531646728515625,2.1287841796875,-0.632781982421875,1,0.88
2020-05-15 19:12:30.949 -0400,6034.067531250001,-0.520538330078125,0.445343017578125,-0.1868438720703125,1,0.88
2020-05-15 19:12:31.014 -0400,6034.13249625,-0.8547210693359375,0.2691650390625,0.073455810546875,1,0.88
2020-05-15 19:12:31.079 -0400,6034.19746025,-0.83184814453125,0.4131622314453125,-0.0071258544921875,1,0.88
2020-05-15 19:12:31.144 -0400,6034.26242525,-0.448486328125,1.595001220703125,-0.124114990234375,1,0.88
2020-05-15 19:12:31.209 -0400,6034.32739025,0.76263427734375,4.456634521484375,-0.569915771484375,1,0.88
2020-05-15 19:12:31.274 -0400,6034.392354250001,0.8055419921875,1.660812377929688,-0.10467529296875,1,0.88
2020-05-15 19:12:31.339 -0400,6034.45731925,0.5233917236328125,-0.01641845703125,-0.0131072998046875,1,0.88
2020-05-15 19:12:31.404 -0400,6034.522284250001,0.9376373291015625,-1.022369384765625,0.2048492431640625,1,0.88
2020-05-15 19:12:31.469 -0400,6034.587248250001,0.9927978515625,-0.3661041259765625,0.1063232421875,1,0.88
2020-05-15 19:12:31.534 -0400,6034.65221325,0.7933349609375,1.638336181640625,-0.390045166015625,1,0.88
2020-05-15 19:12:31.599 -0400,6034.71717825,0.8397674560546875,3.575469970703125,-0.0597991943359375,1,0.88
2020-05-15 19:12:31.664 -0400,6034.78214225,0.10565185546875,1.736801147460938,-0.303253173828125,1,0.88
2020-05-15 19:12:31.729 -0400,6034.847106666667,-0.2757415771484375,0.4609527587890625,-0.148284912109375,1,0.88
2020-05-15 19:12:31.794 -0400,6034.912071666667,-0.9113006591796875,-0.0106658935546875,0.137847900390625,1,0.88
2020-05-15 19:12:31.859 -0400,6034.977035666667,-0.766876220703125,0.3600006103515625,0.0861053466796875,1,0.88
2020-05-15 19:12:31.924 -0400,6035.042000666667,-0.4259796142578125,2.127578735351562,-0.2191619873046875,1,0.88
2020-05-15 19:12:31.989 -0400,6035.106965666667,0.9275360107421875,3.94317626953125,-0.61773681640625,1,0.88
2020-05-15 19:12:32.054 -0400,6035.171929666667,0.894989013671875,1.545379638671875,-0.0989227294921875,1,0.88
2020-05-15 19:12:32.119 -0400,6035.236894666667,0.4202117919921875,0.0451812744140625,0.0104522705078125,1,0.88
2020-05-15 19:12:32.184 -0400,6035.301859666667,0.8434295654296875,-1.030548095703125,0.2650299072265625,1,0.88
2020-05-15 19:12:32.249 -0400,6035.366823666667,0.94720458984375,-0.6070098876953125,0.2511444091796875,1,0.88
2020-05-15 19:12:32.314 -0400,6035.431788666667,1.029739379882812,1.392593383789062,-0.2472686767578125,1,0.88
2020-05-15 19:12:32.378 -0400,6035.496753666667,1.570022583007812,4.107711791992188,-0.6128082275390625,1,0.88
2020-05-15 19:12:32.444 -0400,6035.561717666667,0.3626708984375,2.121170043945312,-0.7129058837890625,1,0.88
2020-05-15 19:12:32.508 -0400,6035.626682666667,-0.5473175048828125,0.2282867431640625,-0.157135009765625,1,0.88
2020-05-15 19:12:32.573 -0400,6035.691646666667,-1.299301147460938,-0.0263519287109375,0.1917877197265625,1,0.88
2020-05-15 19:12:32.638 -0400,6035.756611666667,-0.83221435546875,0.069091796875,0.0743865966796875,1,0.88
2020-05-15 19:12:32.703 -0400,6035.821577000001,-0.26947021484375,2.040695190429688,-0.3602752685546875,1,0.88
2020-05-15 19:12:32.768 -0400,6035.886541000001,1.012527465820312,4.616043090820312,-0.968597412109375,1,0.88
2020-05-15 19:12:32.833 -0400,6035.951506,0.4663238525390625,1.421981811523438,-0.1794586181640625,1,0.88
2020-05-15 19:12:32.898 -0400,6036.016471000001,0.605712890625,0.1983489990234375,-0.071807861328125,1,0.88
2020-05-15 19:12:32.963 -0400,6036.081435,0.988067626953125,-1.018707275390625,0.2956085205078125,1,0.88
2020-05-15 19:12:33.028 -0400,6036.146400000001,0.9798736572265625,-0.4394989013671875,0.08990478515625,1,0.88
2020-05-15 19:12:33.093 -0400,6036.211364000001,1.1112060546875,1.167205810546875,-0.474578857421875,1,0.88
2020-05-15 19:12:33.158 -0400,6036.276329,1.243057250976562,3.223175048828125,-0.880462646484375,1,0.88
2020-05-15 19:12:33.223 -0400,6036.341294000001,0.554290771484375,2.157272338867188,-0.8359375,1,0.88
2020-05-15 19:12:33.300 -0400,6036.406258,-0.297760009765625,0.4990997314453125,-0.306396484375,1,0.88
2020-05-15 19:12:33.353 -0400,6036.471223,-1.066055297851562,0.0997772216796875,0.112548828125,1,0.88
2020-05-15 19:12:33.418 -0400,6036.536187000001,-0.9625091552734375,0.1371307373046875,-0.00299072265625,1,0.88
2020-05-15 19:12:33.483 -0400,6036.601152,-0.4728851318359375,1.828369140625,-0.4249725341796875,1,0.88
2020-05-15 19:12:33.548 -0400,6036.666117000001,1.1123046875,4.36749267578125,-1.086685180664062,1,0.88
2020-05-15 19:12:33.613 -0400,6036.731081000001,0.8831329345703125,1.35223388671875,-0.21240234375,1,0.88
2020-05-15 19:12:33.678 -0400,6036.796046,0.509124755859375,-0.193450927734375,0.0204315185546875,1,0.88
2020-05-15 19:12:33.743 -0400,6036.861010250001,0.6085662841796875,-0.802978515625,0.3094635009765625,1,0.88
2020-05-15 19:12:33.808 -0400,6036.92597525,0.8565673828125,-0.254852294921875,0.146514892578125,1,0.88
2020-05-15 19:12:33.873 -0400,6036.99093925,1.346038818359375,1.571334838867188,-0.56170654296875,1,0.88
2020-05-15 19:12:33.938 -0400,6037.05590425,1.101791381835938,3.480545043945312,-1.1361083984375,1,0.88
2020-05-15 19:12:34.003 -0400,6037.12086925,0.210968017578125,1.73919677734375,-0.7530975341796875,1,0.88
2020-05-15 19:12:34.067 -0400,6037.185833250001,-0.4019317626953125,0.291778564453125,-0.3494415283203125,1,0.88
2020-05-15 19:12:34.133 -0400,6037.25079825,-1.041336059570312,0.110870361328125,0.0412445068359375,1,0.88
2020-05-15 19:12:34.197 -0400,6037.31576225,-0.916259765625,0.2845916748046875,0.0106048583984375,1,0.88
2020-05-15 19:12:34.263 -0400,6037.380727250001,-0.1515960693359375,2.421890258789062,-0.7045745849609375,1,0.88
2020-05-15 19:12:34.327 -0400,6037.44569125,1.306991577148438,3.844696044921875,-0.933868408203125,1,0.88
2020-05-15 19:12:34.393 -0400,6037.51065625,0.7958831787109375,1.177169799804688,-0.1371917724609375,1,0.88
2020-05-15 19:12:34.457 -0400,6037.57562125,0.6581878662109375,-0.079833984375,0.023223876953125,1,0.88
2020-05-15 19:12:34.522 -0400,6037.64058525,0.834197998046875,-1.132003784179688,0.412109375,1,0.88
2020-05-15 19:12:34.587 -0400,6037.705550250001,1.026641845703125,-0.3061065673828125,0.0335235595703125,1,0.88
2020-05-15 19:12:34.652 -0400,6037.770514250001,1.325363159179688,2.396926879882812,-0.835693359375,1,0.88
2020-05-15 19:12:34.717 -0400,6037.835480041667,0.9328765869140625,2.79107666015625,-1.059906005859375,1,0.88
2020-05-15 19:12:34.782 -0400,6037.900444041667,0.2892303466796875,1.36651611328125,-0.58636474609375,1,0.88
2020-05-15 19:12:34.847 -0400,6037.965409041667,-0.319366455078125,0.42755126953125,-0.3261566162109375,1,0.88
2020-05-15 19:12:34.912 -0400,6038.030373041667,-0.8276519775390625,0.291595458984375,0.0203857421875,1,0.88
2020-05-15 19:12:34.977 -0400,6038.095338041667,-0.7197723388671875,0.370208740234375,-0.1044769287109375,1,0.88
2020-05-15 19:12:35.042 -0400,6038.160302041667,-0.4832000732421875,2.9481201171875,-1.022750854492188,1,0.88
2020-05-15 19:12:35.107 -0400,6038.225267041667,1.209823608398438,2.926422119140625,-0.718292236328125,1,0.88
2020-05-15 19:12:35.172 -0400,6038.290231041667,0.7295379638671875,1.026214599609375,-0.1694183349609375,1,0.88
2020-05-15 19:12:35.237 -0400,6038.355196041667,0.7084808349609375,-0.413848876953125,-0.00872802734375,1,0.88
2020-05-15 19:12:35.302 -0400,6038.420160041667,0.92681884765625,-0.765289306640625,0.1100616455078125,1,0.88
2020-05-15 19:12:35.370 -0400,6038.485125041667,0.8474884033203125,-0.196075439453125,0.0100860595703125,1,0.88
2020-05-15 19:12:35.432 -0400,6038.550090041667,1.336395263671875,2.33984375,-0.5514678955078125,1,0.88
2020-05-15 19:12:35.497 -0400,6038.615054041667,1.320053100585938,2.957290649414062,-1.008895874023438,1,0.88
2020-05-15 19:12:35.562 -0400,6038.680019041667,0.0477447509765625,1.423614501953125,-0.4693145751953125,1,0.88
2020-05-15 19:12:35.627 -0400,6038.744983041667,-0.6607208251953125,0.2992095947265625,-0.272552490234375,1,0.88
2020-05-15 19:12:35.692 -0400,6038.809948041667,-1.229110717773438,0.0669097900390625,0.037750244140625,1,0.88
2020-05-15 19:12:35.757 -0400,6038.874911625,-0.5971221923828125,0.497711181640625,-0.0380096435546875,1,0.88
2020-05-15 19:12:35.822 -0400,6038.939876625001,-0.2158203125,2.40301513671875,-0.60943603515625,1,0.88
2020-05-15 19:12:35.886 -0400,6039.004840625001,1.214584350585938,3.952911376953125,-0.74859619140625,1,0.88
2020-05-15 19:12:35.952 -0400,6039.069805625,0.8287200927734375,1.22003173828125,-0.1945953369140625,1,0.88
2020-05-15 19:12:36.016 -0400,6039.134769625,0.8755340576171875,-0.1477813720703125,-0.1225128173828125,1,0.88
2020-05-15 19:12:36.082 -0400,6039.199733625001,0.8045654296875,-0.9535980224609375,0.2711639404296875,1,0.88
2020-05-15 19:12:36.146 -0400,6039.264698625,0.70281982421875,-0.3332366943359375,0.1071624755859375,1,0.88
2020-05-15 19:12:36.211 -0400,6039.329662625,0.9385986328125,1.175064086914062,-0.657257080078125,1,0.88
2020-05-15 19:12:36.276 -0400,6039.394627625001,1.106353759765625,3.412017822265625,-0.7486114501953125,1,0.88
2020-05-15 19:12:36.342 -0400,6039.459591625,0.409698486328125,1.843399047851562,-0.668487548828125,1,0.88
2020-05-15 19:12:36.406 -0400,6039.524556625001,-0.3671417236328125,0.4014434814453125,-0.1702880859375,1,0.88
2020-05-15 19:12:36.471 -0400,6039.589520625001,-0.824127197265625,0.1416168212890625,0.176544189453125,1,0.88
2020-05-15 19:12:36.536 -0400,6039.654485625,-0.93408203125,0.3006134033203125,0.0659637451171875,1,0.88
2020-05-15 19:12:36.601 -0400,6039.719449625,-0.4354705810546875,1.753952026367188,-0.3516693115234375,1,0.88
2020-05-15 19:12:36.666 -0400,6039.784414625,1.401748657226562,4.111770629882812,-0.689361572265625,1,0.88
2020-05-15 19:12:36.731 -0400,6039.849378000001,0.8773193359375,1.561386108398438,-0.2036895751953125,1,0.88
2020-05-15 19:12:36.796 -0400,6039.914343,0.487274169921875,0.1123199462890625,-0.018646240234375,1,0.88
2020-05-15 19:12:36.861 -0400,6039.979307000001,0.690765380859375,-0.7737274169921875,0.384063720703125,1,0.88
2020-05-15 19:12:36.926 -0400,6040.044272,0.869842529296875,-0.500640869140625,0.27349853515625,1,0.88
2020-05-15 19:12:36.991 -0400,6040.109236,0.973388671875,0.887908935546875,-0.30096435546875,1,0.88
2020-05-15 19:12:37.056 -0400,6040.1742,1.2379150390625,3.484848022460938,-1.005706787109375,1,0.88
2020-05-15 19:12:37.121 -0400,6040.239165,0.3180084228515625,2.025390625,-0.83184814453125,1,0.88
2020-05-15 19:12:37.186 -0400,6040.304129,-0.4446563720703125,0.2937469482421875,-0.27679443359375,1,0.88
2020-05-15 19:12:37.251 -0400,6040.369094000001,-1.05731201171875,0.163726806640625,-0.0260772705078125,1,0.88
2020-05-15 19:12:37.316 -0400,6040.434058000001,-0.8628997802734375,0.4924774169921875,-0.029022216796875,1,0.88
2020-05-15 19:12:37.381 -0400,6040.499023,-0.5986175537109375,1.75531005859375,-0.8314971923828125,1,0.88
2020-05-15 19:12:37.446 -0400,6040.563987,1.621719360351562,4.14581298828125,-1.39794921875,1,0.88
2020-05-15 19:12:37.511 -0400,6040.628952,0.602813720703125,1.475555419921875,-0.3752288818359375,1,0.88
2020-05-15 19:12:37.576 -0400,6040.693916,0.794097900390625,-0.0958099365234375,0.34759521484375,1,0.88
2020-05-15 19:12:37.641 -0400,6040.75888,1.047775268554688,-0.7579803466796875,0.5496826171875,1,0.88
2020-05-15 19:12:37.706 -0400,6040.823844375001,1.227081298828125,-0.3746795654296875,0.2209014892578125,1,0.88
2020-05-15 19:12:37.771 -0400,6040.888808375001,1.485641479492188,1.528533935546875,-0.73223876953125,1,0.88
2020-05-15 19:12:37.835 -0400,6040.953773375,0.9617156982421875,3.039321899414062,-1.849151611328125,1,0.88
2020-05-15 19:12:37.901 -0400,6041.018737375,0.1596221923828125,1.430404663085938,-0.841339111328125,1,0.88
2020-05-15 19:12:37.965 -0400,6041.083701375001,-0.3450469970703125,0.59100341796875,-0.4261322021484375,1,0.88
2020-05-15 19:12:38.030 -0400,6041.148666375,-1.11639404296875,0.1765899658203125,0.0421905517578125,1,0.88
2020-05-15 19:12:38.095 -0400,6041.213630375,-1.111434936523438,0.3017578125,-0.0058746337890625,1,0.88
2020-05-15 19:12:38.160 -0400,6041.278595375001,-0.8176116943359375,2.055068969726562,-0.527252197265625,1,0.88
2020-05-15 19:12:38.225 -0400,6041.343559375,3.08013916015625,3.731185913085938,-1.753219604492188,1,0.88
2020-05-15 19:12:38.290 -0400,6041.408523375,1.070281982421875,1.245712280273438,-0.5711822509765625,1,0.88
2020-05-15 19:12:38.355 -0400,6041.473488375001,0.9040069580078125,-1.011520385742188,0.4073486328125,1,0.88
2020-05-15 19:12:38.420 -0400,6041.538452375001,0.9388885498046875,-1.137069702148438,0.4402313232421875,1,0.88
2020-05-15 19:12:38.485 -0400,6041.603417375,1.1058349609375,-0.048858642578125,0.0470428466796875,1,0.88
2020-05-15 19:12:38.550 -0400,6041.668381375001,1.392471313476562,2.097976684570312,-1.213775634765625,1,0.88
2020-05-15 19:12:38.615 -0400,6041.733345375001,1.09130859375,2.711959838867188,-1.485504150390625,1,0.88
2020-05-15 19:12:38.680 -0400,6041.798310375,0.1043853759765625,1.416885375976562,-0.838226318359375,1,0.88
2020-05-15 19:12:38.745 -0400,6041.863275166667,-0.704376220703125,0.36370849609375,-0.21600341796875,1,0.88
2020-05-15 19:12:38.810 -0400,6041.928239166667,-1.44586181640625,0.0839385986328125,0.27752685546875,1,0.88
2020-05-15 19:12:38.875 -0400,6041.993204166667,-0.6725616455078125,1.063034057617188,-0.447021484375,1,0.88
2020-05-15 19:12:38.940 -0400,6042.058168166667,0.0853271484375,3.994003295898438,-1.363006591796875,1,0.88
2020-05-15 19:12:39.005 -0400,6042.123133166667,0.7400970458984375,2.5377197265625,-0.696929931640625,1,0.88
2020-05-15 19:12:39.070 -0400,6042.188097166667,0.6063995361328125,0.1056671142578125,0.04248046875,1,0.88
2020-05-15 19:12:39.135 -0400,6042.253061166667,1.00518798828125,-1.056137084960938,0.578216552734375,1,0.88
2020-05-15 19:12:39.200 -0400,6042.318026166667,1.2388916015625,-0.5504608154296875,0.230682373046875,1,0.88
2020-05-15 19:12:39.265 -0400,6042.382990166667,1.220657348632812,1.077896118164062,-0.18267822265625,1,0.88
