loggingTime(txt),locationTimestamp_since1970(s),locationLatitude(WGS84),locationLongitude(WGS84),locationAltitude(m),locationSpeed(m/s),locationCourse(°),locationVerticalAccuracy(m),locationHorizontalAccuracy(m),locationFloor(Z),accelerometerTimestamp_sinceReboot(s),accelerometerAccelerationX(G),accelerometerAccelerationY(G),accelerometerAccelerationZ(G),batteryState,batteryLevel
2020-05-18 19:33:46.220 -0400,1589844824.999761,41.35043830333581,-71.83704708579108,4.983229,3.361159,333.68989049913,4.415152294707712,4.667290954217025,-9999,53717.59466225001,-0.4971466064453125,0.2403564453125,-0.4833526611328125,1,0.9
2020-05-18 19:33:46.255 -0400,1589844824.999761,41.35043830333581,-71.83704708579108,4.983229,3.361159,333.68989049913,4.415152294707712,4.667290954217025,-9999,53717.64463404167,-0.659698486328125,0.0901947021484375,-1.268508911132812,1,0.9
2020-05-18 19:33:46.304 -0400,1589844824.999761,41.35043830333581,-71.83704708579108,4.983229,3.361159,333.68989049913,4.415152294707712,4.667290954217025,-9999,53717.69460704167,-0.3221893310546875,0.5791778564453125,-2.138153076171875,1,0.9
2020-05-18 19:33:46.355 -0400,1589844824.999761,41.35043830333581,-71.83704708579108,4.983229,3.361159,333.68989049913,4.415152294707712,4.667290954217025,-9999,53717.74458004167,0.1039581298828125,0.3591766357421875,-1.579971313476562,1,0.9
2020-05-18 19:33:46.404 -0400,1589844824.999761,41.35043830333581,-71.83704708579108,4.983229,3.361159,333.68989049913,4.415152294707712,4.667290954217025,-9999,53717.79455304167,0.2941741943359375,0.0615234375,-0.6532745361328125,1,0.9
2020-05-18 19:33:46.456 -0400,1589844824.999761,41.35043830333581,-71.83704708579108,4.983229,3.361159,333.68989049913,4.415152294707712,4.667290954217025,-9999,53717.84452604167,0.3657684326171875,-0.215087890625,-0.3112335205078125,1,0.9
2020-05-18 19:33:46.504 -0400,1589844824.999761,41.35043830333581,-71.83704708579108,4.983229,3.361159,333.68989049913,4.415152294707712,4.667290954217025,-9999,53717.89449904167,0.837127685546875,0.0130615234375,-0.06439208984375,1,0.9
2020-05-18 19:33:46.555 -0400,1589844824.999761,41.35043830333581,-71.83704708579108,4.983229,3.361159,333.68989049913,4.415152294707712,4.667290954217025,-9999,53717.94447204167,0.9455108642578125,0.061737060546875,0.0009918212890625,1,0.9
2020-05-18 19:33:46.604 -0400,1589844825.999763,41.35046256147707,-71.83706810407129,4.143686,2.927442,328.0709802058169,4.429071215250228,4.622870930040433,-9999,53717.99444504167,1.14312744140625,0.32281494140625,-1.040725708007812,1,0.9
2020-05-18 19:33:46.654 -0400,1589844825.999763,41.35046256147707,-71.83706810407129,4.143686,2.927442,328.0709802058169,4.429071215250228,4.622870930040433,-9999,53718.04441804167,2.2476806640625,1.639205932617188,-1.8721923828125,1,0.9
2020-05-18 19:33:46.704 -0400,1589844825.999763,41.35046256147707,-71.83706810407129,4.143686,2.927442,328.0709802058169,4.429071215250228,4.622870930040433,-9999,53718.09439104167,0.2711944580078125,2.558700561523438,-1.604949951171875,1,0.9
2020-05-18 19:33:46.754 -0400,1589844825.999763,41.35046256147707,-71.83706810407129,4.143686,2.927442,328.0709802058169,4.429071215250228,4.622870930040433,-9999,53718.14436404167,-1.020370483398438,1.646652221679688,-0.780242919921875,1,0.9
2020-05-18 19:33:46.804 -0400,1589844825.999763,41.35046256147707,-71.83706810407129,4.143686,2.927442,328.0709802058169,4.429071215250228,4.622870930040433,-9999,53718.19433704167,-1.580551147460938,0.4697265625,-0.3276214599609375,1,0.9
2020-05-18 19:33:46.854 -0400,1589844825.999763,41.35046256147707,-71.83706810407129,4.143686,2.927442,328.0709802058169,4.429071215250228,4.622870930040433,-9999,53718.24431004167,-1.265426635742188,0.2602996826171875,-0.1662445068359375,1,0.9
2020-05-18 19:33:46.904 -0400,1589844825.999763,41.35046256147707,-71.83706810407129,4.143686,2.927442,328.0709802058169,4.429071215250228,4.622870930040433,-9999,53718.29428304167,-0.8054962158203125,0.096588134765625,-0.376220703125,1,0.9
2020-05-18 19:33:46.963 -0400,1589844825.999763,41.35046256147707,-71.83706810407129,4.143686,2.927442,328.0709802058169,4.429071215250228,4.622870930040433,-9999,53718.34425504167,-0.427734375,0.036712646484375,-0.1365509033203125,1,0.9
2020-05-18 19:33:47.004 -0400,1589844825.999763,41.35046256147707,-71.83706810407129,4.143686,2.927442,328.0709802058169,4.429071215250228,4.622870930040433,-9999,53718.39422804167,-0.6893310546875,1.934799194335938,-0.0333099365234375,1,0.9
2020-05-18 19:33:47.054 -0400,1589844825.999763,41.35046256147707,-71.83706810407129,4.143686,2.927442,328.0709802058169,4.429071215250228,4.622870930040433,-9999,53718.44420104167,1.043670654296875,4.15771484375,-0.3561859130859375,1,0.9
2020-05-18 19:33:47.104 -0400,1589844825.999763,41.35046256147707,-71.83706810407129,4.143686,2.927442,328.0709802058169,4.429071215250228,4.622870930040433,-9999,53718.49417404167,0.7939300537109375,1.694488525390625,-0.1660614013671875,1,0.9
2020-05-18 19:33:47.154 -0400,1589844825.999763,41.35046256147707,-71.83706810407129,4.143686,2.927442,328.0709802058169,4.429071215250228,4.622870930040433,-9999,53718.54414704167,0.3560943603515625,0.04046630859375,-0.114349365234375,1,0.9
2020-05-18 19:33:47.204 -0400,1589844825.999763,41.35046256147707,-71.83706810407129,4.143686,2.927442,328.0709802058169,4.429071215250228,4.622870930040433,-9999,53718.59412004167,0.555816650390625,-0.690826416015625,-0.1482086181640625,1,0.9
2020-05-18 19:33:47.254 -0400,1589844825.999763,41.35046256147707,-71.83706810407129,4.143686,2.927442,328.0709802058169,4.429071215250228,4.622870930040433,-9999,53718.64409275,0.56671142578125,-0.9328765869140625,0.2766876220703125,1,0.9
2020-05-18 19:33:47.304 -0400,1589844825.999763,41.35046256147707,-71.83706810407129,4.143686,2.927442,328.0709802058169,4.429071215250228,4.622870930040433,-9999,53718.69406575,0.88714599609375,-0.260894775390625,0.2755889892578125,1,0.9
2020-05-18 19:33:47.354 -0400,1589844825.999763,41.35046256147707,-71.83706810407129,4.143686,2.927442,328.0709802058169,4.429071215250228,4.622870930040433,-9999,53718.74403875,1.116409301757812,0.0853271484375,0.020050048828125,1,0.9
2020-05-18 19:33:47.404 -0400,1589844825.999763,41.35046256147707,-71.83706810407129,4.143686,2.927442,328.0709802058169,4.429071215250228,4.622870930040433,-9999,53718.79401175,4.559829711914062,3.439208984375,-0.4714813232421875,1,0.9
2020-05-18 19:33:47.454 -0400,1589844825.999763,41.35046256147707,-71.83706810407129,4.143686,2.927442,328.0709802058169,4.429071215250228,4.622870930040433,-9999,53718.84398475,1.5863037109375,2.830368041992188,-0.8130645751953125,1,0.9
2020-05-18 19:33:47.504 -0400,1589844825.999763,41.35046256147707,-71.83706810407129,4.143686,2.927442,328.0709802058169,4.429071215250228,4.622870930040433,-9999,53718.89395775001,0.11151123046875,1.1103515625,-0.4008331298828125,1,0.9
2020-05-18 19:33:47.554 -0400,1589844825.999763,41.35046256147707,-71.83706810407129,4.143686,2.927442,328.0709802058169,4.429071215250228,4.622870930040433,-9999,53718.94393075,-1.064407348632812,0.4334869384765625,-0.4561920166015625,1,0.9
2020-05-18 19:33:47.604 -0400,1589844825.999763,41.35046256147707,-71.83706810407129,4.143686,2.927442,328.0709802058169,4.429071215250228,4.622870930040433,-9999,53718.99390275,-0.9098968505859375,0.1734466552734375,-0.2769775390625,1,0.9
2020-05-18 19:33:47.654 -0400,1589844825.999763,41.35046256147707,-71.83706810407129,4.143686,2.927442,328.0709802058169,4.429071215250228,4.622870930040433,-9999,53719.04387575,-0.648773193359375,-0.1168670654296875,0.0755767822265625,1,0.9
2020-05-18 19:33:47.704 -0400,1589844825.999763,41.35046256147707,-71.83706810407129,4.143686,2.927442,328.0709802058169,4.429071215250228,4.622870930040433,-9999,53719.09384875,-0.41961669921875,0.195159912109375,-0.0618438720703125,1,0.9
2020-05-18 19:33:47.759 -0400,1589844825.999763,41.35046256147707,-71.83706810407129,4.143686,2.927442,328.0709802058169,4.429071215250228,4.622870930040433,-9999,53719.14382175,-0.1910552978515625,1.667327880859375,0.1521148681640625,1,0.9
2020-05-18 19:33:47.804 -0400,1589844826.999757,41.35051571842282,-71.83708515005348,5.981151,3.169297,337.4028322512939,4.32688503313319,4.398528975643388,-9999,53719.19379475,1.668838500976562,5.176071166992188,0.520477294921875,1,0.9
2020-05-18 19:33:47.854 -0400,1589844826.999757,41.35051571842282,-71.83708515005348,5.981151,3.169297,337.4028322512939,4.32688503313319,4.398528975643388,-9999,53719.24376775001,0.7725982666015625,1.934478759765625,-0.2570648193359375,1,0.9
2020-05-18 19:33:47.904 -0400,1589844826.999757,41.35051571842282,-71.83708515005348,5.981151,3.169297,337.4028322512939,4.32688503313319,4.398528975643388,-9999,53719.29374075001,0.32244873046875,0.3349151611328125,-0.318328857421875,1,0.9
2020-05-18 19:33:47.954 -0400,1589844826.999757,41.35051571842282,-71.83708515005348,5.981151,3.169297,337.4028322512939,4.32688503313319,4.398528975643388,-9999,53719.34371375,0.3388824462890625,-0.6568756103515625,-0.0911407470703125,1,0.9
2020-05-18 19:33:48.004 -0400,1589844826.999757,41.35051571842282,-71.83708515005348,5.981151,3.169297,337.4028322512939,4.32688503313319,4.398528975643388,-9999,53719.39368675,0.5208282470703125,-1.121292114257812,0.07086181640625,1,0.9
2020-05-18 19:33:48.054 -0400,1589844826.999757,41.35051571842282,-71.83708515005348,5.981151,3.169297,337.4028322512939,4.32688503313319,4.398528975643388,-9999,53719.44365975,0.494720458984375,-0.6580352783203125,0.141876220703125,1,0.9
2020-05-18 19:33:48.104 -0400,1589844826.999757,41.35051571842282,-71.83708515005348,5.981151,3.169297,337.4028322512939,4.32688503313319,4.398528975643388,-9999,53719.49363275,1.000579833984375,-0.29742431640625,0.349395751953125,1,0.9
2020-05-18 19:33:48.154 -0400,1589844826.999757,41.35051571842282,-71.83708515005348,5.981151,3.169297,337.4028322512939,4.32688503313319,4.398528975643388,-9999,53719.54360575,3.609970092773438,3.05364990234375,-0.4727935791015625,1,0.9
2020-05-18 19:33:48.204 -0400,1589844826.999757,41.35051571842282,-71.83708515005348,5.981151,3.169297,337.4028322512939,4.32688503313319,4.398528975643388,-9999,53719.59357875001,3.493011474609375,3.3095703125,-0.9822845458984375,1,0.9
2020-05-18 19:33:48.254 -0400,1589844826.999757,41.35051571842282,-71.83708515005348,5.981151,3.169297,337.4028322512939,4.32688503313319,4.398528975643388,-9999,53719.643552,0.3205718994140625,1.740615844726562,-0.7580413818359375,1,0.9
2020-05-18 19:33:48.304 -0400,1589844826.999757,41.35051571842282,-71.83708515005348,5.981151,3.169297,337.4028322512939,4.32688503313319,4.398528975643388,-9999,53719.693524,-1.038040161132812,0.32635498046875,-0.6116485595703125,1,0.9
2020-05-18 19:33:48.354 -0400,1589844826.999757,41.35051571842282,-71.83708515005348,5.981151,3.169297,337.4028322512939,4.32688503313319,4.398528975643388,-9999,53719.743497,-1.086395263671875,0.208099365234375,-0.551483154296875,1,0.9
2020-05-18 19:33:48.404 -0400,1589844826.999757,41.35051571842282,-71.83708515005348,5.981151,3.169297,337.4028322512939,4.32688503313319,4.398528975643388,-9999,53719.79347,-0.7331085205078125,-0.2091064453125,-0.0183563232421875,1,0.9
2020-05-18 19:33:48.453 -0400,1589844826.999757,41.35051571842282,-71.83708515005348,5.981151,3.169297,337.4028322512939,4.32688503313319,4.398528975643388,-9999,53719.84344300001,-0.5778350830078125,0.0594024658203125,-0.0558013916015625,1,0.9
2020-05-18 19:33:48.503 -0400,1589844826.999757,41.35051571842282,-71.83708515005348,5.981151,3.169297,337.4028322512939,4.32688503313319,4.398528975643388,-9999,53719.89341600001,-0.3679351806640625,1.662033081054688,0.1336669921875,1,0.9
2020-05-18 19:33:48.553 -0400,1589844826.999757,41.35051571842282,-71.83708515005348,5.981151,3.169297,337.4028322512939,4.32688503313319,4.398528975643388,-9999,53719.943389,1.083236694335938,4.667160034179688,0.57696533203125,1,0.9
2020-05-18 19:33:48.603 -0400,1589844826.999757,41.35051571842282,-71.83708515005348,5.981151,3.169297,337.4028322512939,4.32688503313319,4.398528975643388,-9999,53719.993362,0.93804931640625,2.3631591796875,-0.183441162109375,1,0.9
2020-05-18 19:33:48.653 -0400,1589844826.999757,41.35051571842282,-71.83708515005348,5.981151,3.169297,337.4028322512939,4.32688503313319,4.398528975643388,-9999,53720.043335,0.496734619140625,0.5278778076171875,-0.161041259765625,1,0.9
2020-05-18 19:33:48.704 -0400,1589844826.999757,41.35051571842282,-71.83708515005348,5.981151,3.169297,337.4028322512939,4.32688503313319,4.398528975643388,-9999,53720.093308,0.4332427978515625,-0.7665557861328125,-0.1473541259765625,1,0.9
2020-05-18 19:33:48.753 -0400,1589844826.999757,41.35051571842282,-71.83708515005348,5.981151,3.169297,337.4028322512939,4.32688503313319,4.398528975643388,-9999,53720.143281,0.54962158203125,-1.532684326171875,0.196075439453125,1,0.9
2020-05-18 19:33:48.803 -0400,1589844826.999757,41.35051571842282,-71.83708515005348,5.981151,3.169297,337.4028322512939,4.32688503313319,4.398528975643388,-9999,53720.19325400001,0.7896728515625,-0.6215057373046875,0.0403289794921875,1,0.9
2020-05-18 19:33:48.854 -0400,1589844827.999758,41.35054798262483,-71.83709276522346,7.008821,3.057131,347.748971413576,4.24318445035297,4.347347386319806,-9999,53720.24322700001,1.376571655273438,-0.1299896240234375,0.1790008544921875,1,0.9
2020-05-18 19:33:48.903 -0400,1589844827.999758,41.35054798262483,-71.83709276522346,7.008821,3.057131,347.748971413576,4.24318445035297,4.347347386319806,-9999,53720.2932,5.115615844726562,3.947418212890625,-0.504119873046875,1,0.9
2020-05-18 19:33:48.953 -0400,1589844827.999758,41.35054798262483,-71.83709276522346,7.008821,3.057131,347.748971413576,4.24318445035297,4.347347386319806,-9999,53720.343172,1.854995727539062,3.9117431640625,-0.70843505859375,1,0.9
2020-05-18 19:33:49.003 -0400,1589844827.999758,41.35054798262483,-71.83709276522346,7.008821,3.057131,347.748971413576,4.24318445035297,4.347347386319806,-9999,53720.393145,-0.2996673583984375,1.635574340820312,-0.5580596923828125,1,0.9
2020-05-18 19:33:49.053 -0400,1589844827.999758,41.35054798262483,-71.83709276522346,7.008821,3.057131,347.748971413576,4.24318445035297,4.347347386319806,-9999,53720.443118,-1.027755737304688,0.6572265625,-0.69879150390625,1,0.9
2020-05-18 19:33:49.103 -0400,1589844827.999758,41.35054798262483,-71.83709276522346,7.008821,3.057131,347.748971413576,4.24318445035297,4.347347386319806,-9999,53720.493091,-0.825714111328125,-0.07794189453125,-0.111053466796875,1,0.9
2020-05-18 19:33:49.153 -0400,1589844827.999758,41.35054798262483,-71.83709276522346,7.008821,3.057131,347.748971413576,4.24318445035297,4.347347386319806,-9999,53720.543064,-0.669342041015625,-0.06243896484375,-0.0006561279296875,1,0.9
2020-05-18 19:33:49.203 -0400,1589844827.999758,41.35054798262483,-71.83709276522346,7.008821,3.057131,347.748971413576,4.24318445035297,4.347347386319806,-9999,53720.59303700001,-0.5128326416015625,0.026641845703125,-0.1231536865234375,1,0.9
2020-05-18 19:33:49.253 -0400,1589844827.999758,41.35054798262483,-71.83709276522346,7.008821,3.057131,347.748971413576,4.24318445035297,4.347347386319806,-9999,53720.64300979167,-0.402984619140625,2.202255249023438,0.2854766845703125,1,0.9
2020-05-18 19:33:49.303 -0400,1589844827.999758,41.35054798262483,-71.83709276522346,7.008821,3.057131,347.748971413576,4.24318445035297,4.347347386319806,-9999,53720.69298279167,1.607864379882812,5.129898071289062,0.2006378173828125,1,0.9
2020-05-18 19:33:49.353 -0400,1589844827.999758,41.35054798262483,-71.83709276522346,7.008821,3.057131,347.748971413576,4.24318445035297,4.347347386319806,-9999,53720.74295579167,1.017898559570312,2.066146850585938,-0.244781494140625,1,0.9
2020-05-18 19:33:49.403 -0400,1589844827.999758,41.35054798262483,-71.83709276522346,7.008821,3.057131,347.748971413576,4.24318445035297,4.347347386319806,-9999,53720.79292879167,0.5172271728515625,0.005340576171875,-0.078338623046875,1,0.9
2020-05-18 19:33:49.453 -0400,1589844827.999758,41.35054798262483,-71.83709276522346,7.008821,3.057131,347.748971413576,4.24318445035297,4.347347386319806,-9999,53720.84290179167,0.5989227294921875,-0.83050537109375,-0.106353759765625,1,0.9
2020-05-18 19:33:49.503 -0400,1589844827.999758,41.35054798262483,-71.83709276522346,7.008821,3.057131,347.748971413576,4.24318445035297,4.347347386319806,-9999,53720.89287479167,0.6314697265625,-1.256881713867188,0.0559234619140625,1,0.9
2020-05-18 19:33:49.553 -0400,1589844827.999758,41.35054798262483,-71.83709276522346,7.008821,3.057131,347.748971413576,4.24318445035297,4.347347386319806,-9999,53720.94284779167,0.7139129638671875,-0.4370574951171875,-0.0402984619140625,1,0.9
2020-05-18 19:33:49.603 -0400,1589844827.999758,41.35054798262483,-71.83709276522346,7.008821,3.057131,347.748971413576,4.24318445035297,4.347347386319806,-9999,53720.99282079167,1.336959838867188,-0.0133819580078125,0.0420989990234375,1,0.9
2020-05-18 19:33:49.653 -0400,1589844827.999758,41.35054798262483,-71.83709276522346,7.008821,3.057131,347.748971413576,4.24318445035297,4.347347386319806,-9999,53721.04279279167,4.44384765625,3.633377075195312,-0.863311767578125,1,0.9
2020-05-18 19:33:49.703 -0400,1589844828.999755,41.35057045532082,-71.83710698163699,7.607775,2.791029,348.0114701843,4.204909206777018,4.362065578637562,-9999,53721.09276579167,1.132217407226562,2.802764892578125,-0.71002197265625,1,0.9
2020-05-18 19:33:49.753 -0400,1589844828.999755,41.35057045532082,-71.83710698163699,7.607775,2.791029,348.0114701843,4.204909206777018,4.362065578637562,-9999,53721.14273879167,-0.380859375,0.9871368408203125,-0.5433807373046875,1,0.9
2020-05-18 19:33:49.803 -0400,1589844828.999755,41.35057045532082,-71.83710698163699,7.607775,2.791029,348.0114701843,4.204909206777018,4.362065578637562,-9999,53721.19271179167,-1.175125122070312,0.40802001953125,-0.5746307373046875,1,0.9
2020-05-18 19:33:49.853 -0400,1589844828.999755,41.35057045532082,-71.83710698163699,7.607775,2.791029,348.0114701843,4.204909206777018,4.362065578637562,-9999,53721.24268479167,-0.8752593994140625,-0.0664825439453125,-0.1228179931640625,1,0.9
2020-05-18 19:33:49.903 -0400,1589844828.999755,41.35057045532082,-71.83710698163699,7.607775,2.791029,348.0114701843,4.204909206777018,4.362065578637562,-9999,53721.29265779167,-0.685394287109375,-0.076324462890625,-0.116790771484375,1,0.9
2020-05-18 19:33:49.953 -0400,1589844828.999755,41.35057045532082,-71.83710698163699,7.607775,2.791029,348.0114701843,4.204909206777018,4.362065578637562,-9999,53721.34263079167,-0.427947998046875,0.180389404296875,-0.0565185546875,1,0.9
2020-05-18 19:33:50.003 -0400,1589844828.999755,41.35057045532082,-71.83710698163699,7.607775,2.791029,348.0114701843,4.204909206777018,4.362065578637562,-9999,53721.39260379167,-0.3477783203125,2.984939575195312,0.2595977783203125,1,0.9
2020-05-18 19:33:50.053 -0400,1589844828.999755,41.35057045532082,-71.83710698163699,7.607775,2.791029,348.0114701843,4.204909206777018,4.362065578637562,-9999,53721.44257679167,1.378646850585938,4.175094604492188,0.1236114501953125,1,0.9
2020-05-18 19:33:50.103 -0400,1589844828.999755,41.35057045532082,-71.83710698163699,7.607775,2.791029,348.0114701843,4.204909206777018,4.362065578637562,-9999,53721.49254979167,1.098709106445312,1.65155029296875,-0.171417236328125,1,0.9
2020-05-18 19:33:50.153 -0400,1589844828.999755,41.35057045532082,-71.83710698163699,7.607775,2.791029,348.0114701843,4.204909206777018,4.362065578637562,-9999,53721.54252279167,0.3769989013671875,-0.5846710205078125,-0.1114349365234375,1,0.9
2020-05-18 19:33:50.203 -0400,1589844828.999755,41.35057045532082,-71.83710698163699,7.607775,2.791029,348.0114701843,4.204909206777018,4.362065578637562,-9999,53721.59249579167,0.65875244140625,-1.202804565429688,0.0960845947265625,1,0.9
2020-05-18 19:33:50.252 -0400,1589844828.999755,41.35057045532082,-71.83710698163699,7.607775,2.791029,348.0114701843,4.204909206777018,4.362065578637562,-9999,53721.642468625,0.6275787353515625,-0.9266510009765625,0.2635955810546875,1,0.9
2020-05-18 19:33:50.302 -0400,1589844828.999755,41.35057045532082,-71.83710698163699,7.607775,2.791029,348.0114701843,4.204909206777018,4.362065578637562,-9999,53721.692440625,1.051986694335938,-0.3386383056640625,0.4168701171875,1,0.9
2020-05-18 19:33:50.352 -0400,1589844828.999755,41.35057045532082,-71.83710698163699,7.607775,2.791029,348.0114701843,4.204909206777018,4.362065578637562,-9999,53721.742413625,2.1416015625,0.7236175537109375,-0.3467864990234375,1,0.9
2020-05-18 19:33:50.402 -0400,1589844828.999755,41.35057045532082,-71.83710698163699,7.607775,2.791029,348.0114701843,4.204909206777018,4.362065578637562,-9999,53721.79238662501,4.103668212890625,3.829132080078125,-0.7173004150390625,1,0.9
2020-05-18 19:33:50.452 -0400,1589844828.999755,41.35057045532082,-71.83710698163699,7.607775,2.791029,348.0114701843,4.204909206777018,4.362065578637562,-9999,53721.84235962501,0.65008544921875,2.62957763671875,-1.071090698242188,1,0.9
2020-05-18 19:33:50.502 -0400,1589844828.999755,41.35057045532082,-71.83710698163699,7.607775,2.791029,348.0114701843,4.204909206777018,4.362065578637562,-9999,53721.892332625,-1.00439453125,0.842864990234375,-0.7613525390625,1,0.9
2020-05-18 19:33:50.552 -0400,1589844828.999755,41.35057045532082,-71.83710698163699,7.607775,2.791029,348.0114701843,4.204909206777018,4.362065578637562,-9999,53721.942305625,-0.98553466796875,0.439910888671875,-0.5919952392578125,1,0.9
2020-05-18 19:33:50.602 -0400,1589844828.999755,41.35057045532082,-71.83710698163699,7.607775,2.791029,348.0114701843,4.204909206777018,4.362065578637562,-9999,53721.992278625,-0.5677337646484375,-0.1983489990234375,0.0235748291015625,1,0.9
2020-05-18 19:33:50.652 -0400,1589844829.999756,41.35059606643345,-71.83712413076836,8.505305,2.720478,345.3393674887354,4.221707282362142,4.404886273602632,-9999,53722.042251625,-0.5213470458984375,0.0197296142578125,-0.03790283203125,1,0.9
2020-05-18 19:33:50.703 -0400,1589844829.999756,41.35059606643345,-71.83712413076836,8.505305,2.720478,345.3393674887354,4.221707282362142,4.404886273602632,-9999,53722.092224625,-0.482452392578125,0.482391357421875,0.171905517578125,1,0.9
2020-05-18 19:33:50.752 -0400,1589844829.999756,41.35059606643345,-71.83712413076836,8.505305,2.720478,345.3393674887354,4.221707282362142,4.404886273602632,-9999,53722.14219762501,-0.1549224853515625,3.339950561523438,0.2937774658203125,1,0.9
2020-05-18 19:33:50.802 -0400,1589844829.999756,41.35059606643345,-71.83712413076836,8.505305,2.720478,345.3393674887354,4.221707282362142,4.404886273602632,-9999,53722.19217062501,1.92474365234375,3.424163818359375,0.3556976318359375,1,0.9
2020-05-18 19:33:50.852 -0400,1589844829.999756,41.35059606643345,-71.83712413076836,8.505305,2.720478,345.3393674887354,4.221707282362142,4.404886273602632,-9999,53722.242143625,1.177749633789062,1.339111328125,-0.0299835205078125,1,0.9
2020-05-18 19:33:50.902 -0400,1589844829.999756,41.35059606643345,-71.83712413076836,8.505305,2.720478,345.3393674887354,4.221707282362142,4.404886273602632,-9999,53722.292116625,0.51885986328125,-0.750244140625,-0.1425628662109375,1,0.9
2020-05-18 19:33:50.952 -0400,1589844829.999756,41.35059606643345,-71.83712413076836,8.505305,2.720478,345.3393674887354,4.221707282362142,4.404886273602632,-9999,53722.342088625,0.7901611328125,-1.12847900390625,-0.12451171875,1,0.9
2020-05-18 19:33:51.002 -0400,1589844829.999756,41.35059606643345,-71.83712413076836,8.505305,2.720478,345.3393674887354,4.221707282362142,4.404886273602632,-9999,53722.392061625,0.700042724609375,-1.134552001953125,0.015167236328125,1,0.9
2020-05-18 19:33:51.052 -0400,1589844829.999756,41.35059606643345,-71.83712413076836,8.505305,2.720478,345.3393674887354,4.221707282362142,4.404886273602632,-9999,53722.442034625,0.9954376220703125,-0.3170013427734375,-0.0566558837890625,1,0.9
2020-05-18 19:33:51.102 -0400,1589844829.999756,41.35059606643345,-71.83712413076836,8.505305,2.720478,345.3393674887354,4.221707282362142,4.404886273602632,-9999,53722.49200762501,2.5684814453125,2.016372680664062,-0.23944091796875,1,0.9
2020-05-18 19:33:51.152 -0400,1589844829.999756,41.35059606643345,-71.83712413076836,8.505305,2.720478,345.3393674887354,4.221707282362142,4.404886273602632,-9999,53722.54198062501,3.835647583007812,4.08319091796875,-1.02252197265625,1,0.9
2020-05-18 19:33:51.202 -0400,1589844829.999756,41.35059606643345,-71.83712413076836,8.505305,2.720478,345.3393674887354,4.221707282362142,4.404886273602632,-9999,53722.591953625,0.3338470458984375,2.340957641601562,-0.76190185546875,1,0.9
2020-05-18 19:33:51.252 -0400,1589844829.999756,41.35059606643345,-71.83712413076836,8.505305,2.720478,345.3393674887354,4.221707282362142,4.404886273602632,-9999,53722.64192637501,-0.69970703125,0.2860107421875,-0.5370635986328125,1,0.9
2020-05-18 19:33:51.302 -0400,1589844829.999756,41.35059606643345,-71.83712413076836,8.505305,2.720478,345.3393674887354,4.221707282362142,4.404886273602632,-9999,53722.691899375,-0.98956298828125,0.3245697021484375,-0.4354400634765625,1,0.9
2020-05-18 19:33:51.352 -0400,1589844829.999756,41.35059606643345,-71.83712413076836,8.505305,2.720478,345.3393674887354,4.221707282362142,4.404886273602632,-9999,53722.741872375,-0.7220306396484375,-0.0848236083984375,-0.038238525390625,1,0.9
2020-05-18 19:33:51.402 -0400,1589844829.999756,41.35059606643345,-71.83712413076836,8.505305,2.720478,345.3393674887354,4.221707282362142,4.404886273602632,-9999,53722.791845375,-0.6817169189453125,-0.09521484375,-0.1571807861328125,1,0.9
2020-05-18 19:33:51.452 -0400,1589844829.999756,41.35059606643345,-71.83712413076836,8.505305,2.720478,345.3393674887354,4.221707282362142,4.404886273602632,-9999,53722.841818375,-0.44091796875,0.2266998291015625,0.1903533935546875,1,0.9
2020-05-18 19:33:51.502 -0400,1589844829.999756,41.35059606643345,-71.83712413076836,8.505305,2.720478,345.3393674887354,4.221707282362142,4.404886273602632,-9999,53722.891790375,-0.6877899169921875,5.31695556640625,0.3908843994140625,1,0.9
2020-05-18 19:33:51.552 -0400,1589844829.999756,41.35059606643345,-71.83712413076836,8.505305,2.720478,345.3393674887354,4.221707282362142,4.404886273602632,-9999,53722.94176337501,1.309814453125,3.645263671875,-0.081756591796875,1,0.9
2020-05-18 19:33:51.602 -0400,1589844830.999751,41.35062643927588,-71.83714159415914,8.647339,2.855003,343.4043203035395,4.26461471187466,4.42963959733164,-9999,53722.99173637501,0.9256134033203125,0.992828369140625,-0.0034332275390625,1,0.9
2020-05-18 19:33:51.652 -0400,1589844830.999751,41.35062643927588,-71.83714159415914,8.647339,2.855003,343.4043203035395,4.26461471187466,4.42963959733164,-9999,53723.041709375,0.514892578125,-1.086105346679688,-0.160888671875,1,0.9
2020-05-18 19:33:51.702 -0400,1589844830.999751,41.35062643927588,-71.83714159415914,8.647339,2.855003,343.4043203035395,4.26461471187466,4.42963959733164,-9999,53723.091682375,0.80645751953125,-1.37451171875,0.0926361083984375,1,0.9
2020-05-18 19:33:51.752 -0400,1589844830.999751,41.35062643927588,-71.83714159415914,8.647339,2.855003,343.4043203035395,4.26461471187466,4.42963959733164,-9999,53723.141655375,0.823394775390625,-0.8013916015625,0.068389892578125,1,0.9
2020-05-18 19:33:51.802 -0400,1589844830.999751,41.35062643927588,-71.83714159415914,8.647339,2.855003,343.4043203035395,4.26461471187466,4.42963959733164,-9999,53723.191628375,1.067779541015625,-0.104095458984375,0.0108489990234375,1,0.9
2020-05-18 19:33:51.852 -0400,1589844830.999751,41.35062643927588,-71.83714159415914,8.647339,2.855003,343.4043203035395,4.26461471187466,4.42963959733164,-9999,53723.241601375,3.335098266601562,3.141937255859375,-0.364898681640625,1,0.9
2020-05-18 19:33:51.902 -0400,1589844830.999751,41.35062643927588,-71.83714159415914,8.647339,2.855003,343.4043203035395,4.26461471187466,4.42963959733164,-9999,53723.29157437501,3.521621704101562,3.830352783203125,-0.889007568359375,1,0.9
2020-05-18 19:33:51.952 -0400,1589844830.999751,41.35062643927588,-71.83714159415914,8.647339,2.855003,343.4043203035395,4.26461471187466,4.42963959733164,-9999,53723.34154737501,0.3372955322265625,1.970458984375,-0.6292572021484375,1,0.9
2020-05-18 19:33:52.002 -0400,1589844830.999751,41.35062643927588,-71.83714159415914,8.647339,2.855003,343.4043203035395,4.26461471187466,4.42963959733164,-9999,53723.391520375,-0.7681427001953125,0.3001251220703125,-0.4053192138671875,1,0.9
2020-05-18 19:33:52.052 -0400,1589844830.999751,41.35062643927588,-71.83714159415914,8.647339,2.855003,343.4043203035395,4.26461471187466,4.42963959733164,-9999,53723.441493375,-1.177017211914062,0.1234588623046875,-0.4609527587890625,1,0.9
2020-05-18 19:33:52.102 -0400,1589844830.999751,41.35062643927588,-71.83714159415914,8.647339,2.855003,343.4043203035395,4.26461471187466,4.42963959733164,-9999,53723.491465375,-0.89361572265625,-0.1126861572265625,-0.0705108642578125,1,0.9
2020-05-18 19:33:50.652 -0400,1589844829.999756,41.35059606643345,-71.83712413076836,8.505305,2.720478,345.3393674887354,4.221707282362142,4.404886273602632,-9999,53722.042251625,-0.5213470458984375,0.0197296142578125,-0.03790283203125,1,0.9
2020-05-18 19:33:50.703 -0400,1589844829.999756,41.35059606643345,-71.83712413076836,8.505305,2.720478,345.3393674887354,4.221707282362142,4.404886273602632,-9999,53722.092224625,-0.482452392578125,0.482391357421875,0.171905517578125,1,0.9
2020-05-18 19:33:50.752 -0400,1589844829.999756,41.35059606643345,-71.83712413076836,8.505305,2.720478,345.3393674887354,4.221707282362142,4.404886273602632,-9999,53722.14219762501,-0.1549224853515625,3.339950561523438,0.2937774658203125,1,0.9
2020-05-18 19:33:50.802 -0400,1589844829.999756,41.35059606643345,-71.83712413076836,8.505305,2.720478,345.3393674887354,4.221707282362142,4.404886273602632,-9999,53722.19217062501,1.92474365234375,3.424163818359375,0.3556976318359375,1,0.9
2020-05-18 19:33:50.852 -0400,1589844829.999756,41.35059606643345,-71.83712413076836,8.505305,2.720478,345.3393674887354,4.221707282362142,4.404886273602632,-9999,53722.242143625,1.177749633789062,1.339111328125,-0.0299835205078125,1,0.9
2020-05-18 19:33:50.902 -0400,1589844829.999756,41.35059606643345,-71.83712413076836,8.505305,2.720478,345.3393674887354,4.221707282362142,4.404886273602632,-9999,53722.292116625,0.51885986328125,-0.750244140625,-0.1425628662109375,1,0.9
2020-05-18 19:33:50.952 -0400,1589844829.999756,41.35059606643345,-71.83712413076836,8.505305,2.720478,345.3393674887354,4.221707282362142,4.404886273602632,-9999,53722.342088625,0.7901611328125,-1.12847900390625,-0.12451171875,1,0.9
2020-05-18 19:33:51.002 -0400,1589844829.999756,41.35059606643345,-71.83712413076836,8.505305,2.720478,345.3393674887354,4.221707282362142,4.404886273602632,-9999,53722.392061625,0.700042724609375,-1.134552001953125,0.015167236328125,1,0.9
2020-05-18 19:33:51.052 -0400,1589844829.999756,41.35059606643345,-71.83712413076836,8.505305,2.720478,345.3393674887354,4.221707282362142,4.404886273602632,-9999,53722.442034625,0.9954376220703125,-0.3170013427734375,-0.0566558837890625,1,0.9
2020-05-18 19:33:51.102 -0400,1589844829.999756,41.35059606643345,-71.83712413076836,8.505305,2.720478,345.3393674887354,4.221707282362142,4.404886273602632,-9999,53722.49200762501,2.5684814453125,2.016372680664062,-0.23944091796875,1,0.9
2020-05-18 19:33:51.152 -0400,1589844829.999756,41.35059606643345,-71.83712413076836,8.505305,2.720478,345.3393674887354,4.221707282362142,4.404886273602632,-9999,53722.54198062501,3.835647583007812,4.08319091796875,-1.02252197265625,1,0.9
2020-05-18 19:33:51.202 -0400,1589844829.999756,41.35059606643345,-71.83712413076836,8.505305,2.720478,345.3393674887354,4.221707282362142,4.404886273602632,-9999,53722.591953625,0.3338470458984375,2.340957641601562,-0.76190185546875,1,0.9
2020-05-18 19:33:51.252 -0400,1589844829.999756,41.35059606643345,-71.83712413076836,8.505305,2.720478,345.3393674887354,4.221707282362142,4.404886273602632,-9999,53722.64192637501,-0.69970703125,0.2860107421875,-0.5370635986328125,1,0.9
2020-05-18 19:33:51.302 -0400,1589844829.999756,41.35059606643345,-71.83712413076836,8.505305,2.720478,345.3393674887354,4.221707282362142,4.404886273602632,-9999,53722.691899375,-0.98956298828125,0.3245697021484375,-0.4354400634765625,1,0.9
2020-05-18 19:33:51.352 -0400,1589844829.999756,41.35059606643345,-71.83712413076836,8.505305,2.720478,345.3393674887354,4.221707282362142,4.404886273602632,-9999,53722.741872375,-0.7220306396484375,-0.0848236083984375,-0.038238525390625,1,0.9
2020-05-18 19:33:51.402 -0400,1589844829.999756,41.35059606643345,-71.83712413076836,8.505305,2.720478,345.3393674887354,4.221707282362142,4.404886273602632,-9999,53722.791845375,-0.6817169189453125,-0.09521484375,-0.1571807861328125,1,0.9
2020-05-18 19:33:51.452 -0400,1589844829.999756,41.35059606643345,-71.83712413076836,8.505305,2.720478,345.3393674887354,4.221707282362142,4.404886273602632,-9999,53722.841818375,-0.44091796875,0.2266998291015625,0.1903533935546875,1,0.9
2020-05-18 19:33:51.502 -0400,1589844829.999756,41.35059606643345,-71.83712413076836,8.505305,2.720478,345.3393674887354,4.221707282362142,4.404886273602632,-9999,53722.891790375,-0.6877899169921875,5.31695556640625,0.3908843994140625,1,0.9
2020-05-18 19:33:51.552 -0400,1589844829.999756,41.35059606643345,-71.83712413076836,8.505305,2.720478,345.3393674887354,4.221707282362142,4.404886273602632,-9999,53722.94176337501,1.309814453125,3.645263671875,-0.081756591796875,1,0.9
2020-05-18 19:33:51.602 -0400,1589844830.999751,41.35062643927588,-71.83714159415914,8.647339,2.855003,343.4043203035395,4.26461471187466,4.42963959733164,-9999,53722.99173637501,0.9256134033203125,0.992828369140625,-0.0034332275390625,1,0.9
2020-05-18 19:33:51.652 -0400,1589844830.999751,41.35062643927588,-71.83714159415914,8.647339,2.855003,343.4043203035395,4.26461471187466,4.42963959733164,-9999,53723.041709375,0.514892578125,-1.086105346679688,-0.160888671875,1,0.9
2020-05-18 19:33:51.702 -0400,1589844830.999751,41.35062643927588,-71.83714159415914,8.647339,2.855003,343.4043203035395,4.26461471187466,4.42963959733164,-9999,53723.091682375,0.80645751953125,-1.37451171875,0.0926361083984375,1,0.9
2020-05-18 19:33:51.752 -0400,1589844830.999751,41.35062643927588,-71.83714159415914,8.647339,2.855003,343.4043203035395,4.26461471187466,4.42963959733164,-9999,53723.141655375,0.823394775390625,-0.8013916015625,0.068389892578125,1,0.9
2020-05-18 19:33:51.802 -0400,1589844830.999751,41.35062643927588,-71.83714159415914,8.647339,2.855003,343.4043203035395,4.26461471187466,4.42963959733164,-9999,53723.191628375,1.067779541015625,-0.104095458984375,0.0108489990234375,1,0.9
2020-05-18 19:33:51.852 -0400,1589844830.999751,41.35062643927588,-71.83714159415914,8.647339,2.855003,343.4043203035395,4.26461471187466,4.42963959733164,-9999,53723.241601375,3.335098266601562,3.141937255859375,-0.364898681640625,1,0.9
2020-05-18 19:33:51.902 -0400,1589844830.999751,41.35062643927588,-71.83714159415914,8.647339,2.855003,343.4043203035395,4.26461471187466,4.42963959733164,-9999,53723.29157437501,3.521621704101562,3.830352783203125,-0.889007568359375,1,0.9
2020-05-18 19:33:51.952 -0400,1589844830.999751,41.35062643927588,-71.83714159415914,8.647339,2.855003,343.4043203035395,4.26461471187466,4.42963959733164,-9999,53723.34154737501,0.3372955322265625,1.970458984375,-0.6292572021484375,1,0.9
2020-05-18 19:33:52.002 -0400,1589844830.999751,41.35062643927588,-71.83714159415914,8.647339,2.855003,343.4043203035395,4.26461471187466,4.42963959733164,-9999,53723.391520375,-0.7681427001953125,0.3001251220703125,-0.4053192138671875,1,0.9
2020-05-18 19:33:52.052 -0400,1589844830.999751,41.35062643927588,-71.83714159415914,8.647339,2.855003,343.4043203035395,4.26461471187466,4.42963959733164,-9999,53723.441493375,-1.177017211914062,0.1234588623046875,-0.4609527587890625,1,0.9
2020-05-18 19:33:52.102 -0400,1589844830.999751,41.35062643927588,-71.83714159415914,8.647339,2.855003,343.4043203035395,4.26461471187466,4.42963959733164,-9999,53723.491465375,-0.89361572265625,-0.1126861572265625,-0.0705108642578125,1,0.9
2020-05-18 19:33:52.151 -0400,1589844830.999751,41.35062643927588,-71.83714159415914,8.647339,2.855003,343.4043203035395,4.26461471187466,4.42963959733164,-9999,53723.541438375,-0.571624755859375,-0.04705810546875,-0.1230621337890625,1,0.9
2020-05-18 19:33:52.201 -0400,1589844830.999751,41.35062643927588,-71.83714159415914,8.647339,2.855003,343.4043203035395,4.26461471187466,4.42963959733164,-9999,53723.591411375,-0.44110107421875,1.117538452148438,0.14996337890625,1,0.9
2020-05-18 19:33:52.251 -0400,1589844830.999751,41.35062643927588,-71.83714159415914,8.647339,2.855003,343.4043203035395,4.26461471187466,4.42963959733164,-9999,53723.64138437501,0.345123291015625,5.221160888671875,0.3930511474609375,1,0.9
2020-05-18 19:33:52.301 -0400,1589844830.999751,41.35062643927588,-71.83714159415914,8.647339,2.855003,343.4043203035395,4.26461471187466,4.42963959733164,-9999,53723.69135737501,1.024063110351562,2.430267333984375,-0.12103271484375,1,0.9
2020-05-18 19:33:52.355 -0400,1589844830.999751,41.35062643927588,-71.83714159415914,8.647339,2.855003,343.4043203035395,4.26461471187466,4.42963959733164,-9999,53723.741330375,0.6474151611328125,0.52587890625,-0.290557861328125,1,0.9
2020-05-18 19:33:52.421 -0400,1589844830.999751,41.35062643927588,-71.83714159415914,8.647339,2.855003,343.4043203035395,4.26461471187466,4.42963959733164,-9999,53723.791303375,0.255340576171875,-0.86981201171875,0.0063018798828125,1,0.9
2020-05-18 19:33:52.451 -0400,1589844830.999751,41.35062643927588,-71.83714159415914,8.647339,2.855003,343.4043203035395,4.26461471187466,4.42963959733164,-9999,53723.841276375,0.5899810791015625,-0.9310760498046875,0.2156982421875,1,0.9
2020-05-18 19:33:52.513 -0400,1589844830.999751,41.35062643927588,-71.83714159415914,8.647339,2.855003,343.4043203035395,4.26461471187466,4.42963959733164,-9999,53723.891249375,0.6771392822265625,-0.6124114990234375,0.2158050537109375,1,0.9
2020-05-18 19:36:01.792 -0400,1589844960.999682,41.35456482419669,-71.8396889793279,9.344537,3.777904,315.3207018137803,4.441750817559963,4.857733946704846,-9999,53853.170497625,0.167266845703125,0.540069580078125,-1.477523803710938,1,0.9
2020-05-18 19:36:01.830 -0400,1589844960.999682,41.35456482419669,-71.8396889793279,9.344537,3.777904,315.3207018137803,4.441750817559963,4.857733946704846,-9999,53853.220469625,0.06915283203125,0.5189056396484375,-1.247665405273438,1,0.9
2020-05-18 19:36:01.880 -0400,1589844960.999682,41.35456482419669,-71.8396889793279,9.344537,3.777904,315.3207018137803,4.441750817559963,4.857733946704846,-9999,53853.27044262501,0.06793212890625,0.1641387939453125,-0.835968017578125,1,0.9
2020-05-18 19:36:01.930 -0400,1589844960.999682,41.35456482419669,-71.8396889793279,9.344537,3.777904,315.3207018137803,4.441750817559963,4.857733946704846,-9999,53853.32041562501,-0.0097198486328125,-0.0531005859375,-0.67633056640625,1,0.9
2020-05-18 19:36:01.980 -0400,1589844960.999682,41.35456482419669,-71.8396889793279,9.344537,3.777904,315.3207018137803,4.441750817559963,4.857733946704846,-9999,53853.370387625,-0.092254638671875,0.0097808837890625,-0.5244903564453125,1,0.9
2020-05-18 19:36:02.030 -0400,1589844960.999682,41.35456482419669,-71.8396889793279,9.344537,3.777904,315.3207018137803,4.441750817559963,4.857733946704846,-9999,53853.420360625,-0.1819915771484375,0.014251708984375,-0.61529541015625,1,0.9
2020-05-18 19:36:02.082 -0400,1589844960.999682,41.35456482419669,-71.8396889793279,9.344537,3.777904,315.3207018137803,4.441750817559963,4.857733946704846,-9999,53853.470332625,-0.1989898681640625,0.1060028076171875,-0.894134521484375,1,0.9
2020-05-18 19:36:02.130 -0400,1589844960.999682,41.35456482419669,-71.8396889793279,9.344537,3.777904,315.3207018137803,4.441750817559963,4.857733946704846,-9999,53853.520305625,-0.059814453125,0.2671356201171875,-1.2613525390625,1,0.9
2020-05-18 19:36:02.180 -0400,1589844960.999682,41.35456482419669,-71.8396889793279,9.344537,3.777904,315.3207018137803,4.441750817559963,4.857733946704846,-9999,53853.570278625,-0.008819580078125,0.1483917236328125,-1.082794189453125,1,0.9
2020-05-18 19:36:02.230 -0400,1589844960.999682,41.35456482419669,-71.8396889793279,9.344537,3.777904,315.3207018137803,4.441750817559963,4.857733946704846,-9999,53853.620250625,-0.268798828125,0.094268798828125,-1.118392944335938,1,0.9
2020-05-18 19:36:02.280 -0400,1589844961.99968,41.35456911066979,-71.83973324065633,10.15052,3.132118,298.3710119607564,4.442081800183255,4.910876185064963,-9999,53853.67022362501,0.0106048583984375,0.4904937744140625,-1.303817749023438,1,0.9
2020-05-18 19:36:02.330 -0400,1589844961.99968,41.35456911066979,-71.83973324065633,10.15052,3.132118,298.3710119607564,4.442081800183255,4.910876185064963,-9999,53853.72019662501,0.0091094970703125,0.6187744140625,-1.167999267578125,1,0.9
2020-05-18 19:36:02.380 -0400,1589844961.99968,41.35456911066979,-71.83973324065633,10.15052,3.132118,298.3710119607564,4.442081800183255,4.910876185064963,-9999,53853.770168625,-0.289093017578125,0.3765869140625,-0.931976318359375,1,0.9
