loggingTime(txt),locationTimestamp_since1970(s),locationLatitude(WGS84),locationLongitude(WGS84),locationAltitude(m),locationSpeed(m/s),locationCourse(°),locationVerticalAccuracy(m),locationHorizontalAccuracy(m),locationFloor(Z),accelerometerTimestamp_sinceReboot(s),accelerometerAccelerationX(G),accelerometerAccelerationY(G),accelerometerAccelerationZ(G),batteryState,batteryLevel
2020-05-18 19:20:59.123 -0400,1589844058.248338,41.34614905082717,-71.83474998526599,9.388096,0.8561929,179.5157543832667,2.475583758196046,5.398456435230463,-9999,52950.78603512501,0.0477142333984375,0.047119140625,-0.648223876953125,1,0.91
2020-05-18 19:20:59.163 -0400,1589844058.248338,41.34614905082717,-71.83474998526599,9.388096,0.8561929,179.5157543832667,2.475583758196046,5.398456435230463,-9999,52950.83592500001,0.0868072509765625,0.0236968994140625,-0.650970458984375,1,0.91
2020-05-18 19:20:59.213 -0400,1589844058.248338,41.34614905082717,-71.83474998526599,9.388096,0.8561929,179.5157543832667,2.475583758196046,5.398456435230463,-9999,52950.885815,0.115753173828125,0.1006317138671875,-0.7779388427734375,1,0.91
2020-05-18 19:20:59.263 -0400,1589844058.248338,41.34614905082717,-71.83474998526599,9.388096,0.8561929,179.5157543832667,2.475583758196046,5.398456435230463,-9999,52950.935704,0.1172637939453125,0.222015380859375,-0.9739227294921875,1,0.91
2020-05-18 19:20:59.313 -0400,1589844058.248338,41.34614905082717,-71.83474998526599,9.388096,0.8561929,179.5157543832667,2.475583758196046,5.398456435230463,-9999,52950.985592,0.2786865234375,0.260406494140625,-1.236175537109375,1,0.91
2020-05-18 19:20:59.363 -0400,1589844058.248338,41.34614905082717,-71.83474998526599,9.388096,0.8561929,179.5157543832667,2.475583758196046,5.398456435230463,-9999,52951.03548000001,0.3663787841796875,0.1297760009765625,-0.9741668701171875,1,0.91
2020-05-18 19:20:59.413 -0400,1589844058.248338,41.34614905082717,-71.83474998526599,9.388096,0.8561929,179.5157543832667,2.475583758196046,5.398456435230463,-9999,52951.085369,0.1892547607421875,0.3208465576171875,-1.140045166015625,1,0.91
2020-05-18 19:20:59.462 -0400,1589844058.248338,41.34614905082717,-71.83474998526599,9.388096,0.8561929,179.5157543832667,2.475583758196046,5.398456435230463,-9999,52951.135257,0.693023681640625,0.3151702880859375,-1.242401123046875,1,0.91
2020-05-18 19:20:59.513 -0400,1589844058.248338,41.34614905082717,-71.83474998526599,9.388096,0.8561929,179.5157543832667,2.475583758196046,5.398456435230463,-9999,52951.185146,0.9291229248046875,0.442962646484375,-1.224777221679688,1,0.91
2020-05-18 19:20:59.562 -0400,1589844058.248338,41.34614905082717,-71.83474998526599,9.388096,0.8561929,179.5157543832667,2.475583758196046,5.398456435230463,-9999,52951.235034,0.649261474609375,0.364990234375,-1.120864868164062,1,0.91
2020-05-18 19:20:59.614 -0400,1589844058.248338,41.34614905082717,-71.83474998526599,9.388096,0.8561929,179.5157543832667,2.475583758196046,5.398456435230463,-9999,52951.28492200001,0.509674072265625,0.23046875,-0.475067138671875,1,0.91
2020-05-18 19:20:59.662 -0400,1589844058.248338,41.34614905082717,-71.83474998526599,9.388096,0.8561929,179.5157543832667,2.475583758196046,5.398456435230463,-9999,52951.334809,0.022705078125,0.93896484375,-0.4595489501953125,1,0.91
2020-05-18 19:20:59.712 -0400,1589844058.248338,41.34614905082717,-71.83474998526599,9.388096,0.8561929,179.5157543832667,2.475583758196046,5.398456435230463,-9999,52951.384696,-0.8516998291015625,0.4627685546875,-0.1710052490234375,1,0.91
2020-05-18 19:20:59.762 -0400,1589844058.248338,41.34614905082717,-71.83474998526599,9.388096,0.8561929,179.5157543832667,2.475583758196046,5.398456435230463,-9999,52951.434585,-0.792938232421875,0.7866973876953125,-0.521148681640625,1,0.91
2020-05-18 19:20:59.812 -0400,1589844058.999676,41.34613231648301,-71.83474381017142,9.130278,0.9750918,171.7812241813068,2.499431906774104,5.37336302589909,-9999,52951.484473,-0.4852447509765625,0.786346435546875,-0.2100982666015625,1,0.91
2020-05-18 19:20:59.862 -0400,1589844058.999676,41.34613231648301,-71.83474381017142,9.130278,0.9750918,171.7812241813068,2.499431906774104,5.37336302589909,-9999,52951.53436200001,0.264556884765625,2.69293212890625,-0.7697906494140625,1,0.91
2020-05-18 19:20:59.912 -0400,1589844058.999676,41.34613231648301,-71.83474381017142,9.130278,0.9750918,171.7812241813068,2.499431906774104,5.37336302589909,-9999,52951.584252,0.8014068603515625,2.429412841796875,-0.6122894287109375,1,0.91
2020-05-18 19:20:59.962 -0400,1589844058.999676,41.34613231648301,-71.83474381017142,9.130278,0.9750918,171.7812241813068,2.499431906774104,5.37336302589909,-9999,52951.634142,0.653717041015625,1.047103881835938,-0.303741455078125,1,0.91
2020-05-18 19:21:00.012 -0400,1589844058.999676,41.34613231648301,-71.83474381017142,9.130278,0.9750918,171.7812241813068,2.499431906774104,5.37336302589909,-9999,52951.684029,0.39794921875,-0.219329833984375,-0.214935302734375,1,0.91
2020-05-18 19:21:00.061 -0400,1589844058.999676,41.34613231648301,-71.83474381017142,9.130278,0.9750918,171.7812241813068,2.499431906774104,5.37336302589909,-9999,52951.73391700001,0.252777099609375,-0.502349853515625,-0.0953521728515625,1,0.91
2020-05-18 19:21:00.114 -0400,1589844058.999676,41.34613231648301,-71.83474381017142,9.130278,0.9750918,171.7812241813068,2.499431906774104,5.37336302589909,-9999,52951.78380400001,0.268096923828125,-0.5691070556640625,0.1863555908203125,1,0.91
2020-05-18 19:21:00.161 -0400,1589844058.999676,41.34613231648301,-71.83474381017142,9.130278,0.9750918,171.7812241813068,2.499431906774104,5.37336302589909,-9999,52951.83368975,0.6026153564453125,-0.131988525390625,0.1669769287109375,1,0.91
2020-05-18 19:21:00.211 -0400,1589844058.999676,41.34613231648301,-71.83474381017142,9.130278,0.9750918,171.7812241813068,2.499431906774104,5.37336302589909,-9999,52951.88357675001,1.099685668945312,0.1098175048828125,0.1841278076171875,1,0.91
2020-05-18 19:21:00.261 -0400,1589844058.999676,41.34613231648301,-71.83474381017142,9.130278,0.9750918,171.7812241813068,2.499431906774104,5.37336302589909,-9999,52951.93346675,3.07122802734375,2.092025756835938,-0.8196868896484375,1,0.91
2020-05-18 19:21:00.311 -0400,1589844058.999676,41.34613231648301,-71.83474381017142,9.130278,0.9750918,171.7812241813068,2.499431906774104,5.37336302589909,-9999,52951.98335275,2.096893310546875,2.520980834960938,-0.8107757568359375,1,0.91
2020-05-18 19:21:00.361 -0400,1589844059.999676,41.34611279956676,-71.83473378782391,7.868372,1.330382,167.5520359865662,2.504818533614539,5.401139218261704,-9999,52952.03324275,0.71966552734375,1.566131591796875,-0.9593658447265625,1,0.91
2020-05-18 19:21:00.410 -0400,1589844059.999676,41.34611279956676,-71.83473378782391,7.868372,1.330382,167.5520359865662,2.504818533614539,5.401139218261704,-9999,52952.08313375001,-0.48065185546875,0.8741607666015625,-0.532867431640625,1,0.91
2020-05-18 19:21:00.460 -0400,1589844059.999676,41.34611279956676,-71.83473378782391,7.868372,1.330382,167.5520359865662,2.504818533614539,5.401139218261704,-9999,52952.13302275,-0.8656158447265625,0.30975341796875,-0.3424530029296875,1,0.91
2020-05-18 19:21:00.510 -0400,1589844059.999676,41.34611279956676,-71.83473378782391,7.868372,1.330382,167.5520359865662,2.504818533614539,5.401139218261704,-9999,52952.18291075,-0.7722625732421875,-0.1754150390625,0.0948333740234375,1,0.91
2020-05-18 19:21:00.560 -0400,1589844059.999676,41.34611279956676,-71.83473378782391,7.868372,1.330382,167.5520359865662,2.504818533614539,5.401139218261704,-9999,52952.23280075,-0.3714447021484375,0.194061279296875,-0.276397705078125,1,0.91
2020-05-18 19:21:00.610 -0400,1589844059.999676,41.34611279956676,-71.83473378782391,7.868372,1.330382,167.5520359865662,2.504818533614539,5.401139218261704,-9999,52952.28269375001,0.0877227783203125,0.8764801025390625,-0.2002105712890625,1,0.91
2020-05-18 19:21:00.660 -0400,1589844059.999676,41.34611279956676,-71.83473378782391,7.868372,1.330382,167.5520359865662,2.504818533614539,5.401139218261704,-9999,52952.33258475,-0.2946624755859375,2.971771240234375,-0.20526123046875,1,0.91
2020-05-18 19:21:00.710 -0400,1589844059.999676,41.34611279956676,-71.83473378782391,7.868372,1.330382,167.5520359865662,2.504818533614539,5.401139218261704,-9999,52952.38247675,0.8401031494140625,3.077789306640625,0.0568389892578125,1,0.91
2020-05-18 19:21:00.760 -0400,1589844059.999676,41.34611279956676,-71.83473378782391,7.868372,1.330382,167.5520359865662,2.504818533614539,5.401139218261704,-9999,52952.43236575001,0.685089111328125,1.2933349609375,0.0748291015625,1,0.91
2020-05-18 19:21:00.810 -0400,1589844059.999676,41.34611279956676,-71.83473378782391,7.868372,1.330382,167.5520359865662,2.504818533614539,5.401139218261704,-9999,52952.48225275,0.2628021240234375,0.0858306884765625,-0.1510772705078125,1,0.91
2020-05-18 19:21:00.859 -0400,1589844059.999676,41.34611279956676,-71.83473378782391,7.868372,1.330382,167.5520359865662,2.504818533614539,5.401139218261704,-9999,52952.53214075,0.427032470703125,-0.62493896484375,0.0432586669921875,1,0.91
2020-05-18 19:21:00.909 -0400,1589844059.999676,41.34611279956676,-71.83473378782391,7.868372,1.330382,167.5520359865662,2.504818533614539,5.401139218261704,-9999,52952.58203275,0.5131378173828125,-0.7963409423828125,0.2981414794921875,1,0.91
2020-05-18 19:21:00.959 -0400,1589844059.999676,41.34611279956676,-71.83473378782391,7.868372,1.330382,167.5520359865662,2.504818533614539,5.401139218261704,-9999,52952.63192675,0.8287506103515625,-0.1472015380859375,0.160491943359375,1,0.91
2020-05-18 19:21:01.009 -0400,1589844059.999676,41.34611279956676,-71.83473378782391,7.868372,1.330382,167.5520359865662,2.504818533614539,5.401139218261704,-9999,52952.68181675,1.2537841796875,0.3415679931640625,0.0150909423828125,1,0.91
2020-05-18 19:21:01.063 -0400,1589844059.999676,41.34611279956676,-71.83473378782391,7.868372,1.330382,167.5520359865662,2.504818533614539,5.401139218261704,-9999,52952.73170675,3.493408203125,3.148834228515625,-0.528350830078125,1,0.91
2020-05-18 19:21:01.109 -0400,1589844059.999676,41.34611279956676,-71.83473378782391,7.868372,1.330382,167.5520359865662,2.504818533614539,5.401139218261704,-9999,52952.78159575001,1.645645141601562,2.451751708984375,-0.85345458984375,1,0.91
2020-05-18 19:21:01.159 -0400,1589844059.999676,41.34611279956676,-71.83473378782391,7.868372,1.330382,167.5520359865662,2.504818533614539,5.401139218261704,-9999,52952.83148541667,0.347412109375,1.577560424804688,-0.63995361328125,1,0.91
2020-05-18 19:21:01.209 -0400,1589844059.999676,41.34611279956676,-71.83473378782391,7.868372,1.330382,167.5520359865662,2.504818533614539,5.401139218261704,-9999,52952.88137441667,-0.847564697265625,0.682830810546875,-0.6183319091796875,1,0.91
2020-05-18 19:21:01.259 -0400,1589844059.999676,41.34611279956676,-71.83473378782391,7.868372,1.330382,167.5520359865662,2.504818533614539,5.401139218261704,-9999,52952.93126441667,-1.079696655273438,0.189971923828125,-0.580078125,1,0.91
2020-05-18 19:21:01.308 -0400,1589844059.999676,41.34611279956676,-71.83473378782391,7.868372,1.330382,167.5520359865662,2.504818533614539,5.401139218261704,-9999,52952.98115441667,-0.6104888916015625,-0.0875396728515625,-0.0986175537109375,1,0.91
2020-05-18 19:21:01.358 -0400,1589844060.999676,41.34609723400987,-71.834732656657,6.237428,0.994975,166.6367636916341,2.641257238338732,5.181534254804468,-9999,52953.03104341667,-0.353729248046875,0.125030517578125,-0.0169677734375,1,0.91
2020-05-18 19:21:01.408 -0400,1589844060.999676,41.34609723400987,-71.834732656657,6.237428,0.994975,166.6367636916341,2.641257238338732,5.181534254804468,-9999,52953.08093241667,-0.1616668701171875,0.86151123046875,0.0135498046875,1,0.91
2020-05-18 19:21:01.458 -0400,1589844060.999676,41.34609723400987,-71.834732656657,6.237428,0.994975,166.6367636916341,2.641257238338732,5.181534254804468,-9999,52953.13082241667,1.089126586914062,4.407852172851562,-0.04766845703125,1,0.91
2020-05-18 19:21:01.508 -0400,1589844060.999676,41.34609723400987,-71.834732656657,6.237428,0.994975,166.6367636916341,2.641257238338732,5.181534254804468,-9999,52953.18071341667,0.7935791015625,2.58843994140625,-0.26959228515625,1,0.91
2020-05-18 19:21:01.559 -0400,1589844060.999676,41.34609723400987,-71.834732656657,6.237428,0.994975,166.6367636916341,2.641257238338732,5.181534254804468,-9999,52953.23060341667,0.4838104248046875,0.7213592529296875,0.03662109375,1,0.91
2020-05-18 19:21:01.608 -0400,1589844060.999676,41.34609723400987,-71.834732656657,6.237428,0.994975,166.6367636916341,2.641257238338732,5.181534254804468,-9999,52953.28049341667,0.42608642578125,-0.4211273193359375,-0.070709228515625,1,0.91
2020-05-18 19:21:01.658 -0400,1589844060.999676,41.34609723400987,-71.834732656657,6.237428,0.994975,166.6367636916341,2.641257238338732,5.181534254804468,-9999,52953.33038441667,0.5380859375,-0.8867950439453125,0.100830078125,1,0.91
2020-05-18 19:21:01.707 -0400,1589844060.999676,41.34609723400987,-71.834732656657,6.237428,0.994975,166.6367636916341,2.641257238338732,5.181534254804468,-9999,52953.38027841667,0.4386749267578125,-0.6124267578125,0.0760345458984375,1,0.91
2020-05-18 19:21:01.757 -0400,1589844060.999676,41.34609723400987,-71.834732656657,6.237428,0.994975,166.6367636916341,2.641257238338732,5.181534254804468,-9999,52953.43016941667,0.6646728515625,-0.0682525634765625,0.172576904296875,1,0.91
2020-05-18 19:21:01.807 -0400,1589844060.999676,41.34609723400987,-71.834732656657,6.237428,0.994975,166.6367636916341,2.641257238338732,5.181534254804468,-9999,52953.48006141667,1.383407592773438,0.4100341796875,-0.20159912109375,1,0.91
2020-05-18 19:21:01.857 -0400,1589844060.999676,41.34609723400987,-71.834732656657,6.237428,0.994975,166.6367636916341,2.641257238338732,5.181534254804468,-9999,52953.52995341667,3.661941528320312,2.935379028320312,-0.5315704345703125,1,0.91
2020-05-18 19:21:01.907 -0400,1589844060.999676,41.34609723400987,-71.834732656657,6.237428,0.994975,166.6367636916341,2.641257238338732,5.181534254804468,-9999,52953.57984641667,1.783248901367188,2.41143798828125,-0.5148162841796875,1,0.91
2020-05-18 19:21:01.957 -0400,1589844060.999676,41.34609723400987,-71.834732656657,6.237428,0.994975,166.6367636916341,2.641257238338732,5.181534254804468,-9999,52953.62973841667,0.403076171875,1.421951293945312,-0.5778656005859375,1,0.91
2020-05-18 19:21:02.007 -0400,1589844060.999676,41.34609723400987,-71.834732656657,6.237428,0.994975,166.6367636916341,2.641257238338732,5.181534254804468,-9999,52953.67962741667,-0.64495849609375,0.6237945556640625,-0.44342041015625,1,0.91
2020-05-18 19:21:02.057 -0400,1589844060.999676,41.34609723400987,-71.834732656657,6.237428,0.994975,166.6367636916341,2.641257238338732,5.181534254804468,-9999,52953.72951441667,-0.9994964599609375,0.18731689453125,-0.32684326171875,1,0.91
2020-05-18 19:21:02.107 -0400,1589844060.999676,41.34609723400987,-71.834732656657,6.237428,0.994975,166.6367636916341,2.641257238338732,5.181534254804468,-9999,52953.77940341667,-0.592437744140625,0.1714324951171875,-0.019134521484375,1,0.91
2020-05-18 19:21:02.157 -0400,1589844060.999676,41.34609723400987,-71.834732656657,6.237428,0.994975,166.6367636916341,2.641257238338732,5.181534254804468,-9999,52953.82929241667,-0.329803466796875,0.59393310546875,-0.1538543701171875,1,0.91
2020-05-18 19:21:02.206 -0400,1589844060.999676,41.34609723400987,-71.834732656657,6.237428,0.994975,166.6367636916341,2.641257238338732,5.181534254804468,-9999,52953.87918304167,-0.0657501220703125,0.7465667724609375,-0.031036376953125,1,0.91
2020-05-18 19:21:02.256 -0400,1589844060.999676,41.34609723400987,-71.834732656657,6.237428,0.994975,166.6367636916341,2.641257238338732,5.181534254804468,-9999,52953.92907704167,0.5214996337890625,4.120925903320312,0.457489013671875,1,0.91
2020-05-18 19:21:02.306 -0400,1589844060.999676,41.34609723400987,-71.834732656657,6.237428,0.994975,166.6367636916341,2.641257238338732,5.181534254804468,-9999,52953.97897204167,1.114776611328125,2.451065063476562,-0.178436279296875,1,0.91
2020-05-18 19:21:02.363 -0400,1589844060.999676,41.34609723400987,-71.834732656657,6.237428,0.994975,166.6367636916341,2.641257238338732,5.181534254804468,-9999,52954.02886504167,0.4378662109375,0.696929931640625,-0.01043701171875,1,0.91
2020-05-18 19:21:02.406 -0400,1589844060.999676,41.34609723400987,-71.834732656657,6.237428,0.994975,166.6367636916341,2.641257238338732,5.181534254804468,-9999,52954.07875804167,0.024169921875,-0.13043212890625,0.11236572265625,1,0.91
2020-05-18 19:21:02.472 -0400,1589844060.999676,41.34609723400987,-71.834732656657,6.237428,0.994975,166.6367636916341,2.641257238338732,5.181534254804468,-9999,52954.12864804167,0.428558349609375,-0.5751800537109375,-0.100677490234375,1,0.91
2020-05-18 19:21:02.506 -0400,1589844060.999676,41.34609723400987,-71.834732656657,6.237428,0.994975,166.6367636916341,2.641257238338732,5.181534254804468,-9999,52954.17853604167,0.3170318603515625,-0.960784912109375,0.1644744873046875,1,0.91
2020-05-18 19:21:02.574 -0400,1589844060.999676,41.34609723400987,-71.834732656657,6.237428,0.994975,166.6367636916341,2.641257238338732,5.181534254804468,-9999,52954.22842504167,0.661773681640625,-0.296539306640625,0.1509857177734375,1,0.91
2020-05-18 19:21:02.606 -0400,1589844060.999676,41.34609723400987,-71.834732656657,6.237428,0.994975,166.6367636916341,2.641257238338732,5.181534254804468,-9999,52954.27831804167,1.921722412109375,0.2460479736328125,0.126434326171875,1,0.91
2020-05-18 19:21:02.659 -0400,1589844060.999676,41.34609723400987,-71.834732656657,6.237428,0.994975,166.6367636916341,2.641257238338732,5.181534254804468,-9999,52954.32820904167,4.290725708007812,3.276458740234375,-1.876388549804688,1,0.91
2020-05-18 19:21:02.705 -0400,1589844061.999669,41.34607652789644,-71.8347343616704,7.653882,1.401754,170.9381417494652,2.775973653287894,5.110626899807919,-9999,52954.37810104167,1.479019165039062,2.335296630859375,-1.023849487304688,1,0.91
2020-05-18 19:21:02.755 -0400,1589844061.999669,41.34607652789644,-71.8347343616704,7.653882,1.401754,170.9381417494652,2.775973653287894,5.110626899807919,-9999,52954.42799104167,-0.054473876953125,0.9981842041015625,-0.253997802734375,1,0.91
2020-05-18 19:21:02.805 -0400,1589844061.999669,41.34607652789644,-71.8347343616704,7.653882,1.401754,170.9381417494652,2.775973653287894,5.110626899807919,-9999,52954.47787904167,-1.11492919921875,0.9094390869140625,-0.4347686767578125,1,0.91
2020-05-18 19:21:02.855 -0400,1589844061.999669,41.34607652789644,-71.8347343616704,7.653882,1.401754,170.9381417494652,2.775973653287894,5.110626899807919,-9999,52954.52777004167,-1.003372192382812,0.251007080078125,-0.5118408203125,1,0.91
2020-05-18 19:21:02.905 -0400,1589844061.999669,41.34607652789644,-71.8347343616704,7.653882,1.401754,170.9381417494652,2.775973653287894,5.110626899807919,-9999,52954.57766404167,-0.52362060546875,0.058868408203125,-0.2654571533203125,1,0.91
2020-05-18 19:21:02.955 -0400,1589844061.999669,41.34607652789644,-71.8347343616704,7.653882,1.401754,170.9381417494652,2.775973653287894,5.110626899807919,-9999,52954.62755604167,-0.1728057861328125,0.3661651611328125,-0.376007080078125,1,0.91
2020-05-18 19:21:03.005 -0400,1589844061.999669,41.34607652789644,-71.8347343616704,7.653882,1.401754,170.9381417494652,2.775973653287894,5.110626899807919,-9999,52954.67744404167,0.20245361328125,1.15960693359375,-0.0708465576171875,1,0.91
2020-05-18 19:21:03.055 -0400,1589844061.999669,41.34607652789644,-71.8347343616704,7.653882,1.401754,170.9381417494652,2.775973653287894,5.110626899807919,-9999,52954.72733204167,1.255630493164062,4.603424072265625,-0.5128631591796875,1,0.91
2020-05-18 19:21:03.104 -0400,1589844061.999669,41.34607652789644,-71.8347343616704,7.653882,1.401754,170.9381417494652,2.775973653287894,5.110626899807919,-9999,52954.77722104167,0.75592041015625,2.626876831054688,-0.48382568359375,1,0.91
2020-05-18 19:21:03.154 -0400,1589844061.999669,41.34607652789644,-71.8347343616704,7.653882,1.401754,170.9381417494652,2.775973653287894,5.110626899807919,-9999,52954.82711104167,0.378509521484375,0.4669189453125,0.1942138671875,1,0.91
2020-05-18 19:21:03.204 -0400,1589844061.999669,41.34607652789644,-71.8347343616704,7.653882,1.401754,170.9381417494652,2.775973653287894,5.110626899807919,-9999,52954.87700225,0.181793212890625,-0.3584747314453125,-0.0775909423828125,1,0.91
2020-05-18 19:21:03.254 -0400,1589844061.999669,41.34607652789644,-71.8347343616704,7.653882,1.401754,170.9381417494652,2.775973653287894,5.110626899807919,-9999,52954.92689225001,0.4537811279296875,-0.996307373046875,-0.0880889892578125,1,0.91
2020-05-18 19:21:03.304 -0400,1589844061.999669,41.34607652789644,-71.8347343616704,7.653882,1.401754,170.9381417494652,2.775973653287894,5.110626899807919,-9999,52954.97678425,0.448638916015625,-0.87982177734375,0.173736572265625,1,0.91
2020-05-18 19:21:03.355 -0400,1589844062.999667,41.34604655798147,-71.83472806965536,8.978735,2.088793,172.2402007743944,2.860007979558648,5.064078533124235,-9999,52955.02667525,0.6790313720703125,-0.2557830810546875,0.185333251953125,1,0.91
2020-05-18 19:21:03.404 -0400,1589844062.999667,41.34604655798147,-71.83472806965536,8.978735,2.088793,172.2402007743944,2.860007979558648,5.064078533124235,-9999,52955.07656325,1.512680053710938,0.3791046142578125,-0.058135986328125,1,0.91
2020-05-18 19:21:03.454 -0400,1589844062.999667,41.34604655798147,-71.83472806965536,8.978735,2.088793,172.2402007743944,2.860007979558648,5.064078533124235,-9999,52955.12645325001,4.016403198242188,3.310897827148438,-0.66986083984375,1,0.91
2020-05-18 19:21:03.504 -0400,1589844062.999667,41.34604655798147,-71.83472806965536,8.978735,2.088793,172.2402007743944,2.860007979558648,5.064078533124235,-9999,52955.17634025,1.509536743164062,2.390640258789062,-1.042953491210938,1,0.91
2020-05-18 19:21:03.554 -0400,1589844062.999667,41.34604655798147,-71.83472806965536,8.978735,2.088793,172.2402007743944,2.860007979558648,5.064078533124235,-9999,52955.22622625,0.019500732421875,1.206771850585938,-0.68701171875,1,0.91
2020-05-18 19:21:03.603 -0400,1589844062.999667,41.34604655798147,-71.83472806965536,8.978735,2.088793,172.2402007743944,2.860007979558648,5.064078533124235,-9999,52955.27611425,-1.051773071289062,0.376129150390625,-0.5997772216796875,1,0.91
2020-05-18 19:21:03.653 -0400,1589844062.999667,41.34604655798147,-71.83472806965536,8.978735,2.088793,172.2402007743944,2.860007979558648,5.064078533124235,-9999,52955.32600625,-1.040115356445312,0.0451507568359375,-0.2023773193359375,1,0.91
2020-05-18 19:21:03.703 -0400,1589844062.999667,41.34604655798147,-71.83472806965536,8.978735,2.088793,172.2402007743944,2.860007979558648,5.064078533124235,-9999,52955.37589925,-0.6076812744140625,-0.094085693359375,-0.0418243408203125,1,0.91
2020-05-18 19:21:03.753 -0400,1589844062.999667,41.34604655798147,-71.83472806965536,8.978735,2.088793,172.2402007743944,2.860007979558648,5.064078533124235,-9999,52955.42579425,-0.28802490234375,0.3451995849609375,-0.149810791015625,1,0.91
2020-05-18 19:21:03.803 -0400,1589844062.999667,41.34604655798147,-71.83472806965536,8.978735,2.088793,172.2402007743944,2.860007979558648,5.064078533124235,-9999,52955.47568625,-0.2491302490234375,1.576156616210938,-0.005126953125,1,0.91
2020-05-18 19:21:03.853 -0400,1589844062.999667,41.34604655798147,-71.83472806965536,8.978735,2.088793,172.2402007743944,2.860007979558648,5.064078533124235,-9999,52955.52557625,1.972854614257812,4.861328125,-0.16851806640625,1,0.91
2020-05-18 19:21:03.903 -0400,1589844062.999667,41.34604655798147,-71.83472806965536,8.978735,2.088793,172.2402007743944,2.860007979558648,5.064078533124235,-9999,52955.57546425,1.0732421875,2.005844116210938,-0.3840789794921875,1,0.91
2020-05-18 19:21:03.953 -0400,1589844062.999667,41.34604655798147,-71.83472806965536,8.978735,2.088793,172.2402007743944,2.860007979558648,5.064078533124235,-9999,52955.62535325,0.3144989013671875,0.1965179443359375,-0.1633453369140625,1,0.91
2020-05-18 19:21:04.003 -0400,1589844062.999667,41.34604655798147,-71.83472806965536,8.978735,2.088793,172.2402007743944,2.860007979558648,5.064078533124235,-9999,52955.67524225001,0.1788482666015625,-0.6662445068359375,-0.0806732177734375,1,0.91
2020-05-18 19:21:04.052 -0400,1589844062.999667,41.34604655798147,-71.83472806965536,8.978735,2.088793,172.2402007743944,2.860007979558648,5.064078533124235,-9999,52955.72512825,0.4920654296875,-0.7748870849609375,0.0426483154296875,1,0.91
2020-05-18 19:21:04.102 -0400,1589844062.999667,41.34604655798147,-71.83472806965536,8.978735,2.088793,172.2402007743944,2.860007979558648,5.064078533124235,-9999,52955.77501625,0.533447265625,-0.4699249267578125,0.02020263671875,1,0.91
2020-05-18 19:21:04.152 -0400,1589844062.999667,41.34604655798147,-71.83472806965536,8.978735,2.088793,172.2402007743944,2.860007979558648,5.064078533124235,-9999,52955.82490725,0.7955474853515625,-0.1380615234375,0.17596435546875,1,0.91
2020-05-18 19:21:04.202 -0400,1589844062.999667,41.34604655798147,-71.83472806965536,8.978735,2.088793,172.2402007743944,2.860007979558648,5.064078533124235,-9999,52955.87479725001,1.941604614257812,1.434402465820312,-0.394287109375,1,0.91
2020-05-18 19:21:04.252 -0400,1589844062.999667,41.34604655798147,-71.83472806965536,8.978735,2.088793,172.2402007743944,2.860007979558648,5.064078533124235,-9999,52955.92468725,3.272537231445312,3.291275024414062,-1.172943115234375,1,0.91
2020-05-18 19:21:04.302 -0400,1589844062.999667,41.34604655798147,-71.83472806965536,8.978735,2.088793,172.2402007743944,2.860007979558648,5.064078533124235,-9999,52955.97457525,0.949859619140625,2.110870361328125,-0.9181671142578125,1,0.91
2020-05-18 19:21:04.352 -0400,1589844062.999667,41.34604655798147,-71.83472806965536,8.978735,2.088793,172.2402007743944,2.860007979558648,5.064078533124235,-9999,52956.02446325,-0.3321075439453125,0.74542236328125,-0.5006866455078125,1,0.91
2020-05-18 19:21:04.402 -0400,1589844063.999665,41.34603842749569,-71.83472764677605,7.6228,1.285215,169.9901678042593,3.016253224337934,4.972600277466493,-9999,52956.07435425001,-0.9597930908203125,0.487030029296875,-0.5625762939453125,1,0.91
2020-05-18 19:21:04.452 -0400,1589844063.999665,41.34603842749569,-71.83472764677605,7.6228,1.285215,169.9901678042593,3.016253224337934,4.972600277466493,-9999,52956.12424425,-0.7264251708984375,0.0796356201171875,-0.0835723876953125,1,0.91
2020-05-18 19:21:04.501 -0400,1589844063.999665,41.34603842749569,-71.83472764677605,7.6228,1.285215,169.9901678042593,3.016253224337934,4.972600277466493,-9999,52956.17413125,-0.4202117919921875,0.0548095703125,-0.0015869140625,1,0.91
2020-05-18 19:21:04.551 -0400,1589844063.999665,41.34603842749569,-71.83472764677605,7.6228,1.285215,169.9901678042593,3.016253224337934,4.972600277466493,-9999,52956.22402025,-0.16876220703125,0.2180938720703125,-0.0941925048828125,1,0.91
2020-05-18 19:21:04.601 -0400,1589844063.999665,41.34603842749569,-71.83472764677605,7.6228,1.285215,169.9901678042593,3.016253224337934,4.972600277466493,-9999,52956.27390925001,-0.3219146728515625,1.559173583984375,0.068084716796875,1,0.91
2020-05-18 19:21:04.651 -0400,1589844063.999665,41.34603842749569,-71.83472764677605,7.6228,1.285215,169.9901678042593,3.016253224337934,4.972600277466493,-9999,52956.32379925,0.960296630859375,4.554367065429688,0.0673980712890625,1,0.91
2020-05-18 19:21:04.701 -0400,1589844063.999665,41.34603842749569,-71.83472764677605,7.6228,1.285215,169.9901678042593,3.016253224337934,4.972600277466493,-9999,52956.37369025,0.5673828125,1.962890625,-0.2088470458984375,1,0.91
2020-05-18 19:21:04.752 -0400,1589844063.999665,41.34603842749569,-71.83472764677605,7.6228,1.285215,169.9901678042593,3.016253224337934,4.972600277466493,-9999,52956.42357725,0.35540771484375,0.359039306640625,-0.307769775390625,1,0.91
2020-05-18 19:21:04.801 -0400,1589844063.999665,41.34603842749569,-71.83472764677605,7.6228,1.285215,169.9901678042593,3.016253224337934,4.972600277466493,-9999,52956.47346625001,0.4208221435546875,-0.6865234375,-0.254638671875,1,0.91
2020-05-18 19:21:04.850 -0400,1589844063.999665,41.34603842749569,-71.83472764677605,7.6228,1.285215,169.9901678042593,3.016253224337934,4.972600277466493,-9999,52956.52335425001,0.5714263916015625,-0.931488037109375,0.0587921142578125,1,0.91
2020-05-18 19:21:04.900 -0400,1589844063.999665,41.34603842749569,-71.83472764677605,7.6228,1.285215,169.9901678042593,3.016253224337934,4.972600277466493,-9999,52956.57323825001,0.566314697265625,-0.453155517578125,0.0686798095703125,1,0.91
2020-05-18 19:21:04.950 -0400,1589844063.999665,41.34603842749569,-71.83472764677605,7.6228,1.285215,169.9901678042593,3.016253224337934,4.972600277466493,-9999,52956.62312125001,0.872894287109375,-0.146697998046875,0.108123779296875,1,0.91
2020-05-18 19:21:05.000 -0400,1589844063.999665,41.34603842749569,-71.83472764677605,7.6228,1.285215,169.9901678042593,3.016253224337934,4.972600277466493,-9999,52956.67300725001,2.9827880859375,2.560867309570312,-0.2536163330078125,1,0.91
2020-05-18 19:21:05.050 -0400,1589844063.999665,41.34603842749569,-71.83472764677605,7.6228,1.285215,169.9901678042593,3.016253224337934,4.972600277466493,-9999,52956.72289525,2.766159057617188,3.955322265625,-1.01092529296875,1,0.91
2020-05-18 19:21:05.100 -0400,1589844063.999665,41.34603842749569,-71.83472764677605,7.6228,1.285215,169.9901678042593,3.016253224337934,4.972600277466493,-9999,52956.77278325,0.4388275146484375,1.864501953125,-0.8168487548828125,1,0.91
2020-05-18 19:21:05.150 -0400,1589844063.999665,41.34603842749569,-71.83472764677605,7.6228,1.285215,169.9901678042593,3.016253224337934,4.972600277466493,-9999,52956.82267025,-0.7198944091796875,0.7671966552734375,-0.7317352294921875,1,0.91
2020-05-18 19:21:05.200 -0400,1589844063.999665,41.34603842749569,-71.83472764677605,7.6228,1.285215,169.9901678042593,3.016253224337934,4.972600277466493,-9999,52956.8725535,-0.8381500244140625,0.04669189453125,-0.5369415283203125,1,0.91
2020-05-18 19:21:05.250 -0400,1589844063.999665,41.34603842749569,-71.83472764677605,7.6228,1.285215,169.9901678042593,3.016253224337934,4.972600277466493,-9999,52956.9224345,-0.4459991455078125,-0.4405517578125,0.1290740966796875,1,0.91
2020-05-18 19:21:05.300 -0400,1589844063.999665,41.34603842749569,-71.83472764677605,7.6228,1.285215,169.9901678042593,3.016253224337934,4.972600277466493,-9999,52956.9723175,-0.367431640625,-0.239471435546875,0.04931640625,1,0.91
2020-05-18 19:21:05.349 -0400,1589844063.999665,41.34603842749569,-71.83472764677605,7.6228,1.285215,169.9901678042593,3.016253224337934,4.972600277466493,-9999,52957.0222035,-0.3065185546875,0.33587646484375,-0.2481689453125,1,0.91
2020-05-18 19:21:05.399 -0400,1589844063.999665,41.34603842749569,-71.83472764677605,7.6228,1.285215,169.9901678042593,3.016253224337934,4.972600277466493,-9999,52957.0720865,-0.5037994384765625,3.451934814453125,-0.855865478515625,1,0.91
2020-05-18 19:21:05.449 -0400,1589844063.999665,41.34603842749569,-71.83472764677605,7.6228,1.285215,169.9901678042593,3.016253224337934,4.972600277466493,-9999,52957.1219735,1.49139404296875,3.1080322265625,-0.5898284912109375,1,0.91
2020-05-18 19:21:05.499 -0400,1589844063.999665,41.34603842749569,-71.83472764677605,7.6228,1.285215,169.9901678042593,3.016253224337934,4.972600277466493,-9999,52957.1718575,0.718719482421875,0.9792633056640625,-0.3002471923828125,1,0.91
2020-05-18 19:21:05.549 -0400,1589844063.999665,41.34603842749569,-71.83472764677605,7.6228,1.285215,169.9901678042593,3.016253224337934,4.972600277466493,-9999,52957.22174150001,0.2431640625,-0.1207733154296875,-0.2102813720703125,1,0.91
2020-05-18 19:21:05.599 -0400,1589844063.999665,41.34603842749569,-71.83472764677605,7.6228,1.285215,169.9901678042593,3.016253224337934,4.972600277466493,-9999,52957.27162550001,0.318572998046875,-0.8393402099609375,-0.1118316650390625,1,0.91
2020-05-18 19:21:05.649 -0400,1589844064.999661,41.34601955415503,-71.83472942538205,9.243919,1.388403,174.8501015937944,3.092365714613713,4.925628012738118,-9999,52957.32150950001,0.2678985595703125,-0.8317413330078125,0.287261962890625,1,0.91
2020-05-18 19:21:05.699 -0400,1589844064.999661,41.34601955415503,-71.83472942538205,9.243919,1.388403,174.8501015937944,3.092365714613713,4.925628012738118,-9999,52957.3713915,0.7556610107421875,-0.17535400390625,0.214630126953125,1,0.91
2020-05-18 19:21:05.749 -0400,1589844064.999661,41.34601955415503,-71.83472942538205,9.243919,1.388403,174.8501015937944,3.092365714613713,4.925628012738118,-9999,52957.4212725,1.653274536132812,0.5236663818359375,-0.2067108154296875,1,0.91
2020-05-18 19:21:05.799 -0400,1589844064.999661,41.34601955415503,-71.83472942538205,9.243919,1.388403,174.8501015937944,3.092365714613713,4.925628012738118,-9999,52957.4711535,3.363388061523438,3.541778564453125,-0.5555419921875,1,0.91
2020-05-18 19:21:05.848 -0400,1589844064.999661,41.34601955415503,-71.83472942538205,9.243919,1.388403,174.8501015937944,3.092365714613713,4.925628012738118,-9999,52957.5210355,1.3597412109375,2.328903198242188,-0.89837646484375,1,0.91
2020-05-18 19:21:05.898 -0400,1589844064.999661,41.34601955415503,-71.83472942538205,9.243919,1.388403,174.8501015937944,3.092365714613713,4.925628012738118,-9999,52957.5709195,-0.0349578857421875,1.341064453125,-0.5714874267578125,1,0.91
2020-05-18 19:21:05.948 -0400,1589844064.999661,41.34601955415503,-71.83472942538205,9.243919,1.388403,174.8501015937944,3.092365714613713,4.925628012738118,-9999,52957.6208035,-1.091720581054688,0.5962982177734375,-0.65283203125,1,0.91
2020-05-18 19:21:05.998 -0400,1589844064.999661,41.34601955415503,-71.83472942538205,9.243919,1.388403,174.8501015937944,3.092365714613713,4.925628012738118,-9999,52957.6706865,-0.942230224609375,0.0484619140625,-0.4765625,1,0.91
2020-05-18 19:21:06.066 -0400,1589844064.999661,41.34601955415503,-71.83472942538205,9.243919,1.388403,174.8501015937944,3.092365714613713,4.925628012738118,-9999,52957.7205655,-0.626800537109375,-0.3348846435546875,-0.069091796875,1,0.91
2020-05-18 19:21:06.098 -0400,1589844064.999661,41.34601955415503,-71.83472942538205,9.243919,1.388403,174.8501015937944,3.092365714613713,4.925628012738118,-9999,52957.77044750001,-0.4233856201171875,-0.0144805908203125,-0.156707763671875,1,0.91
2020-05-18 19:21:06.148 -0400,1589844064.999661,41.34601955415503,-71.83472942538205,9.243919,1.388403,174.8501015937944,3.092365714613713,4.925628012738118,-9999,52957.82033150001,-0.3308258056640625,1.103240966796875,0.093292236328125,1,0.91
2020-05-18 19:21:06.198 -0400,1589844064.999661,41.34601955415503,-71.83472942538205,9.243919,1.388403,174.8501015937944,3.092365714613713,4.925628012738118,-9999,52957.87021550001,1.102142333984375,4.335586547851562,0.0799102783203125,1,0.91
2020-05-18 19:24:27.073 -0400,1589844265.999722,41.34084523891973,-71.83566688004805,11.28842,2.807086,184.4580090793519,3.835870696610426,5.192660522786597,-9999,53158.74639666667,-0.4599761962890625,0.0647430419921875,-0.0263519287109375,1,0.91
2020-05-18 19:24:27.123 -0400,1589844265.999722,41.34084523891973,-71.83566688004805,11.28842,2.807086,184.4580090793519,3.835870696610426,5.192660522786597,-9999,53158.79636866667,-0.4253692626953125,0.258514404296875,-0.316680908203125,1,0.91
2020-05-18 19:24:27.173 -0400,1589844265.999722,41.34084523891973,-71.83566688004805,11.28842,2.807086,184.4580090793519,3.835870696610426,5.192660522786597,-9999,53158.84633966667,-0.5092010498046875,0.5691375732421875,-1.058792114257812,1,0.91
2020-05-18 19:24:27.223 -0400,1589844266.999725,41.34082067657857,-71.83568877387066,12.06428,2.777182,192.5309804292947,3.781772281163573,5.074809043207319,-9999,53158.89631166667,-0.2996978759765625,1.019546508789062,-1.928543090820312,1,0.91
2020-05-18 19:24:27.273 -0400,1589844266.999725,41.34082067657857,-71.83568877387066,12.06428,2.777182,192.5309804292947,3.781772281163573,5.074809043207319,-9999,53158.94628266667,-0.1072235107421875,0.527130126953125,-1.811721801757812,1,0.91
2020-05-18 19:24:27.323 -0400,1589844266.999725,41.34082067657857,-71.83568877387066,12.06428,2.777182,192.5309804292947,3.781772281163573,5.074809043207319,-9999,53158.99625466667,0.18804931640625,0.10040283203125,-1.27972412109375,1,0.91
2020-05-18 19:24:27.375 -0400,1589844266.999725,41.34082067657857,-71.83568877387066,12.06428,2.777182,192.5309804292947,3.781772281163573,5.074809043207319,-9999,53159.04622554167,0.1630706787109375,-0.1600189208984375,-0.7051544189453125,1,0.91
2020-05-18 19:24:27.423 -0400,1589844266.999725,41.34082067657857,-71.83568877387066,12.06428,2.777182,192.5309804292947,3.781772281163573,5.074809043207319,-9999,53159.09619754167,0.327239990234375,-0.18182373046875,-0.265625,1,0.91
2020-05-18 19:24:27.473 -0400,1589844266.999725,41.34082067657857,-71.83568877387066,12.06428,2.777182,192.5309804292947,3.781772281163573,5.074809043207319,-9999,53159.14616854167,0.3843841552734375,-0.049224853515625,-0.3203277587890625,1,0.91
2020-05-18 19:24:27.523 -0400,1589844266.999725,41.34082067657857,-71.83568877387066,12.06428,2.777182,192.5309804292947,3.781772281163573,5.074809043207319,-9999,53159.19614054167,0.405548095703125,0.2174224853515625,-0.888671875,1,0.91
2020-05-18 19:24:27.581 -0400,1589844266.999725,41.34082067657857,-71.83568877387066,12.06428,2.777182,192.5309804292947,3.781772281163573,5.074809043207319,-9999,53159.24611154167,0.4606475830078125,0.2301025390625,-1.565292358398438,1,0.91
2020-05-18 19:24:27.623 -0400,1589844266.999725,41.34082067657857,-71.83568877387066,12.06428,2.777182,192.5309804292947,3.781772281163573,5.074809043207319,-9999,53159.29608354167,0.3027496337890625,0.35516357421875,-2.100555419921875,1,0.91
2020-05-18 19:24:27.673 -0400,1589844266.999725,41.34082067657857,-71.83568877387066,12.06428,2.777182,192.5309804292947,3.781772281163573,5.074809043207319,-9999,53159.34605454167,-0.144989013671875,0.2932586669921875,-1.365707397460938,1,0.91
2020-05-18 19:24:27.723 -0400,1589844266.999725,41.34082067657857,-71.83568877387066,12.06428,2.777182,192.5309804292947,3.781772281163573,5.074809043207319,-9999,53159.39602654167,-0.431549072265625,0.230010986328125,-0.7962646484375,1,0.91
2020-05-18 19:24:27.773 -0400,1589844266.999725,41.34082067657857,-71.83568877387066,12.06428,2.777182,192.5309804292947,3.781772281163573,5.074809043207319,-9999,53159.44599854167,-0.5591888427734375,0.1366119384765625,-0.3099822998046875,1,0.91
2020-05-18 19:24:27.823 -0400,1589844266.999725,41.34082067657857,-71.83568877387066,12.06428,2.777182,192.5309804292947,3.781772281163573,5.074809043207319,-9999,53159.49596954167,-0.5139923095703125,-0.031402587890625,-0.066131591796875,1,0.91
2020-05-18 19:24:27.873 -0400,1589844266.999725,41.34082067657857,-71.83568877387066,12.06428,2.777182,192.5309804292947,3.781772281163573,5.074809043207319,-9999,53159.54594154167,-0.5049285888671875,-0.214385986328125,-0.1006622314453125,1,0.91
2020-05-18 19:24:27.923 -0400,1589844266.999725,41.34082067657857,-71.83568877387066,12.06428,2.777182,192.5309804292947,3.781772281163573,5.074809043207319,-9999,53159.59591254167,-0.274749755859375,0.7317352294921875,-1.51947021484375,1,0.91
2020-05-18 19:24:27.973 -0400,1589844266.999725,41.34082067657857,-71.83568877387066,12.06428,2.777182,192.5309804292947,3.781772281163573,5.074809043207319,-9999,53159.64588454167,-0.0121002197265625,1.095779418945312,-1.856979370117188,1,0.91
2020-05-18 19:24:28.023 -0400,1589844266.999725,41.34082067657857,-71.83568877387066,12.06428,2.777182,192.5309804292947,3.781772281163573,5.074809043207319,-9999,53159.69585554167,-0.0519866943359375,0.998748779296875,-1.250869750976562,1,0.91
2020-05-18 19:24:28.080 -0400,1589844266.999725,41.34082067657857,-71.83568877387066,12.06428,2.777182,192.5309804292947,3.781772281163573,5.074809043207319,-9999,53159.74582754167,0.0416107177734375,0.616180419921875,-0.5260162353515625,1,0.91
2020-05-18 19:24:28.123 -0400,1589844266.999725,41.34082067657857,-71.83568877387066,12.06428,2.777182,192.5309804292947,3.781772281163573,5.074809043207319,-9999,53159.79579854167,0.2276763916015625,0.01385498046875,-0.1117095947265625,1,0.91
2020-05-18 19:24:28.173 -0400,1589844266.999725,41.34082067657857,-71.83568877387066,12.06428,2.777182,192.5309804292947,3.781772281163573,5.074809043207319,-9999,53159.84577054167,0.5657196044921875,-0.3129425048828125,-0.153289794921875,1,0.91
2020-05-18 19:24:28.223 -0400,1589844267.999719,41.34079443626218,-71.83569335442772,11.18699,2.730055,187.4782812178404,3.768326391865659,5.048553089020502,-9999,53159.89574254167,0.7406463623046875,-0.3782806396484375,0.0427093505859375,1,0.91
2020-05-18 19:24:28.273 -0400,1589844267.999719,41.34079443626218,-71.83569335442772,11.18699,2.730055,187.4782812178404,3.768326391865659,5.048553089020502,-9999,53159.94571354167,0.999969482421875,0.0068817138671875,0.2351531982421875,1,0.91
2020-05-18 19:24:28.323 -0400,1589844267.999719,41.34079443626218,-71.83569335442772,11.18699,2.730055,187.4782812178404,3.768326391865659,5.048553089020502,-9999,53159.99568554167,3.361892700195312,2.512847900390625,-0.5909271240234375,1,0.91
2020-05-18 19:24:28.373 -0400,1589844267.999719,41.34079443626218,-71.83569335442772,11.18699,2.730055,187.4782812178404,3.768326391865659,5.048553089020502,-9999,53160.04565779167,2.751663208007812,3.414993286132812,-0.7491607666015625,1,0.91
2020-05-18 19:24:28.423 -0400,1589844267.999719,41.34079443626218,-71.83569335442772,11.18699,2.730055,187.4782812178404,3.768326391865659,5.048553089020502,-9999,53160.09562979167,0.3349456787109375,2.003341674804688,-0.3801422119140625,1,0.91
2020-05-18 19:24:28.473 -0400,1589844267.999719,41.34079443626218,-71.83569335442772,11.18699,2.730055,187.4782812178404,3.768326391865659,5.048553089020502,-9999,53160.14560079167,-0.862945556640625,0.877593994140625,-0.327728271484375,1,0.91
2020-05-18 19:24:28.523 -0400,1589844267.999719,41.34079443626218,-71.83569335442772,11.18699,2.730055,187.4782812178404,3.768326391865659,5.048553089020502,-9999,53160.19557279167,-0.944183349609375,0.325408935546875,-0.4327545166015625,1,0.91
2020-05-18 19:24:28.578 -0400,1589844267.999719,41.34079443626218,-71.83569335442772,11.18699,2.730055,187.4782812178404,3.768326391865659,5.048553089020502,-9999,53160.24554479167,-0.631683349609375,-0.0934906005859375,-0.087127685546875,1,0.91
2020-05-18 19:24:28.623 -0400,1589844267.999719,41.34079443626218,-71.83569335442772,11.18699,2.730055,187.4782812178404,3.768326391865659,5.048553089020502,-9999,53160.29551579167,-0.337677001953125,0.0631866455078125,-0.1197509765625,1,0.91
2020-05-18 19:24:28.673 -0400,1589844267.999719,41.34079443626218,-71.83569335442772,11.18699,2.730055,187.4782812178404,3.768326391865659,5.048553089020502,-9999,53160.34548779167,-0.1864471435546875,1.051055908203125,0.018096923828125,1,0.91
2020-05-18 19:24:28.730 -0400,1589844267.999719,41.34079443626218,-71.83569335442772,11.18699,2.730055,187.4782812178404,3.768326391865659,5.048553089020502,-9999,53160.39545879167,0.4534912109375,3.987899780273438,0.565673828125,1,0.91
2020-05-18 19:24:28.773 -0400,1589844267.999719,41.34079443626218,-71.83569335442772,11.18699,2.730055,187.4782812178404,3.768326391865659,5.048553089020502,-9999,53160.44543079167,0.7619171142578125,2.444931030273438,-0.0387725830078125,1,0.91
2020-05-18 19:24:28.823 -0400,1589844267.999719,41.34079443626218,-71.83569335442772,11.18699,2.730055,187.4782812178404,3.768326391865659,5.048553089020502,-9999,53160.49540279167,0.470550537109375,0.964202880859375,0.0755767822265625,1,0.91
2020-05-18 19:24:28.873 -0400,1589844267.999719,41.34079443626218,-71.83569335442772,11.18699,2.730055,187.4782812178404,3.768326391865659,5.048553089020502,-9999,53160.54537379167,0.28582763671875,-0.103118896484375,-0.02520751953125,1,0.91
2020-05-18 19:24:28.923 -0400,1589844267.999719,41.34079443626218,-71.83569335442772,11.18699,2.730055,187.4782812178404,3.768326391865659,5.048553089020502,-9999,53160.59534579167,0.5744476318359375,-0.693603515625,0.103057861328125,1,0.91
2020-05-18 19:24:28.972 -0400,1589844267.999719,41.34079443626218,-71.83569335442772,11.18699,2.730055,187.4782812178404,3.768326391865659,5.048553089020502,-9999,53160.64531679167,0.45672607421875,-0.8802032470703125,0.230010986328125,1,0.91
2020-05-18 19:24:29.022 -0400,1589844267.999719,41.34079443626218,-71.83569335442772,11.18699,2.730055,187.4782812178404,3.768326391865659,5.048553089020502,-9999,53160.69528879167,0.7367401123046875,-0.32781982421875,0.2112579345703125,1,0.91
2020-05-18 19:24:29.072 -0400,1589844267.999719,41.34079443626218,-71.83569335442772,11.18699,2.730055,187.4782812178404,3.768326391865659,5.048553089020502,-9999,53160.74525979167,1.3748779296875,0.4473419189453125,-0.0938568115234375,1,0.91
2020-05-18 19:24:29.123 -0400,1589844267.999719,41.34079443626218,-71.83569335442772,11.18699,2.730055,187.4782812178404,3.768326391865659,5.048553089020502,-9999,53160.79523179167,3.722976684570312,3.47491455078125,-0.3553619384765625,1,0.91
2020-05-18 19:24:29.173 -0400,1589844267.999719,41.34079443626218,-71.83569335442772,11.18699,2.730055,187.4782812178404,3.768326391865659,5.048553089020502,-9999,53160.84520379167,1.204498291015625,2.337539672851562,-0.7945404052734375,1,0.91
2020-05-18 19:24:29.222 -0400,1589844267.999719,41.34079443626218,-71.83569335442772,11.18699,2.730055,187.4782812178404,3.768326391865659,5.048553089020502,-9999,53160.89517479167,-0.02166748046875,1.049179077148438,-0.572540283203125,1,0.91
2020-05-18 19:24:29.272 -0400,1589844268.999716,41.34077149989535,-71.83570448727316,11.41023,2.644303,190.3562148216842,3.795904066130022,5.006799890713978,-9999,53160.94514679167,-0.91754150390625,0.539459228515625,-0.3865203857421875,1,0.91
2020-05-18 19:24:29.322 -0400,1589844268.999716,41.34077149989535,-71.83570448727316,11.41023,2.644303,190.3562148216842,3.795904066130022,5.006799890713978,-9999,53160.99511779167,-0.831695556640625,0.2769927978515625,-0.32720947265625,1,0.91
2020-05-18 19:24:29.372 -0400,1589844268.999716,41.34077149989535,-71.83570448727316,11.41023,2.644303,190.3562148216842,3.795904066130022,5.006799890713978,-9999,53161.04509016667,-0.5166778564453125,0.1228179931640625,-0.145782470703125,1,0.91
2020-05-18 19:24:29.422 -0400,1589844268.999716,41.34077149989535,-71.83570448727316,11.41023,2.644303,190.3562148216842,3.795904066130022,5.006799890713978,-9999,53161.09506216667,-0.251678466796875,0.281951904296875,-0.200592041015625,1,0.91
2020-05-18 19:24:29.472 -0400,1589844268.999716,41.34077149989535,-71.83570448727316,11.41023,2.644303,190.3562148216842,3.795904066130022,5.006799890713978,-9999,53161.14503316667,-0.05474853515625,1.558624267578125,0.2936553955078125,1,0.91
2020-05-18 19:24:29.522 -0400,1589844268.999716,41.34077149989535,-71.83570448727316,11.41023,2.644303,190.3562148216842,3.795904066130022,5.006799890713978,-9999,53161.19500516667,1.0028076171875,3.895034790039062,0.6631622314453125,1,0.91
2020-05-18 19:24:29.572 -0400,1589844268.999716,41.34077149989535,-71.83570448727316,11.41023,2.644303,190.3562148216842,3.795904066130022,5.006799890713978,-9999,53161.24497716667,0.5659637451171875,1.834869384765625,0.1303253173828125,1,0.91
2020-05-18 19:24:29.622 -0400,1589844268.999716,41.34077149989535,-71.83570448727316,11.41023,2.644303,190.3562148216842,3.795904066130022,5.006799890713978,-9999,53161.29494816667,0.450225830078125,0.5598297119140625,0.0051727294921875,1,0.91
2020-05-18 19:24:29.672 -0400,1589844268.999716,41.34077149989535,-71.83570448727316,11.41023,2.644303,190.3562148216842,3.795904066130022,5.006799890713978,-9999,53161.34492016667,0.352142333984375,-0.4951324462890625,-0.28662109375,1,0.91
2020-05-18 19:24:29.722 -0400,1589844268.999716,41.34077149989535,-71.83570448727316,11.41023,2.644303,190.3562148216842,3.795904066130022,5.006799890713978,-9999,53161.39489116667,0.5360260009765625,-0.8697509765625,-0.030609130859375,1,0.91
2020-05-18 19:24:29.772 -0400,1589844268.999716,41.34077149989535,-71.83570448727316,11.41023,2.644303,190.3562148216842,3.795904066130022,5.006799890713978,-9999,53161.44486316667,0.5526275634765625,-0.518157958984375,-0.034912109375,1,0.91
2020-05-18 19:24:29.822 -0400,1589844268.999716,41.34077149989535,-71.83570448727316,11.41023,2.644303,190.3562148216842,3.795904066130022,5.006799890713978,-9999,53161.49483516667,1.033157348632812,-0.17608642578125,0.136993408203125,1,0.91
2020-05-18 19:24:29.872 -0400,1589844268.999716,41.34077149989535,-71.83570448727316,11.41023,2.644303,190.3562148216842,3.795904066130022,5.006799890713978,-9999,53161.54480616667,3.027099609375,2.43829345703125,-0.1189727783203125,1,0.91
2020-05-18 19:24:29.922 -0400,1589844268.999716,41.34077149989535,-71.83570448727316,11.41023,2.644303,190.3562148216842,3.795904066130022,5.006799890713978,-9999,53161.59477816667,3.092605590820312,3.48614501953125,-0.6174774169921875,1,0.91
2020-05-18 19:24:29.972 -0400,1589844268.999716,41.34077149989535,-71.83570448727316,11.41023,2.644303,190.3562148216842,3.795904066130022,5.006799890713978,-9999,53161.64475016667,0.5861663818359375,2.044174194335938,-0.5043182373046875,1,0.91
2020-05-18 19:24:30.022 -0400,1589844268.999716,41.34077149989535,-71.83570448727316,11.41023,2.644303,190.3562148216842,3.795904066130022,5.006799890713978,-9999,53161.69472116667,-0.3302459716796875,0.669647216796875,-0.250701904296875,1,0.91
2020-05-18 19:24:30.099 -0400,1589844268.999716,41.34077149989535,-71.83570448727316,11.41023,2.644303,190.3562148216842,3.795904066130022,5.006799890713978,-9999,53161.74469316667,-1.02349853515625,0.4018096923828125,-0.4490814208984375,1,0.91
2020-05-18 19:24:30.122 -0400,1589844268.999716,41.34077149989535,-71.83570448727316,11.41023,2.644303,190.3562148216842,3.795904066130022,5.006799890713978,-9999,53161.79466416667,-0.8231353759765625,0.074798583984375,-0.151092529296875,1,0.91
2020-05-18 19:24:30.172 -0400,1589844268.999716,41.34077149989535,-71.83570448727316,11.41023,2.644303,190.3562148216842,3.795904066130022,5.006799890713978,-9999,53161.84463616667,-0.5232696533203125,0.15972900390625,-0.060455322265625,1,0.91
2020-05-18 19:24:30.222 -0400,1589844269.999714,41.34074581849784,-71.83571576401302,9.221971,2.646364,193.1820904925192,3.701592976261439,5.047720100091768,-9999,53161.89460816667,-0.2896575927734375,0.7351226806640625,0.14239501953125,1,0.91
2020-05-18 19:24:30.271 -0400,1589844269.999714,41.34074581849784,-71.83571576401302,9.221971,2.646364,193.1820904925192,3.701592976261439,5.047720100091768,-9999,53161.94457916667,-0.28887939453125,3.263137817382812,0.8221282958984375,1,0.91
2020-05-18 19:24:30.321 -0400,1589844269.999714,41.34074581849784,-71.83571576401302,9.221971,2.646364,193.1820904925192,3.701592976261439,5.047720100091768,-9999,53161.99455116667,1.592269897460938,2.579696655273438,0.569244384765625,1,0.91
2020-05-18 19:24:30.372 -0400,1589844269.999714,41.34074581849784,-71.83571576401302,9.221971,2.646364,193.1820904925192,3.701592976261439,5.047720100091768,-9999,53162.04452316667,0.7393798828125,1.125198364257812,0.01239013671875,1,0.91
2020-05-18 19:24:30.422 -0400,1589844269.999714,41.34074581849784,-71.83571576401302,9.221971,2.646364,193.1820904925192,3.701592976261439,5.047720100091768,-9999,53162.09449425001,0.410980224609375,-0.3119964599609375,-0.262298583984375,1,0.91
2020-05-18 19:24:30.472 -0400,1589844269.999714,41.34074581849784,-71.83571576401302,9.221971,2.646364,193.1820904925192,3.701592976261439,5.047720100091768,-9999,53162.14446625,0.621124267578125,-0.7410125732421875,0.0247344970703125,1,0.91
2020-05-18 19:24:30.521 -0400,1589844269.999714,41.34074581849784,-71.83571576401302,9.221971,2.646364,193.1820904925192,3.701592976261439,5.047720100091768,-9999,53162.19443725,0.48052978515625,-0.6427001953125,0.0024261474609375,1,0.91
2020-05-18 19:24:30.572 -0400,1589844269.999714,41.34074581849784,-71.83571576401302,9.221971,2.646364,193.1820904925192,3.701592976261439,5.047720100091768,-9999,53162.24440925,0.5798797607421875,-0.223846435546875,0.069000244140625,1,0.91
2020-05-18 19:24:30.621 -0400,1589844269.999714,41.34074581849784,-71.83571576401302,9.221971,2.646364,193.1820904925192,3.701592976261439,5.047720100091768,-9999,53162.29438125,1.475875854492188,0.233917236328125,-0.0410614013671875,1,0.91
2020-05-18 19:24:30.671 -0400,1589844269.999714,41.34074581849784,-71.83571576401302,9.221971,2.646364,193.1820904925192,3.701592976261439,5.047720100091768,-9999,53162.34435225,4.085525512695312,3.218826293945312,-0.5221099853515625,1,0.91
2020-05-18 19:24:30.721 -0400,1589844269.999714,41.34074581849784,-71.83571576401302,9.221971,2.646364,193.1820904925192,3.701592976261439,5.047720100091768,-9999,53162.39432425,1.311477661132812,2.327316284179688,-0.731964111328125,1,0.91
2020-05-18 19:24:30.772 -0400,1589844269.999714,41.34074581849784,-71.83571576401302,9.221971,2.646364,193.1820904925192,3.701592976261439,5.047720100091768,-9999,53162.44429625,-0.1000823974609375,1.041961669921875,-0.3671417236328125,1,0.91
2020-05-18 19:24:30.821 -0400,1589844269.999714,41.34074581849784,-71.83571576401302,9.221971,2.646364,193.1820904925192,3.701592976261439,5.047720100091768,-9999,53162.49426725,-1.085464477539062,0.6373443603515625,-0.4843902587890625,1,0.91
2020-05-18 19:24:30.871 -0400,1589844269.999714,41.34074581849784,-71.83571576401302,9.221971,2.646364,193.1820904925192,3.701592976261439,5.047720100091768,-9999,53162.54423925,-0.94384765625,0.2474822998046875,-0.24859619140625,1,0.91
2020-05-18 19:24:30.921 -0400,1589844269.999714,41.34074581849784,-71.83571576401302,9.221971,2.646364,193.1820904925192,3.701592976261439,5.047720100091768,-9999,53162.59421125001,-0.60748291015625,0.0302734375,0.03515625,1,0.91
2020-05-18 19:24:30.971 -0400,1589844269.999714,41.34074581849784,-71.83571576401302,9.221971,2.646364,193.1820904925192,3.701592976261439,5.047720100091768,-9999,53162.64418225001,-0.2983551025390625,0.5213623046875,0.0497283935546875,1,0.91
2020-05-18 19:24:31.021 -0400,1589844269.999714,41.34074581849784,-71.83571576401302,9.221971,2.646364,193.1820904925192,3.701592976261439,5.047720100091768,-9999,53162.69415425001,-0.254608154296875,2.494491577148438,0.417572021484375,1,0.91
2020-05-18 19:24:31.071 -0400,1589844269.999714,41.34074581849784,-71.83571576401302,9.221971,2.646364,193.1820904925192,3.701592976261439,5.047720100091768,-9999,53162.74412625,1.46832275390625,3.338912963867188,0.784423828125,1,0.91
2020-05-18 19:24:31.121 -0400,1589844269.999714,41.34074581849784,-71.83571576401302,9.221971,2.646364,193.1820904925192,3.701592976261439,5.047720100091768,-9999,53162.79409725,0.4751434326171875,1.388336181640625,0.0074310302734375,1,0.91
2020-05-18 19:24:31.171 -0400,1589844269.999714,41.34074581849784,-71.83571576401302,9.221971,2.646364,193.1820904925192,3.701592976261439,5.047720100091768,-9999,53162.84406925,0.2601165771484375,0.24151611328125,-0.4073486328125,1,0.91
2020-05-18 19:24:31.221 -0400,1589844270.999754,41.34072111944847,-71.83571002690276,8.810602,2.530799,183.314867065708,3.830710864477708,5.172906670234491,-9999,53162.89404125,0.357269287109375,-0.6424102783203125,0.094696044921875,1,0.91
2020-05-18 19:24:31.271 -0400,1589844270.999754,41.34072111944847,-71.83571002690276,8.810602,2.530799,183.314867065708,3.830710864477708,5.172906670234491,-9999,53162.94401225,0.470947265625,-0.9999237060546875,0.11053466796875,1,0.91
2020-05-18 19:24:31.321 -0400,1589844270.999754,41.34072111944847,-71.83571002690276,8.810602,2.530799,183.314867065708,3.830710864477708,5.172906670234491,-9999,53162.99398425,0.7603607177734375,-0.409820556640625,0.0851898193359375,1,0.91
2020-05-18 19:24:31.371 -0400,1589844270.999754,41.34072111944847,-71.83571002690276,8.810602,2.530799,183.314867065708,3.830710864477708,5.172906670234491,-9999,53163.04395625,1.640350341796875,0.405853271484375,-0.1547088623046875,1,0.91
2020-05-18 19:24:31.421 -0400,1589844270.999754,41.34072111944847,-71.83571002690276,8.810602,2.530799,183.314867065708,3.830710864477708,5.172906670234491,-9999,53163.09392666667,3.570236206054688,3.618698120117188,-0.562225341796875,1,0.91
2020-05-18 19:24:31.471 -0400,1589844270.999754,41.34072111944847,-71.83571002690276,8.810602,2.530799,183.314867065708,3.830710864477708,5.172906670234491,-9999,53163.14389866667,0.9846038818359375,2.443115234375,-0.750213623046875,1,0.91
2020-05-18 19:24:31.521 -0400,1589844270.999754,41.34072111944847,-71.83571002690276,8.810602,2.530799,183.314867065708,3.830710864477708,5.172906670234491,-9999,53163.19386966667,-0.16650390625,0.9857177734375,-0.451629638671875,1,0.91
2020-05-18 19:24:31.571 -0400,1589844270.999754,41.34072111944847,-71.83571002690276,8.810602,2.530799,183.314867065708,3.830710864477708,5.172906670234491,-9999,53163.24384166667,-1.058135986328125,0.58868408203125,-0.6310577392578125,1,0.91
2020-05-18 19:24:31.621 -0400,1589844270.999754,41.34072111944847,-71.83571002690276,8.810602,2.530799,183.314867065708,3.830710864477708,5.172906670234491,-9999,53163.29381366667,-0.933441162109375,0.21484375,-0.2066192626953125,1,0.91
2020-05-18 19:24:31.671 -0400,1589844270.999754,41.34072111944847,-71.83571002690276,8.810602,2.530799,183.314867065708,3.830710864477708,5.172906670234491,-9999,53163.34378466667,-0.5785064697265625,0.0092620849609375,0.0266265869140625,1,0.91
2020-05-18 19:24:31.721 -0400,1589844270.999754,41.34072111944847,-71.83571002690276,8.810602,2.530799,183.314867065708,3.830710864477708,5.172906670234491,-9999,53163.39375666667,-0.394195556640625,0.274566650390625,-0.01336669921875,1,0.91
2020-05-18 19:24:31.771 -0400,1589844270.999754,41.34072111944847,-71.83571002690276,8.810602,2.530799,183.314867065708,3.830710864477708,5.172906670234491,-9999,53163.44372866667,-0.53717041015625,2.06683349609375,0.439788818359375,1,0.91
2020-05-18 19:24:31.821 -0400,1589844270.999754,41.34072111944847,-71.83571002690276,8.810602,2.530799,183.314867065708,3.830710864477708,5.172906670234491,-9999,53163.49369966667,0.9980926513671875,4.099868774414062,0.9849090576171875,1,0.91
2020-05-18 19:24:31.871 -0400,1589844270.999754,41.34072111944847,-71.83571002690276,8.810602,2.530799,183.314867065708,3.830710864477708,5.172906670234491,-9999,53163.54367166667,0.640411376953125,1.800079345703125,0.1715087890625,1,0.91
2020-05-18 19:24:31.921 -0400,1589844270.999754,41.34072111944847,-71.83571002690276,8.810602,2.530799,183.314867065708,3.830710864477708,5.172906670234491,-9999,53163.59364366667,0.535858154296875,0.32781982421875,-0.19403076171875,1,0.91
2020-05-18 19:24:31.971 -0400,1589844270.999754,41.34072111944847,-71.83571002690276,8.810602,2.530799,183.314867065708,3.830710864477708,5.172906670234491,-9999,53163.64361466667,0.362213134765625,-0.7398223876953125,-0.1043701171875,1,0.91
2020-05-18 19:24:32.021 -0400,1589844270.999754,41.34072111944847,-71.83571002690276,8.810602,2.530799,183.314867065708,3.830710864477708,5.172906670234491,-9999,53163.69358666667,0.50079345703125,-0.928924560546875,-0.088287353515625,1,0.91
2020-05-18 19:24:32.071 -0400,1589844270.999754,41.34072111944847,-71.83571002690276,8.810602,2.530799,183.314867065708,3.830710864477708,5.172906670234491,-9999,53163.74355866667,0.5355987548828125,-0.4862823486328125,-0.0321502685546875,1,0.91
2020-05-18 19:24:32.121 -0400,1589844270.999754,41.34072111944847,-71.83571002690276,8.810602,2.530799,183.314867065708,3.830710864477708,5.172906670234491,-9999,53163.79352966667,1.145065307617188,-0.182861328125,0.1482696533203125,1,0.91
2020-05-18 19:24:32.171 -0400,1589844270.999754,41.34072111944847,-71.83571002690276,8.810602,2.530799,183.314867065708,3.830710864477708,5.172906670234491,-9999,53163.84350166667,4.397140502929688,3.313262939453125,-0.3332672119140625,1,0.91
2020-05-18 19:24:32.220 -0400,1589844270.999754,41.34072111944847,-71.83571002690276,8.810602,2.530799,183.314867065708,3.830710864477708,5.172906670234491,-9999,53163.89347366667,2.169525146484375,3.666168212890625,-0.7178802490234375,1,0.91
2020-05-18 19:24:32.280 -0400,1589844270.999754,41.34072111944847,-71.83571002690276,8.810602,2.530799,183.314867065708,3.830710864477708,5.172906670234491,-9999,53163.94344466667,0.2552032470703125,1.699874877929688,-0.5180206298828125,1,0.91
2020-05-18 19:24:32.321 -0400,1589844271.999713,41.3406947639795,-71.83570615349292,9.160725,2.548542,175.8772989945565,3.870445125251762,5.179771026797702,-9999,53163.99341666667,-0.739227294921875,0.473663330078125,-0.4965362548828125,1,0.91
2020-05-18 19:24:32.370 -0400,1589844271.999713,41.3406947639795,-71.83570615349292,9.160725,2.548542,175.8772989945565,3.870445125251762,5.179771026797702,-9999,53164.04338866667,-1.010589599609375,0.2191619873046875,-0.387603759765625,1,0.91
2020-05-18 19:24:32.420 -0400,1589844271.999713,41.3406947639795,-71.83570615349292,9.160725,2.548542,175.8772989945565,3.870445125251762,5.179771026797702,-9999,53164.09336025,-0.7582244873046875,-0.0585479736328125,0.08013916015625,1,0.91
2020-05-18 19:24:32.470 -0400,1589844271.999713,41.3406947639795,-71.83570615349292,9.160725,2.548542,175.8772989945565,3.870445125251762,5.179771026797702,-9999,53164.14333225,-0.5912933349609375,-0.017486572265625,0.0584869384765625,1,0.91
2020-05-18 19:24:32.520 -0400,1589844271.999713,41.3406947639795,-71.83570615349292,9.160725,2.548542,175.8772989945565,3.870445125251762,5.179771026797702,-9999,53164.19330425,-0.3761444091796875,0.6796417236328125,0.12066650390625,1,0.91
2020-05-18 19:24:32.570 -0400,1589844271.999713,41.3406947639795,-71.83570615349292,9.160725,2.548542,175.8772989945565,3.870445125251762,5.179771026797702,-9999,53164.24327525,0.381805419921875,4.517044067382812,1.376602172851562,1,0.91
2020-05-18 19:24:32.620 -0400,1589844271.999713,41.3406947639795,-71.83570615349292,9.160725,2.548542,175.8772989945565,3.870445125251762,5.179771026797702,-9999,53164.29324725,0.9271087646484375,2.77545166015625,-0.0533599853515625,1,0.91
2020-05-18 19:24:32.670 -0400,1589844271.999713,41.3406947639795,-71.83570615349292,9.160725,2.548542,175.8772989945565,3.870445125251762,5.179771026797702,-9999,53164.34321925,0.54718017578125,0.9219207763671875,-0.093170166015625,1,0.91
2020-05-18 19:24:32.720 -0400,1589844271.999713,41.3406947639795,-71.83570615349292,9.160725,2.548542,175.8772989945565,3.870445125251762,5.179771026797702,-9999,53164.39319125,0.3953094482421875,-0.289886474609375,-0.187652587890625,1,0.91
2020-05-18 19:24:32.770 -0400,1589844271.999713,41.3406947639795,-71.83570615349292,9.160725,2.548542,175.8772989945565,3.870445125251762,5.179771026797702,-9999,53164.44316225001,0.6565399169921875,-0.689727783203125,-0.0814361572265625,1,0.91
2020-05-18 19:24:32.820 -0400,1589844271.999713,41.3406947639795,-71.83570615349292,9.160725,2.548542,175.8772989945565,3.870445125251762,5.179771026797702,-9999,53164.49313425001,0.4977569580078125,-0.8085174560546875,0.2122650146484375,1,0.91
2020-05-18 19:24:32.870 -0400,1589844271.999713,41.3406947639795,-71.83570615349292,9.160725,2.548542,175.8772989945565,3.870445125251762,5.179771026797702,-9999,53164.54310625001,0.7359466552734375,-0.46051025390625,0.1896820068359375,1,0.91
2020-05-18 19:24:32.920 -0400,1589844271.999713,41.3406947639795,-71.83570615349292,9.160725,2.548542,175.8772989945565,3.870445125251762,5.179771026797702,-9999,53164.59307725,1.656326293945312,1.022140502929688,-0.26922607421875,1,0.91
2020-05-18 19:24:32.971 -0400,1589844271.999713,41.3406947639795,-71.83570615349292,9.160725,2.548542,175.8772989945565,3.870445125251762,5.179771026797702,-9999,53164.64304925,3.340988159179688,3.506698608398438,-1.283447265625,1,0.91
2020-05-18 19:24:33.020 -0400,1589844271.999713,41.3406947639795,-71.83570615349292,9.160725,2.548542,175.8772989945565,3.870445125251762,5.179771026797702,-9999,53164.69302125,0.82489013671875,2.082107543945312,-0.7824249267578125,1,0.91
2020-05-18 19:24:33.070 -0400,1589844271.999713,41.3406947639795,-71.83570615349292,9.160725,2.548542,175.8772989945565,3.870445125251762,5.179771026797702,-9999,53164.74299225,-0.335601806640625,0.7368621826171875,-0.4513702392578125,1,0.91
2020-05-18 19:24:33.120 -0400,1589844271.999713,41.3406947639795,-71.83570615349292,9.160725,2.548542,175.8772989945565,3.870445125251762,5.179771026797702,-9999,53164.79296425,-0.9471893310546875,0.4103240966796875,-0.4947357177734375,1,0.91
2020-05-18 19:24:33.170 -0400,1589844271.999713,41.3406947639795,-71.83570615349292,9.160725,2.548542,175.8772989945565,3.870445125251762,5.179771026797702,-9999,53164.84293625,-0.8358917236328125,0.0671844482421875,-0.1644134521484375,1,0.91
2020-05-18 19:24:33.220 -0400,1589844271.999713,41.3406947639795,-71.83570615349292,9.160725,2.548542,175.8772989945565,3.870445125251762,5.179771026797702,-9999,53164.89290725,-0.652099609375,0.0001068115234375,-0.0905914306640625,1,0.91
2020-05-18 19:24:33.270 -0400,1589844272.999707,41.34066974846309,-71.83571520391462,8.543808,2.523606,177.3409298673098,4.042809613666966,5.272136102879875,-9999,53164.94287925,-0.4432220458984375,0.28607177734375,-0.09368896484375,1,0.91
2020-05-18 19:24:33.320 -0400,1589844272.999707,41.34066974846309,-71.83571520391462,8.543808,2.523606,177.3409298673098,4.042809613666966,5.272136102879875,-9999,53164.99285125,-0.7453765869140625,1.99688720703125,0.125518798828125,1,0.91
2020-05-18 19:24:33.370 -0400,1589844272.999707,41.34066974846309,-71.83571520391462,8.543808,2.523606,177.3409298673098,4.042809613666966,5.272136102879875,-9999,53165.04282225,2.3790283203125,4.615524291992188,0.655609130859375,1,0.91
2020-05-18 19:24:33.420 -0400,1589844272.999707,41.34066974846309,-71.83571520391462,8.543808,2.523606,177.3409298673098,4.042809613666966,5.272136102879875,-9999,53165.092794,1.087417602539062,1.950103759765625,-0.142578125,1,0.91
2020-05-18 19:24:33.470 -0400,1589844272.999707,41.34066974846309,-71.83571520391462,8.543808,2.523606,177.3409298673098,4.042809613666966,5.272136102879875,-9999,53165.142766,0.4542236328125,-0.177093505859375,-0.2657928466796875,1,0.91
2020-05-18 19:24:33.520 -0400,1589844272.999707,41.34066974846309,-71.83571520391462,8.543808,2.523606,177.3409298673098,4.042809613666966,5.272136102879875,-9999,53165.192737,0.5053863525390625,-0.9340972900390625,-0.218902587890625,1,0.91
2020-05-18 19:24:33.570 -0400,1589844272.999707,41.34066974846309,-71.83571520391462,8.543808,2.523606,177.3409298673098,4.042809613666966,5.272136102879875,-9999,53165.24270900001,0.624420166015625,-1.14111328125,0.09552001953125,1,0.91
2020-05-18 19:24:33.620 -0400,1589844272.999707,41.34066974846309,-71.83571520391462,8.543808,2.523606,177.3409298673098,4.042809613666966,5.272136102879875,-9999,53165.29268100001,0.7251434326171875,-0.419036865234375,0.1813201904296875,1,0.91
2020-05-18 19:24:33.670 -0400,1589844272.999707,41.34066974846309,-71.83571520391462,8.543808,2.523606,177.3409298673098,4.042809613666966,5.272136102879875,-9999,53165.342653,1.253173828125,-0.059356689453125,0.1473541259765625,1,0.91
2020-05-18 19:24:33.720 -0400,1589844272.999707,41.34066974846309,-71.83571520391462,8.543808,2.523606,177.3409298673098,4.042809613666966,5.272136102879875,-9999,53165.392624,4.446365356445312,3.5289306640625,-0.5768280029296875,1,0.91
2020-05-18 19:24:33.770 -0400,1589844272.999707,41.34066974846309,-71.83571520391462,8.543808,2.523606,177.3409298673098,4.042809613666966,5.272136102879875,-9999,53165.442596,1.686355590820312,3.435501098632812,-0.8892669677734375,1,0.91
2020-05-18 19:24:33.820 -0400,1589844272.999707,41.34066974846309,-71.83571520391462,8.543808,2.523606,177.3409298673098,4.042809613666966,5.272136102879875,-9999,53165.492568,0.074188232421875,1.294540405273438,-0.5898895263671875,1,0.91
2020-05-18 19:24:33.870 -0400,1589844272.999707,41.34066974846309,-71.83571520391462,8.543808,2.523606,177.3409298673098,4.042809613666966,5.272136102879875,-9999,53165.542539,-0.9061431884765625,0.302276611328125,-0.4549407958984375,1,0.91
2020-05-18 19:24:33.919 -0400,1589844272.999707,41.34066974846309,-71.83571520391462,8.543808,2.523606,177.3409298673098,4.042809613666966,5.272136102879875,-9999,53165.592511,-0.9789276123046875,0.0345306396484375,-0.291015625,1,0.91
2020-05-18 19:24:33.976 -0400,1589844272.999707,41.34066974846309,-71.83571520391462,8.543808,2.523606,177.3409298673098,4.042809613666966,5.272136102879875,-9999,53165.642483,-0.7930450439453125,-0.0462799072265625,0.04376220703125,1,0.91
2020-05-18 19:25:25.891 -0400,1589844324.999601,41.33924905479959,-71.83647685097412,4.426577,3.062096,208.7305222484889,4.009688294033619,4.580423403180088,-9999,53217.563181875,-0.1291961669921875,0.7806854248046875,-2.111053466796875,1,0.91
2020-05-18 19:25:25.940 -0400,1589844324.999601,41.33924905479959,-71.83647685097412,4.426577,3.062096,208.7305222484889,4.009688294033619,4.580423403180088,-9999,53217.61315387501,0.0742034912109375,0.4679107666015625,-2.063156127929688,1,0.91
2020-05-18 19:25:25.990 -0400,1589844324.999601,41.33924905479959,-71.83647685097412,4.426577,3.062096,208.7305222484889,4.009688294033619,4.580423403180088,-9999,53217.66312587501,0.394805908203125,0.019378662109375,-1.14013671875,1,0.91
2020-05-18 19:25:26.040 -0400,1589844324.999601,41.33924905479959,-71.83647685097412,4.426577,3.062096,208.7305222484889,4.009688294033619,4.580423403180088,-9999,53217.71309787501,0.341156005859375,-0.20819091796875,-0.4964752197265625,1,0.91
2020-05-18 19:25:26.090 -0400,1589844324.999601,41.33924905479959,-71.83647685097412,4.426577,3.062096,208.7305222484889,4.009688294033619,4.580423403180088,-9999,53217.763069875,0.4456787109375,-0.2274169921875,-0.1456298828125,1,0.91
2020-05-18 19:25:26.140 -0400,1589844324.999601,41.33924905479959,-71.83647685097412,4.426577,3.062096,208.7305222484889,4.009688294033619,4.580423403180088,-9999,53217.813041875,0.470428466796875,-0.12213134765625,-0.2377471923828125,1,0.91
2020-05-18 19:25:26.190 -0400,1589844324.999601,41.33924905479959,-71.83647685097412,4.426577,3.062096,208.7305222484889,4.009688294033619,4.580423403180088,-9999,53217.863013875,0.4915924072265625,0.22930908203125,-1.029403686523438,1,0.91
2020-05-18 19:25:26.240 -0400,1589844324.999601,41.33924905479959,-71.83647685097412,4.426577,3.062096,208.7305222484889,4.009688294033619,4.580423403180088,-9999,53217.912985875,0.50042724609375,0.58172607421875,-1.913375854492188,1,0.91
2020-05-18 19:25:26.290 -0400,1589844324.999601,41.33924905479959,-71.83647685097412,4.426577,3.062096,208.7305222484889,4.009688294033619,4.580423403180088,-9999,53217.962957875,0.2806854248046875,0.6917266845703125,-2.220367431640625,1,0.91
2020-05-18 19:25:26.340 -0400,1589844325.999603,41.33921851916901,-71.83648940523653,4.725795,3.087206,204.253940276365,3.974370441951565,4.579400946367498,-9999,53218.012929875,-0.1800079345703125,0.354278564453125,-1.395828247070312,1,0.91
2020-05-18 19:25:26.390 -0400,1589844325.999603,41.33921851916901,-71.83648940523653,4.725795,3.087206,204.253940276365,3.974370441951565,4.579400946367498,-9999,53218.062901875,-0.4228668212890625,0.30108642578125,-0.630035400390625,1,0.91
2020-05-18 19:25:26.440 -0400,1589844325.999603,41.33921851916901,-71.83648940523653,4.725795,3.087206,204.253940276365,3.974370441951565,4.579400946367498,-9999,53218.11287300001,-0.627777099609375,0.007415771484375,-0.12042236328125,1,0.91
2020-05-18 19:25:26.490 -0400,1589844325.999603,41.33921851916901,-71.83648940523653,4.725795,3.087206,204.253940276365,3.974370441951565,4.579400946367498,-9999,53218.16284500001,-0.554534912109375,0.0171661376953125,-0.0172882080078125,1,0.91
2020-05-18 19:25:26.540 -0400,1589844325.999603,41.33921851916901,-71.83648940523653,4.725795,3.087206,204.253940276365,3.974370441951565,4.579400946367498,-9999,53218.212817,-0.3365325927734375,0.2643890380859375,-0.4357452392578125,1,0.91
2020-05-18 19:25:26.590 -0400,1589844325.999603,41.33921851916901,-71.83648940523653,4.725795,3.087206,204.253940276365,3.974370441951565,4.579400946367498,-9999,53218.262789,-0.2442626953125,0.33740234375,-1.099578857421875,1,0.91
2020-05-18 19:25:26.640 -0400,1589844325.999603,41.33921851916901,-71.83648940523653,4.725795,3.087206,204.253940276365,3.974370441951565,4.579400946367498,-9999,53218.312761,-0.2159881591796875,0.8882293701171875,-2.196334838867188,1,0.91
2020-05-18 19:25:26.690 -0400,1589844325.999603,41.33921851916901,-71.83648940523653,4.725795,3.087206,204.253940276365,3.974370441951565,4.579400946367498,-9999,53218.362733,0.1551666259765625,0.651885986328125,-1.949142456054688,1,0.91
2020-05-18 19:25:26.739 -0400,1589844325.999603,41.33921851916901,-71.83648940523653,4.725795,3.087206,204.253940276365,3.974370441951565,4.579400946367498,-9999,53218.412705,0.3037567138671875,-0.0421600341796875,-1.1558837890625,1,0.91
2020-05-18 19:25:26.790 -0400,1589844325.999603,41.33921851916901,-71.83648940523653,4.725795,3.087206,204.253940276365,3.974370441951565,4.579400946367498,-9999,53218.462677,0.365447998046875,-0.212066650390625,-0.387054443359375,1,0.91
2020-05-18 19:25:26.840 -0400,1589844325.999603,41.33921851916901,-71.83648940523653,4.725795,3.087206,204.253940276365,3.974370441951565,4.579400946367498,-9999,53218.512649,0.325164794921875,-0.289764404296875,-0.154937744140625,1,0.91
2020-05-18 19:25:26.894 -0400,1589844325.999603,41.33921851916901,-71.83648940523653,4.725795,3.087206,204.253940276365,3.974370441951565,4.579400946367498,-9999,53218.562621,0.329315185546875,-0.1405487060546875,-0.2415924072265625,1,0.91
2020-05-18 19:25:26.940 -0400,1589844325.999603,41.33921851916901,-71.83648940523653,4.725795,3.087206,204.253940276365,3.974370441951565,4.579400946367498,-9999,53218.61259300001,0.4848480224609375,0.2880859375,-0.8945159912109375,1,0.91
