loggingTime(txt),locationTimestamp_since1970(s),locationLatitude(WGS84),locationLongitude(WGS84),locationAltitude(m),locationSpeed(m/s),locationCourse(°),locationVerticalAccuracy(m),locationHorizontalAccuracy(m),locationFloor(Z),accelerometerTimestamp_sinceReboot(s),accelerometerAccelerationX(G),accelerometerAccelerationY(G),accelerometerAccelerationZ(G),batteryState,batteryLevel
2020-05-19 15:13:56.068 -0400,1589915635.520012,41.37494734701934,-71.83101164695832,-2.986868,0,263.5748291015625,3.498210370746093,4.64618781742552,-9999,7271.448741875,-0.0601043701171875,-0.284271240234375,-0.95123291015625,1,0.91
2020-05-19 15:13:56.118 -0400,1589915635.520012,41.37494734701934,-71.83101164695832,-2.986868,0,263.5748291015625,3.498210370746093,4.64618781742552,-9999,7271.498637875001,-0.0667877197265625,-0.3092193603515625,-0.9413604736328125,1,0.91
2020-05-19 15:13:56.168 -0400,1589915635.520012,41.37494734701934,-71.83101164695832,-2.986868,0,263.5748291015625,3.498210370746093,4.64618781742552,-9999,7271.548535875,-0.06201171875,-0.30987548828125,-0.9400634765625,1,0.91
2020-05-19 15:13:56.218 -0400,1589915635.520012,41.37494734701934,-71.83101164695832,-2.986868,0,263.5748291015625,3.498210370746093,4.64618781742552,-9999,7271.598432875,-0.0487518310546875,-0.3130950927734375,-0.930999755859375,1,0.91
2020-05-19 15:13:56.267 -0400,1589915636.000428,41.37494734701934,-71.83101164695832,-2.986868,0,276.8633614417828,3.453205328826052,4.6797339657032,-9999,7271.648328875001,-0.022613525390625,-0.3022613525390625,-0.9179229736328125,1,0.91
2020-05-19 15:13:56.317 -0400,1589915636.000428,41.37494734701934,-71.83101164695832,-2.986868,0,276.8633614417828,3.453205328826052,4.6797339657032,-9999,7271.698227875,-0.00042724609375,-0.2980804443359375,-0.8896484375,1,0.91
2020-05-19 15:13:56.367 -0400,1589915636.000428,41.37494734701934,-71.83101164695832,-2.986868,0,276.8633614417828,3.453205328826052,4.6797339657032,-9999,7271.748123416667,-0.0096893310546875,-0.2700347900390625,-0.8897552490234375,1,0.91
2020-05-19 15:13:56.419 -0400,1589915636.000428,41.37494734701934,-71.83101164695832,-2.986868,0,276.8633614417828,3.453205328826052,4.6797339657032,-9999,7271.798024416667,-0.0272979736328125,-0.229400634765625,-0.9331207275390625,1,0.91
2020-05-19 15:13:56.467 -0400,1589915636.000428,41.37494734701934,-71.83101164695832,-2.986868,0,276.8633614417828,3.453205328826052,4.6797339657032,-9999,7271.847923416667,-0.0279388427734375,-0.209075927734375,-0.947174072265625,1,0.91
2020-05-19 15:13:56.517 -0400,1589915636.000428,41.37494734701934,-71.83101164695832,-2.986868,0,276.8633614417828,3.453205328826052,4.6797339657032,-9999,7271.897822416667,-0.051055908203125,-0.1415863037109375,-0.9637298583984375,1,0.91
2020-05-19 15:13:56.567 -0400,1589915636.000428,41.37494734701934,-71.83101164695832,-2.986868,0,276.8633614417828,3.453205328826052,4.6797339657032,-9999,7271.947723416667,-0.03192138671875,-0.078277587890625,-0.9512176513671875,1,0.91
2020-05-19 15:13:56.617 -0400,1589915636.000428,41.37494734701934,-71.83101164695832,-2.986868,0,276.8633614417828,3.453205328826052,4.6797339657032,-9999,7271.997624416667,-0.0171966552734375,-0.035430908203125,-0.947723388671875,1,0.91
2020-05-19 15:13:56.667 -0400,1589915636.000428,41.37494734701934,-71.83101164695832,-2.986868,0,276.8633614417828,3.453205328826052,4.6797339657032,-9999,7272.047524416667,-0.0421295166015625,0.0513916015625,-1.189102172851562,1,0.91
2020-05-19 15:13:56.717 -0400,1589915636.000428,41.37494734701934,-71.83101164695832,-2.986868,0,276.8633614417828,3.453205328826052,4.6797339657032,-9999,7272.097424416667,-0.06781005859375,0.1192169189453125,-1.288742065429688,1,0.91
2020-05-19 15:13:56.767 -0400,1589915636.000428,41.37494734701934,-71.83101164695832,-2.986868,0,276.8633614417828,3.453205328826052,4.6797339657032,-9999,7272.147322416668,-0.037933349609375,0.0004119873046875,-1.011322021484375,1,0.91
2020-05-19 15:13:56.817 -0400,1589915636.000428,41.37494734701934,-71.83101164695832,-2.986868,0,276.8633614417828,3.453205328826052,4.6797339657032,-9999,7272.197221416667,-0.0786285400390625,0.00347900390625,-0.8878173828125,1,0.91
2020-05-19 15:13:56.867 -0400,1589915636.000428,41.37494734701934,-71.83101164695832,-2.986868,0,276.8633614417828,3.453205328826052,4.6797339657032,-9999,7272.247120416667,-0.051605224609375,0.12109375,-1.031478881835938,1,0.91
2020-05-19 15:13:56.925 -0400,1589915636.000428,41.37494734701934,-71.83101164695832,-2.986868,0,276.8633614417828,3.453205328826052,4.6797339657032,-9999,7272.297020416667,-0.01947021484375,0.1204071044921875,-1.105728149414062,1,0.91
2020-05-19 15:13:56.966 -0400,1589915636.000428,41.37494734701934,-71.83101164695832,-2.986868,0,276.8633614417828,3.453205328826052,4.6797339657032,-9999,7272.346917416667,-0.043548583984375,0.0748443603515625,-0.964141845703125,1,0.91
2020-05-19 15:13:57.016 -0400,1589915636.000428,41.37494734701934,-71.83101164695832,-2.986868,0,276.8633614417828,3.453205328826052,4.6797339657032,-9999,7272.396811416667,0.026611328125,0.158843994140625,-1.013336181640625,1,0.91
2020-05-19 15:13:57.066 -0400,1589915636.000428,41.37494734701934,-71.83101164695832,-2.986868,0,276.8633614417828,3.453205328826052,4.6797339657032,-9999,7272.446707416667,0.035308837890625,0.241302490234375,-0.958526611328125,1,0.91
2020-05-19 15:13:57.116 -0400,1589915636.000428,41.37494734701934,-71.83101164695832,-2.986868,0,276.8633614417828,3.453205328826052,4.6797339657032,-9999,7272.496601416668,-0.0331268310546875,0.399932861328125,-0.8871612548828125,1,0.91
2020-05-19 15:13:57.166 -0400,1589915636.000428,41.37494734701934,-71.83101164695832,-2.986868,0,276.8633614417828,3.453205328826052,4.6797339657032,-9999,7272.546496416667,-0.056304931640625,0.4157562255859375,-0.9427490234375,1,0.91
2020-05-19 15:13:57.216 -0400,1589915636.000428,41.37494734701934,-71.83101164695832,-2.986868,0,276.8633614417828,3.453205328826052,4.6797339657032,-9999,7272.596390416667,-0.0664825439453125,0.4232940673828125,-0.8590240478515625,1,0.91
2020-05-19 15:13:57.266 -0400,1589915636.000428,41.37494734701934,-71.83101164695832,-2.986868,0,276.8633614417828,3.453205328826052,4.6797339657032,-9999,7272.646286416667,-0.138580322265625,0.8626251220703125,-0.5761260986328125,1,0.91
2020-05-19 15:13:57.316 -0400,1589915637.000435,41.37494734701934,-71.83101164695832,-2.986868,0,276.8633614417828,3.352913859813626,4.752105394607587,-9999,7272.696183416667,-0.054290771484375,0.6434478759765625,-0.640869140625,1,0.91
2020-05-19 15:13:57.365 -0400,1589915637.000435,41.37494734701934,-71.83101164695832,-2.986868,0,276.8633614417828,3.352913859813626,4.752105394607587,-9999,7272.746082250001,-0.032318115234375,0.892669677734375,-0.4857940673828125,1,0.91
2020-05-19 15:13:57.425 -0400,1589915637.000435,41.37494734701934,-71.83101164695832,-2.986868,0,276.8633614417828,3.352913859813626,4.752105394607587,-9999,7272.79597825,-0.0716400146484375,0.8514404296875,-0.47271728515625,1,0.91
2020-05-19 15:13:57.465 -0400,1589915637.000435,41.37494734701934,-71.83101164695832,-2.986868,0,276.8633614417828,3.352913859813626,4.752105394607587,-9999,7272.845874250001,-0.004730224609375,0.9978485107421875,-0.530914306640625,1,0.91
2020-05-19 15:13:57.515 -0400,1589915637.000435,41.37494734701934,-71.83101164695832,-2.986868,0,276.8633614417828,3.352913859813626,4.752105394607587,-9999,7272.895772250001,-0.0512542724609375,0.9523773193359375,-0.44427490234375,1,0.91
2020-05-19 15:13:57.565 -0400,1589915637.000435,41.37494734701934,-71.83101164695832,-2.986868,0,276.8633614417828,3.352913859813626,4.752105394607587,-9999,7272.94566725,-0.0753631591796875,0.868377685546875,-0.442626953125,1,0.91
2020-05-19 15:13:57.615 -0400,1589915637.000435,41.37494734701934,-71.83101164695832,-2.986868,0,276.8633614417828,3.352913859813626,4.752105394607587,-9999,7272.99556225,-0.0669403076171875,0.935699462890625,-0.4099578857421875,1,0.91
2020-05-19 15:13:57.665 -0400,1589915637.000435,41.37494734701934,-71.83101164695832,-2.986868,0,276.8633614417828,3.352913859813626,4.752105394607587,-9999,7273.045456250001,-0.0829315185546875,0.905120849609375,-0.39935302734375,1,0.91
2020-05-19 15:13:57.715 -0400,1589915637.000435,41.37494734701934,-71.83101164695832,-2.986868,0,276.8633614417828,3.352913859813626,4.752105394607587,-9999,7273.09535225,-0.0679473876953125,0.88311767578125,-0.41827392578125,1,0.91
2020-05-19 15:13:57.765 -0400,1589915637.000435,41.37494734701934,-71.83101164695832,-2.986868,0,276.8633614417828,3.352913859813626,4.752105394607587,-9999,7273.145245250001,-0.0814208984375,0.910003662109375,-0.4398956298828125,1,0.91
2020-05-19 15:13:57.814 -0400,1589915637.000435,41.37494734701934,-71.83101164695832,-2.986868,0,276.8633614417828,3.352913859813626,4.752105394607587,-9999,7273.195142250001,-0.087615966796875,0.86444091796875,-0.4390411376953125,1,0.91
2020-05-19 15:13:57.873 -0400,1589915637.000435,41.37494734701934,-71.83101164695832,-2.986868,0,276.8633614417828,3.352913859813626,4.752105394607587,-9999,7273.245040250001,-0.0926666259765625,0.9316558837890625,-0.403076171875,1,0.91
2020-05-19 15:13:57.914 -0400,1589915637.000435,41.37494734701934,-71.83101164695832,-2.986868,0,276.8633614417828,3.352913859813626,4.752105394607587,-9999,7273.294940250001,-0.097747802734375,0.915924072265625,-0.3770904541015625,1,0.91
2020-05-19 15:13:57.964 -0400,1589915637.000435,41.37494734701934,-71.83101164695832,-2.986868,0,276.8633614417828,3.352913859813626,4.752105394607587,-9999,7273.34483925,-0.1161651611328125,0.89776611328125,-0.43359375,1,0.91
2020-05-19 15:13:58.014 -0400,1589915637.000435,41.37494734701934,-71.83101164695832,-2.986868,0,276.8633614417828,3.352913859813626,4.752105394607587,-9999,7273.394734250001,-0.1226654052734375,0.919952392578125,-0.3931884765625,1,0.91
2020-05-19 15:13:58.064 -0400,1589915637.000435,41.37494734701934,-71.83101164695832,-2.986868,0,276.8633614417828,3.352913859813626,4.752105394607587,-9999,7273.44463125,-0.1315460205078125,0.92962646484375,-0.3936309814453125,1,0.91
2020-05-19 15:13:58.114 -0400,1589915637.000435,41.37494734701934,-71.83101164695832,-2.986868,0,276.8633614417828,3.352913859813626,4.752105394607587,-9999,7273.49452825,-0.1296234130859375,0.9069976806640625,-0.3966827392578125,1,0.91
2020-05-19 15:13:58.164 -0400,1589915637.000435,41.37494734701934,-71.83101164695832,-2.986868,0,276.8633614417828,3.352913859813626,4.752105394607587,-9999,7273.54442325,-0.1215362548828125,0.93408203125,-0.3408050537109375,1,0.91
2020-05-19 15:13:58.214 -0400,1589915637.000435,41.37494734701934,-71.83101164695832,-2.986868,0,276.8633614417828,3.352913859813626,4.752105394607587,-9999,7273.59431525,-0.1162872314453125,0.9794464111328125,-0.3321685791015625,1,0.91
2020-05-19 15:13:58.264 -0400,1589915638.000441,41.37494734701934,-71.83101164695832,-2.986868,0,276.8633614417828,3.274983458796754,4.806144023788351,-9999,7273.64420925,-0.2144317626953125,0.745697021484375,-0.569854736328125,1,0.91
2020-05-19 15:13:58.314 -0400,1589915638.000441,41.37494734701934,-71.83101164695832,-2.986868,0,276.8633614417828,3.274983458796754,4.806144023788351,-9999,7273.694105250001,-0.236663818359375,1.058792114257812,-0.159210205078125,1,0.91
2020-05-19 15:13:58.363 -0400,1589915638.000441,41.37494734701934,-71.83101164695832,-2.986868,0,276.8633614417828,3.274983458796754,4.806144023788351,-9999,7273.744001,-0.106597900390625,0.9283447265625,0.4071197509765625,1,0.91
2020-05-19 15:13:58.413 -0400,1589915638.000441,41.37494734701934,-71.83101164695832,-2.986868,0,276.8633614417828,3.274983458796754,4.806144023788351,-9999,7273.793898000001,0.0054473876953125,0.901031494140625,0.0790863037109375,1,0.91
2020-05-19 15:13:58.463 -0400,1589915638.000441,41.37494734701934,-71.83101164695832,-2.986868,0,276.8633614417828,3.274983458796754,4.806144023788351,-9999,7273.843795000001,-0.0756072998046875,1.022903442382812,-0.1638946533203125,1,0.91
2020-05-19 15:13:58.513 -0400,1589915638.000441,41.37494734701934,-71.83101164695832,-2.986868,0,276.8633614417828,3.274983458796754,4.806144023788351,-9999,7273.893694,-0.1536102294921875,1.133392333984375,0.0180816650390625,1,0.91
2020-05-19 15:13:58.563 -0400,1589915638.000441,41.37494734701934,-71.83101164695832,-2.986868,0,276.8633614417828,3.274983458796754,4.806144023788351,-9999,7273.943593000001,-0.1585845947265625,0.976531982421875,0.040557861328125,1,0.91
2020-05-19 15:13:58.613 -0400,1589915638.000441,41.37494734701934,-71.83101164695832,-2.986868,0,276.8633614417828,3.274983458796754,4.806144023788351,-9999,7273.993490000001,-0.18994140625,0.9770965576171875,0.200775146484375,1,0.91
2020-05-19 15:13:58.663 -0400,1589915638.000441,41.37494734701934,-71.83101164695832,-2.986868,0,276.8633614417828,3.274983458796754,4.806144023788351,-9999,7274.043387000001,-0.08856201171875,0.9710693359375,0.1477203369140625,1,0.91
2020-05-19 15:13:58.712 -0400,1589915638.000441,41.37494734701934,-71.83101164695832,-2.986868,0,276.8633614417828,3.274983458796754,4.806144023788351,-9999,7274.093283,-0.1279754638671875,1.022125244140625,0.1514129638671875,1,0.91
2020-05-19 15:13:58.762 -0400,1589915638.000441,41.37494734701934,-71.83101164695832,-2.986868,0,276.8633614417828,3.274983458796754,4.806144023788351,-9999,7274.14318,-0.05450439453125,0.953521728515625,0.0877838134765625,1,0.91
2020-05-19 15:13:58.812 -0400,1589915638.000441,41.37494734701934,-71.83101164695832,-2.986868,0,276.8633614417828,3.274983458796754,4.806144023788351,-9999,7274.193077000001,-0.090972900390625,1.03265380859375,0.143585205078125,1,0.91
2020-05-19 15:13:58.862 -0400,1589915638.000441,41.37494734701934,-71.83101164695832,-2.986868,0,276.8633614417828,3.274983458796754,4.806144023788351,-9999,7274.242973,-0.056640625,1.009109497070312,0.15313720703125,1,0.91
2020-05-19 15:13:58.912 -0400,1589915638.000441,41.37494734701934,-71.83101164695832,-2.986868,0,276.8633614417828,3.274983458796754,4.806144023788351,-9999,7274.292872,-0.073577880859375,0.9256744384765625,0.1477203369140625,1,0.91
2020-05-19 15:13:58.962 -0400,1589915638.000441,41.37494734701934,-71.83101164695832,-2.986868,0,276.8633614417828,3.274983458796754,4.806144023788351,-9999,7274.342766000001,-0.0805511474609375,0.999359130859375,0.175811767578125,1,0.91
2020-05-19 15:13:59.012 -0400,1589915638.000441,41.37494734701934,-71.83101164695832,-2.986868,0,276.8633614417828,3.274983458796754,4.806144023788351,-9999,7274.392662,-0.0752410888671875,1.02447509765625,0.2489166259765625,1,0.91
2020-05-19 15:13:59.062 -0400,1589915638.000441,41.37494734701934,-71.83101164695832,-2.986868,0,276.8633614417828,3.274983458796754,4.806144023788351,-9999,7274.442557,-0.0663604736328125,0.8795623779296875,0.108978271484375,1,0.91
2020-05-19 15:13:59.112 -0400,1589915638.000441,41.37494734701934,-71.83101164695832,-2.986868,0,276.8633614417828,3.274983458796754,4.806144023788351,-9999,7274.492450000001,-0.1185760498046875,1.000137329101562,0.21044921875,1,0.91
2020-05-19 15:13:59.162 -0400,1589915638.000441,41.37494734701934,-71.83101164695832,-2.986868,0,276.8633614417828,3.274983458796754,4.806144023788351,-9999,7274.542342000001,-0.074066162109375,0.9658966064453125,0.1526947021484375,1,0.91
2020-05-19 15:13:59.211 -0400,1589915638.000441,41.37494734701934,-71.83101164695832,-2.986868,0,276.8633614417828,3.274983458796754,4.806144023788351,-9999,7274.592236,-0.1107025146484375,0.9826202392578125,0.161224365234375,1,0.91
2020-05-19 15:13:59.262 -0400,1589915639.000447,41.37494734701934,-71.83101164695832,-2.986868,0,276.8633614417828,3.402773698975381,4.716531372348777,-9999,7274.642134000001,-0.0892486572265625,0.9769134521484375,0.093963623046875,1,0.91
2020-05-19 15:13:59.311 -0400,1589915639.000447,41.37494734701934,-71.83101164695832,-2.986868,0,276.8633614417828,3.402773698975381,4.716531372348777,-9999,7274.69203,-0.09735107421875,0.970611572265625,0.0889129638671875,1,0.91
2020-05-19 15:13:59.361 -0400,1589915639.000447,41.37494734701934,-71.83101164695832,-2.986868,0,276.8633614417828,3.402773698975381,4.716531372348777,-9999,7274.741929625,-0.09619140625,1.012741088867188,0.1356964111328125,1,0.91
2020-05-19 15:13:59.411 -0400,1589915639.000447,41.37494734701934,-71.83101164695832,-2.986868,0,276.8633614417828,3.402773698975381,4.716531372348777,-9999,7274.791826625001,-0.1156158447265625,0.9825592041015625,0.1644744873046875,1,0.91
2020-05-19 15:13:59.461 -0400,1589915639.000447,41.37494734701934,-71.83101164695832,-2.986868,0,276.8633614417828,3.402773698975381,4.716531372348777,-9999,7274.841724625,-0.1247711181640625,0.9802703857421875,0.141265869140625,1,0.91
2020-05-19 15:13:59.511 -0400,1589915639.000447,41.37494734701934,-71.83101164695832,-2.986868,0,276.8633614417828,3.402773698975381,4.716531372348777,-9999,7274.891618625001,-0.1351776123046875,0.9785614013671875,0.12060546875,1,0.91
2020-05-19 15:13:59.561 -0400,1589915639.000447,41.37494734701934,-71.83101164695832,-2.986868,0,276.8633614417828,3.402773698975381,4.716531372348777,-9999,7274.941513625001,-0.1277313232421875,0.9625244140625,0.097076416015625,1,0.91
2020-05-19 15:13:59.611 -0400,1589915639.000447,41.37494734701934,-71.83101164695832,-2.986868,0,276.8633614417828,3.402773698975381,4.716531372348777,-9999,7274.991411625,-0.1304779052734375,1.024337768554688,0.1151885986328125,1,0.91
2020-05-19 15:13:59.660 -0400,1589915639.000447,41.37494734701934,-71.83101164695832,-2.986868,0,276.8633614417828,3.402773698975381,4.716531372348777,-9999,7275.041308625,-0.14886474609375,0.975189208984375,0.1631317138671875,1,0.91
2020-05-19 15:13:59.710 -0400,1589915639.000447,41.37494734701934,-71.83101164695832,-2.986868,0,276.8633614417828,3.402773698975381,4.716531372348777,-9999,7275.091204625001,-0.1619415283203125,0.949554443359375,0.1927337646484375,1,0.91
2020-05-19 15:13:59.760 -0400,1589915639.000447,41.37494734701934,-71.83101164695832,-2.986868,0,276.8633614417828,3.402773698975381,4.716531372348777,-9999,7275.141101625,-0.1685333251953125,0.9754791259765625,0.17266845703125,1,0.91
2020-05-19 15:13:59.810 -0400,1589915639.000447,41.37494734701934,-71.83101164695832,-2.986868,0,276.8633614417828,3.402773698975381,4.716531372348777,-9999,7275.190998625,-0.1651458740234375,0.962615966796875,0.12921142578125,1,0.91
2020-05-19 15:13:59.860 -0400,1589915639.000447,41.37494734701934,-71.83101164695832,-2.986868,0,276.8633614417828,3.402773698975381,4.716531372348777,-9999,7275.240892625,-0.14306640625,0.994293212890625,0.139495849609375,1,0.91
2020-05-19 15:13:59.910 -0400,1589915639.000447,41.37494734701934,-71.83101164695832,-2.986868,0,276.8633614417828,3.402773698975381,4.716531372348777,-9999,7275.290786625001,-0.1518096923828125,0.9951171875,0.06201171875,1,0.91
2020-05-19 15:13:59.960 -0400,1589915639.000447,41.37494734701934,-71.83101164695832,-2.986868,0,276.8633614417828,3.402773698975381,4.716531372348777,-9999,7275.340679625,-0.1532135009765625,0.9708709716796875,0.108795166015625,1,0.91
2020-05-19 15:14:00.010 -0400,1589915639.000447,41.37494734701934,-71.83101164695832,-2.986868,0,276.8633614417828,3.402773698975381,4.716531372348777,-9999,7275.390574625,-0.1439971923828125,0.984954833984375,0.13592529296875,1,0.91
2020-05-19 15:14:00.060 -0400,1589915639.000447,41.37494734701934,-71.83101164695832,-2.986868,0,276.8633614417828,3.402773698975381,4.716531372348777,-9999,7275.440465625001,-0.158447265625,0.938568115234375,0.1904296875,1,0.91
2020-05-19 15:14:00.110 -0400,1589915639.000447,41.37494734701934,-71.83101164695832,-2.986868,0,276.8633614417828,3.402773698975381,4.716531372348777,-9999,7275.490358625,-0.173858642578125,0.947784423828125,0.188812255859375,1,0.91
2020-05-19 15:14:00.160 -0400,1589915639.000447,41.37494734701934,-71.83101164695832,-2.986868,0,276.8633614417828,3.402773698975381,4.716531372348777,-9999,7275.540252625,-0.174652099609375,0.9769744873046875,0.2211456298828125,1,0.91
2020-05-19 15:14:00.209 -0400,1589915639.000447,41.37494734701934,-71.83101164695832,-2.986868,0,276.8633614417828,3.402773698975381,4.716531372348777,-9999,7275.590147625,-0.1688385009765625,0.96905517578125,0.207977294921875,1,0.91
2020-05-19 15:14:00.259 -0400,1589915639.000447,41.37494734701934,-71.83101164695832,-2.986868,0,276.8633614417828,3.402773698975381,4.716531372348777,-9999,7275.640043625001,-0.1777801513671875,0.981536865234375,0.218780517578125,1,0.91
2020-05-19 15:14:00.309 -0400,1589915639.000447,41.37494734701934,-71.83101164695832,-2.986868,0,276.8633614417828,3.402773698975381,4.716531372348777,-9999,7275.689938625001,-0.1793212890625,0.9536590576171875,0.2137908935546875,1,0.91
2020-05-19 15:14:00.359 -0400,1589915640.000456,41.374947688362,-71.83101629257116,-2.049863,0,276.8633583331151,3.468635667289734,4.668308434582524,-9999,7275.739833291667,-0.1848297119140625,0.970916748046875,0.1978607177734375,1,0.91
2020-05-19 15:14:00.409 -0400,1589915640.000456,41.374947688362,-71.83101629257116,-2.049863,0,276.8633583331151,3.468635667289734,4.668308434582524,-9999,7275.789728291667,-0.187530517578125,0.9536285400390625,0.2249908447265625,1,0.91
2020-05-19 15:14:00.459 -0400,1589915640.000456,41.374947688362,-71.83101629257116,-2.049863,0,276.8633583331151,3.468635667289734,4.668308434582524,-9999,7275.839623291668,-0.1846160888671875,0.9443206787109375,0.215118408203125,1,0.91
2020-05-19 15:14:00.509 -0400,1589915640.000456,41.374947688362,-71.83101629257116,-2.049863,0,276.8633583331151,3.468635667289734,4.668308434582524,-9999,7275.889518291667,-0.1813201904296875,0.955535888671875,0.2309722900390625,1,0.91
2020-05-19 15:14:00.559 -0400,1589915640.000456,41.374947688362,-71.83101629257116,-2.049863,0,276.8633583331151,3.468635667289734,4.668308434582524,-9999,7275.939413291667,-0.189178466796875,0.9366912841796875,0.2341766357421875,1,0.91
2020-05-19 15:14:00.609 -0400,1589915640.000456,41.374947688362,-71.83101629257116,-2.049863,0,276.8633583331151,3.468635667289734,4.668308434582524,-9999,7275.989310291667,-0.1967926025390625,0.957427978515625,0.210205078125,1,0.91
2020-05-19 15:14:00.659 -0400,1589915640.000456,41.374947688362,-71.83101629257116,-2.049863,0,276.8633583331151,3.468635667289734,4.668308434582524,-9999,7276.039205291667,-0.1851654052734375,0.950469970703125,0.2374114990234375,1,0.91
2020-05-19 15:14:00.709 -0400,1589915640.000456,41.374947688362,-71.83101629257116,-2.049863,0,276.8633583331151,3.468635667289734,4.668308434582524,-9999,7276.089098291667,-0.1634063720703125,0.9546661376953125,0.219329833984375,1,0.91
2020-05-19 15:14:00.758 -0400,1589915640.000456,41.374947688362,-71.83101629257116,-2.049863,0,276.8633583331151,3.468635667289734,4.668308434582524,-9999,7276.138991291667,-0.19586181640625,0.9474029541015625,0.211669921875,1,0.91
2020-05-19 15:14:00.808 -0400,1589915640.000456,41.374947688362,-71.83101629257116,-2.049863,0,276.8633583331151,3.468635667289734,4.668308434582524,-9999,7276.188888291667,-0.2282867431640625,0.9671630859375,0.197235107421875,1,0.91
2020-05-19 15:14:00.858 -0400,1589915640.000456,41.374947688362,-71.83101629257116,-2.049863,0,276.8633583331151,3.468635667289734,4.668308434582524,-9999,7276.238784291667,-0.2088623046875,0.9519805908203125,0.2347564697265625,1,0.91
2020-05-19 15:14:00.908 -0400,1589915640.000456,41.374947688362,-71.83101629257116,-2.049863,0,276.8633583331151,3.468635667289734,4.668308434582524,-9999,7276.288679291667,-0.198089599609375,0.9685821533203125,0.2202911376953125,1,0.91
2020-05-19 15:14:00.958 -0400,1589915640.000456,41.374947688362,-71.83101629257116,-2.049863,0,276.8633583331151,3.468635667289734,4.668308434582524,-9999,7276.338572291667,-0.1994171142578125,0.9587860107421875,0.2167816162109375,1,0.91
2020-05-19 15:14:01.008 -0400,1589915640.000456,41.374947688362,-71.83101629257116,-2.049863,0,276.8633583331151,3.468635667289734,4.668308434582524,-9999,7276.388465291667,-0.196136474609375,0.95416259765625,0.22467041015625,1,0.91
2020-05-19 15:14:01.058 -0400,1589915640.000456,41.374947688362,-71.83101629257116,-2.049863,0,276.8633583331151,3.468635667289734,4.668308434582524,-9999,7276.438359291667,-0.2027130126953125,0.9522857666015625,0.24273681640625,1,0.91
2020-05-19 15:14:01.107 -0400,1589915640.000456,41.374947688362,-71.83101629257116,-2.049863,0,276.8633583331151,3.468635667289734,4.668308434582524,-9999,7276.488251291667,-0.2025299072265625,0.94989013671875,0.220977783203125,1,0.91
2020-05-19 15:14:01.157 -0400,1589915640.000456,41.374947688362,-71.83101629257116,-2.049863,0,276.8633583331151,3.468635667289734,4.668308434582524,-9999,7276.538142291667,-0.206024169921875,0.9452972412109375,0.2263031005859375,1,0.91
2020-05-19 15:14:01.207 -0400,1589915640.000456,41.374947688362,-71.83101629257116,-2.049863,0,276.8633583331151,3.468635667289734,4.668308434582524,-9999,7276.588033291667,-0.19659423828125,0.94561767578125,0.2334747314453125,1,0.91
2020-05-19 15:14:01.257 -0400,1589915640.000456,41.374947688362,-71.83101629257116,-2.049863,0,276.8633583331151,3.468635667289734,4.668308434582524,-9999,7276.637922291667,-0.2005615234375,0.9454498291015625,0.2389373779296875,1,0.91
2020-05-19 15:14:01.307 -0400,1589915641.000462,41.3749481319274,-71.8310235302246,-2.31584,0,314.9182466009365,3.494108976700897,4.649273006796553,-9999,7276.687814291667,-0.1907958984375,0.9485931396484375,0.2678375244140625,1,0.91
2020-05-19 15:14:01.357 -0400,1589915641.000462,41.3749481319274,-71.8310235302246,-2.31584,0,314.9182466009365,3.494108976700897,4.649273006796553,-9999,7276.737708541667,-0.182525634765625,0.9356842041015625,0.2462615966796875,1,0.91
2020-05-19 15:14:01.407 -0400,1589915641.000462,41.3749481319274,-71.8310235302246,-2.31584,0,314.9182466009365,3.494108976700897,4.649273006796553,-9999,7276.787602541667,-0.1922760009765625,0.9470367431640625,0.3003082275390625,1,0.91
2020-05-19 15:14:01.457 -0400,1589915641.000462,41.3749481319274,-71.8310235302246,-2.31584,0,314.9182466009365,3.494108976700897,4.649273006796553,-9999,7276.837494541667,-0.198699951171875,0.96307373046875,0.2542724609375,1,0.91
2020-05-19 15:14:01.507 -0400,1589915641.000462,41.3749481319274,-71.8310235302246,-2.31584,0,314.9182466009365,3.494108976700897,4.649273006796553,-9999,7276.887388541667,-0.173919677734375,0.9933624267578125,0.1988067626953125,1,0.91
2020-05-19 15:14:01.556 -0400,1589915641.000462,41.3749481319274,-71.8310235302246,-2.31584,0,314.9182466009365,3.494108976700897,4.649273006796553,-9999,7276.937279541668,-0.1742095947265625,0.948883056640625,0.1930694580078125,1,0.91
2020-05-19 15:14:01.606 -0400,1589915641.000462,41.3749481319274,-71.8310235302246,-2.31584,0,314.9182466009365,3.494108976700897,4.649273006796553,-9999,7276.987173541667,-0.178680419921875,0.9586334228515625,0.2343597412109375,1,0.91
2020-05-19 15:14:01.656 -0400,1589915641.000462,41.3749481319274,-71.8310235302246,-2.31584,0,314.9182466009365,3.494108976700897,4.649273006796553,-9999,7277.037070541667,-0.1922454833984375,0.954559326171875,0.2067413330078125,1,0.91
2020-05-19 15:14:01.706 -0400,1589915641.000462,41.3749481319274,-71.8310235302246,-2.31584,0,314.9182466009365,3.494108976700897,4.649273006796553,-9999,7277.086967541667,-0.207794189453125,0.96612548828125,0.1920318603515625,1,0.91
2020-05-19 15:14:01.756 -0400,1589915641.000462,41.3749481319274,-71.8310235302246,-2.31584,0,314.9182466009365,3.494108976700897,4.649273006796553,-9999,7277.136865541667,-0.18560791015625,0.9550628662109375,0.1999359130859375,1,0.91
2020-05-19 15:14:01.806 -0400,1589915641.000462,41.3749481319274,-71.8310235302246,-2.31584,0,314.9182466009365,3.494108976700897,4.649273006796553,-9999,7277.186761541667,-0.17999267578125,0.9629058837890625,0.216339111328125,1,0.91
2020-05-19 15:14:01.856 -0400,1589915641.000462,41.3749481319274,-71.8310235302246,-2.31584,0,314.9182466009365,3.494108976700897,4.649273006796553,-9999,7277.236658541667,-0.1851959228515625,0.9707183837890625,0.183258056640625,1,0.91
2020-05-19 15:14:01.906 -0400,1589915641.000462,41.3749481319274,-71.8310235302246,-2.31584,0,314.9182466009365,3.494108976700897,4.649273006796553,-9999,7277.286553541667,-0.191009521484375,0.9666290283203125,0.1805877685546875,1,0.91
2020-05-19 15:14:01.956 -0400,1589915641.000462,41.3749481319274,-71.8310235302246,-2.31584,0,314.9182466009365,3.494108976700897,4.649273006796553,-9999,7277.336445541667,-0.1843414306640625,0.96527099609375,0.2094573974609375,1,0.91
2020-05-19 15:14:02.006 -0400,1589915641.000462,41.3749481319274,-71.8310235302246,-2.31584,0,314.9182466009365,3.494108976700897,4.649273006796553,-9999,7277.386339541667,-0.1920013427734375,0.9644622802734375,0.1949462890625,1,0.91
2020-05-19 15:14:02.056 -0400,1589915641.000462,41.3749481319274,-71.8310235302246,-2.31584,0,314.9182466009365,3.494108976700897,4.649273006796553,-9999,7277.436233541667,-0.1905670166015625,0.9580535888671875,0.194305419921875,1,0.91
2020-05-19 15:14:02.105 -0400,1589915641.000462,41.3749481319274,-71.8310235302246,-2.31584,0,314.9182466009365,3.494108976700897,4.649273006796553,-9999,7277.486127541667,-0.1890411376953125,0.9637298583984375,0.193023681640625,1,0.91
2020-05-19 15:14:02.155 -0400,1589915641.000462,41.3749481319274,-71.8310235302246,-2.31584,0,314.9182466009365,3.494108976700897,4.649273006796553,-9999,7277.536023541667,-0.1893463134765625,0.963226318359375,0.18939208984375,1,0.91
2020-05-19 15:14:02.205 -0400,1589915641.000462,41.3749481319274,-71.8310235302246,-2.31584,0,314.9182466009365,3.494108976700897,4.649273006796553,-9999,7277.585917541667,-0.180999755859375,0.971832275390625,0.194366455078125,1,0.91
2020-05-19 15:14:02.255 -0400,1589915642.000472,41.3749481319274,-71.8310235302246,-2.31584,0,314.9182466009365,3.479060402644933,4.660544576284719,-9999,7277.635810541668,-0.188140869140625,0.96533203125,0.19110107421875,1,0.91
2020-05-19 15:14:02.305 -0400,1589915642.000472,41.3749481319274,-71.8310235302246,-2.31584,0,314.9182466009365,3.479060402644933,4.660544576284719,-9999,7277.685702541668,-0.189971923828125,0.97088623046875,0.1972198486328125,1,0.91
2020-05-19 15:14:02.355 -0400,1589915642.000472,41.3749481319274,-71.8310235302246,-2.31584,0,314.9182466009365,3.479060402644933,4.660544576284719,-9999,7277.735596375001,-0.1912841796875,0.9611358642578125,0.1825714111328125,1,0.91
2020-05-19 15:14:02.405 -0400,1589915642.000472,41.3749481319274,-71.8310235302246,-2.31584,0,314.9182466009365,3.479060402644933,4.660544576284719,-9999,7277.785488375001,-0.18756103515625,0.9620513916015625,0.1907196044921875,1,0.91
2020-05-19 15:14:02.455 -0400,1589915642.000472,41.3749481319274,-71.8310235302246,-2.31584,0,314.9182466009365,3.479060402644933,4.660544576284719,-9999,7277.835381375,-0.1850738525390625,0.963409423828125,0.1914215087890625,1,0.91
2020-05-19 15:14:02.504 -0400,1589915642.000472,41.3749481319274,-71.8310235302246,-2.31584,0,314.9182466009365,3.479060402644933,4.660544576284719,-9999,7277.885275375001,-0.1851806640625,0.9732513427734375,0.1832733154296875,1,0.91
2020-05-19 15:14:02.554 -0400,1589915642.000472,41.3749481319274,-71.8310235302246,-2.31584,0,314.9182466009365,3.479060402644933,4.660544576284719,-9999,7277.935170375001,-0.18450927734375,0.975982666015625,0.1695404052734375,1,0.91
2020-05-19 15:14:02.604 -0400,1589915642.000472,41.3749481319274,-71.8310235302246,-2.31584,0,314.9182466009365,3.479060402644933,4.660544576284719,-9999,7277.985069375,-0.18524169921875,0.9608306884765625,0.1798248291015625,1,0.91
2020-05-19 15:14:02.654 -0400,1589915642.000472,41.3749481319274,-71.8310235302246,-2.31584,0,314.9182466009365,3.479060402644933,4.660544576284719,-9999,7278.034967375001,-0.1870269775390625,0.9586944580078125,0.1812286376953125,1,0.91
2020-05-19 15:14:02.704 -0400,1589915642.000472,41.3749481319274,-71.8310235302246,-2.31584,0,314.9182466009365,3.479060402644933,4.660544576284719,-9999,7278.084865375001,-0.1803131103515625,0.9682159423828125,0.176849365234375,1,0.91
2020-05-19 15:14:02.754 -0400,1589915642.000472,41.3749481319274,-71.8310235302246,-2.31584,0,314.9182466009365,3.479060402644933,4.660544576284719,-9999,7278.134761375,-0.18353271484375,0.9754180908203125,0.1671295166015625,1,0.91
2020-05-19 15:14:02.804 -0400,1589915642.000472,41.3749481319274,-71.8310235302246,-2.31584,0,314.9182466009365,3.479060402644933,4.660544576284719,-9999,7278.184654375001,-0.1835479736328125,0.968017578125,0.1601409912109375,1,0.91
2020-05-19 15:14:02.854 -0400,1589915642.000472,41.3749481319274,-71.8310235302246,-2.31584,0,314.9182466009365,3.479060402644933,4.660544576284719,-9999,7278.234548375,-0.1787872314453125,0.965972900390625,0.17584228515625,1,0.91
2020-05-19 15:14:02.904 -0400,1589915642.000472,41.3749481319274,-71.8310235302246,-2.31584,0,314.9182466009365,3.479060402644933,4.660544576284719,-9999,7278.284443375001,-0.1850738525390625,0.9634246826171875,0.1746978759765625,1,0.91
2020-05-19 15:14:02.954 -0400,1589915642.000472,41.3749481319274,-71.8310235302246,-2.31584,0,314.9182466009365,3.479060402644933,4.660544576284719,-9999,7278.334339375,-0.18536376953125,0.9624481201171875,0.18353271484375,1,0.91
2020-05-19 15:14:03.003 -0400,1589915642.000472,41.3749481319274,-71.8310235302246,-2.31584,0,314.9182466009365,3.479060402644933,4.660544576284719,-9999,7278.384234375,-0.1982421875,0.9706268310546875,0.182464599609375,1,0.91
2020-05-19 15:14:03.053 -0400,1589915642.000472,41.3749481319274,-71.8310235302246,-2.31584,0,314.9182466009365,3.479060402644933,4.660544576284719,-9999,7278.434128375,-0.1959075927734375,0.9780426025390625,0.181854248046875,1,0.91
2020-05-19 15:14:03.103 -0400,1589915642.000472,41.3749481319274,-71.8310235302246,-2.31584,0,314.9182466009365,3.479060402644933,4.660544576284719,-9999,7278.484023375,-0.1690521240234375,0.9681243896484375,0.167327880859375,1,0.91
2020-05-19 15:14:03.154 -0400,1589915642.000472,41.3749481319274,-71.8310235302246,-2.31584,0,314.9182466009365,3.479060402644933,4.660544576284719,-9999,7278.533919375001,-0.1726531982421875,0.974365234375,0.161895751953125,1,0.91
2020-05-19 15:14:03.203 -0400,1589915642.000472,41.3749481319274,-71.8310235302246,-2.31584,0,314.9182466009365,3.479060402644933,4.660544576284719,-9999,7278.583816375,-0.1779022216796875,0.9685821533203125,0.1665496826171875,1,0.91
2020-05-19 15:14:03.253 -0400,1589915643.000475,41.3749481319274,-71.8310235302246,-2.31584,0,314.9182466009365,3.434676035725868,4.693350355811856,-9999,7278.633711375001,-0.187713623046875,0.9648895263671875,0.173583984375,1,0.91
2020-05-19 15:14:03.303 -0400,1589915643.000475,41.3749481319274,-71.8310235302246,-2.31584,0,314.9182466009365,3.434676035725868,4.693350355811856,-9999,7278.683606375001,-0.1849822998046875,0.967987060546875,0.1726837158203125,1,0.91
2020-05-19 15:14:03.353 -0400,1589915643.000475,41.3749481319274,-71.8310235302246,-2.31584,0,314.9182466009365,3.434676035725868,4.693350355811856,-9999,7278.733500916667,-0.1817626953125,0.96905517578125,0.1708831787109375,1,0.91
2020-05-19 15:14:03.403 -0400,1589915643.000475,41.3749481319274,-71.8310235302246,-2.31584,0,314.9182466009365,3.434676035725868,4.693350355811856,-9999,7278.783397916667,-0.187286376953125,0.9643402099609375,0.1386260986328125,1,0.91
2020-05-19 15:14:03.452 -0400,1589915643.000475,41.3749481319274,-71.8310235302246,-2.31584,0,314.9182466009365,3.434676035725868,4.693350355811856,-9999,7278.833294916667,-0.2440948486328125,0.9605560302734375,0.07647705078125,1,0.91
2020-05-19 15:14:03.502 -0400,1589915643.000475,41.3749481319274,-71.8310235302246,-2.31584,0,314.9182466009365,3.434676035725868,4.693350355811856,-9999,7278.883193916668,-0.2939300537109375,0.9633331298828125,0.133819580078125,1,0.91
2020-05-19 15:14:03.553 -0400,1589915643.000475,41.3749481319274,-71.8310235302246,-2.31584,0,314.9182466009365,3.434676035725868,4.693350355811856,-9999,7278.933095916667,-0.26605224609375,0.95892333984375,0.2077178955078125,1,0.91
2020-05-19 15:14:03.602 -0400,1589915643.000475,41.3749481319274,-71.8310235302246,-2.31584,0,314.9182466009365,3.434676035725868,4.693350355811856,-9999,7278.982992916667,-0.217559814453125,0.9312896728515625,0.1988983154296875,1,0.91
2020-05-19 15:14:03.652 -0400,1589915643.000475,41.3749481319274,-71.8310235302246,-2.31584,0,314.9182466009365,3.434676035725868,4.693350355811856,-9999,7279.032889916667,-0.21759033203125,0.9859466552734375,0.1626434326171875,1,0.91
2020-05-19 15:14:03.702 -0400,1589915643.000475,41.3749481319274,-71.8310235302246,-2.31584,0,314.9182466009365,3.434676035725868,4.693350355811856,-9999,7279.082785916667,-0.2427978515625,0.960479736328125,0.134490966796875,1,0.91
2020-05-19 15:14:03.752 -0400,1589915643.000475,41.3749481319274,-71.8310235302246,-2.31584,0,314.9182466009365,3.434676035725868,4.693350355811856,-9999,7279.132680916667,-0.2668914794921875,0.965850830078125,0.1536712646484375,1,0.91
2020-05-19 15:14:03.802 -0400,1589915643.000475,41.3749481319274,-71.8310235302246,-2.31584,0,314.9182466009365,3.434676035725868,4.693350355811856,-9999,7279.182575916667,-0.253692626953125,0.9540557861328125,0.178466796875,1,0.91
2020-05-19 15:14:03.852 -0400,1589915643.000475,41.3749481319274,-71.8310235302246,-2.31584,0,314.9182466009365,3.434676035725868,4.693350355811856,-9999,7279.232470916667,-0.246856689453125,0.946533203125,0.174530029296875,1,0.91
2020-05-19 15:14:03.902 -0400,1589915643.000475,41.3749481319274,-71.8310235302246,-2.31584,0,314.9182466009365,3.434676035725868,4.693350355811856,-9999,7279.282364916667,-0.2504119873046875,0.9689178466796875,0.1902618408203125,1,0.91
2020-05-19 15:14:03.952 -0400,1589915643.000475,41.3749481319274,-71.8310235302246,-2.31584,0,314.9182466009365,3.434676035725868,4.693350355811856,-9999,7279.332258916667,-0.2525482177734375,0.9592437744140625,0.1927642822265625,1,0.91
2020-05-19 15:14:04.001 -0400,1589915643.000475,41.3749481319274,-71.8310235302246,-2.31584,0,314.9182466009365,3.434676035725868,4.693350355811856,-9999,7279.382152916667,-0.2268524169921875,0.9374237060546875,0.2084197998046875,1,0.91
2020-05-19 15:14:04.051 -0400,1589915643.000475,41.3749481319274,-71.8310235302246,-2.31584,0,314.9182466009365,3.434676035725868,4.693350355811856,-9999,7279.432044916667,-0.213958740234375,0.9653167724609375,0.21563720703125,1,0.91
2020-05-19 15:14:04.101 -0400,1589915643.000475,41.3749481319274,-71.8310235302246,-2.31584,0,314.9182466009365,3.434676035725868,4.693350355811856,-9999,7279.481937916667,-0.236480712890625,0.98590087890625,0.2309112548828125,1,0.91
2020-05-19 15:14:04.151 -0400,1589915643.000475,41.3749481319274,-71.8310235302246,-2.31584,0,314.9182466009365,3.434676035725868,4.693350355811856,-9999,7279.531835916667,-0.2706451416015625,0.9635009765625,0.2714080810546875,1,0.91
2020-05-19 15:14:04.201 -0400,1589915643.000475,41.3749481319274,-71.8310235302246,-2.31584,0,314.9182466009365,3.434676035725868,4.693350355811856,-9999,7279.581730916667,-0.2519073486328125,0.95062255859375,0.199249267578125,1,0.91
2020-05-19 15:14:04.251 -0400,1589915643.000475,41.3749481319274,-71.8310235302246,-2.31584,0,314.9182466009365,3.434676035725868,4.693350355811856,-9999,7279.631624916668,-0.2129364013671875,0.948333740234375,0.197509765625,1,0.91
2020-05-19 15:14:04.301 -0400,1589915643.000475,41.3749481319274,-71.8310235302246,-2.31584,0,314.9182466009365,3.434676035725868,4.693350355811856,-9999,7279.681518916667,-0.2373504638671875,0.9538116455078125,0.17559814453125,1,0.91
2020-05-19 15:14:04.351 -0400,1589915644.00048,41.3749481319274,-71.8310235302246,-2.31584,0,314.9182466009365,3.418788184685575,4.704936171835187,-9999,7279.731411375001,-0.290313720703125,0.9717864990234375,0.217742919921875,1,0.91
2020-05-19 15:14:04.401 -0400,1589915644.00048,41.3749481319274,-71.8310235302246,-2.31584,0,314.9182466009365,3.418788184685575,4.704936171835187,-9999,7279.781303375001,-0.298248291015625,0.961273193359375,0.19708251953125,1,0.91
2020-05-19 15:14:04.450 -0400,1589915644.00048,41.3749481319274,-71.8310235302246,-2.31584,0,314.9182466009365,3.418788184685575,4.704936171835187,-9999,7279.831194375,-0.314971923828125,0.9409027099609375,0.2490692138671875,1,0.91
2020-05-19 15:14:04.500 -0400,1589915644.00048,41.3749481319274,-71.8310235302246,-2.31584,0,314.9182466009365,3.418788184685575,4.704936171835187,-9999,7279.881087375001,-0.315765380859375,0.9983673095703125,0.17181396484375,1,0.91
2020-05-19 15:14:04.550 -0400,1589915644.00048,41.3749481319274,-71.8310235302246,-2.31584,0,314.9182466009365,3.418788184685575,4.704936171835187,-9999,7279.930980375,-0.34478759765625,0.959197998046875,0.22637939453125,1,0.91
2020-05-19 15:14:04.600 -0400,1589915644.00048,41.3749481319274,-71.8310235302246,-2.31584,0,314.9182466009365,3.418788184685575,4.704936171835187,-9999,7279.980875375,-0.2705230712890625,0.8864593505859375,0.30450439453125,1,0.91
2020-05-19 15:14:04.650 -0400,1589915644.00048,41.3749481319274,-71.8310235302246,-2.31584,0,314.9182466009365,3.418788184685575,4.704936171835187,-9999,7280.030769375,-0.2882232666015625,0.87664794921875,0.308502197265625,1,0.91
2020-05-19 15:14:04.700 -0400,1589915644.00048,41.3749481319274,-71.8310235302246,-2.31584,0,314.9182466009365,3.418788184685575,4.704936171835187,-9999,7280.080661375,-0.3481903076171875,0.942352294921875,0.34320068359375,1,0.91
2020-05-19 15:14:04.750 -0400,1589915644.00048,41.3749481319274,-71.8310235302246,-2.31584,0,314.9182466009365,3.418788184685575,4.704936171835187,-9999,7280.130551375,-0.4674224853515625,0.9501190185546875,0.1986236572265625,1,0.91
2020-05-19 15:14:04.800 -0400,1589915644.00048,41.3749481319274,-71.8310235302246,-2.31584,0,314.9182466009365,3.418788184685575,4.704936171835187,-9999,7280.180442375001,-0.6009674072265625,1.03741455078125,-0.0652923583984375,1,0.91
2020-05-19 15:14:04.849 -0400,1589915644.00048,41.3749481319274,-71.8310235302246,-2.31584,0,314.9182466009365,3.418788184685575,4.704936171835187,-9999,7280.230335375,-0.7106781005859375,1.166641235351562,0.0336151123046875,1,0.91
2020-05-19 15:14:04.899 -0400,1589915644.00048,41.3749481319274,-71.8310235302246,-2.31584,0,314.9182466009365,3.418788184685575,4.704936171835187,-9999,7280.280230375,-0.5568084716796875,0.781005859375,0.00665283203125,1,0.91
2020-05-19 15:14:04.949 -0400,1589915644.00048,41.3749481319274,-71.8310235302246,-2.31584,0,314.9182466009365,3.418788184685575,4.704936171835187,-9999,7280.330124375,-0.1645355224609375,0.88751220703125,0.1352081298828125,1,0.91
2020-05-19 15:14:04.999 -0400,1589915644.00048,41.3749481319274,-71.8310235302246,-2.31584,0,314.9182466009365,3.418788184685575,4.704936171835187,-9999,7280.380020375001,-0.282623291015625,1.0343017578125,-0.149078369140625,1,0.91
2020-05-19 15:14:05.049 -0400,1589915644.00048,41.3749481319274,-71.8310235302246,-2.31584,0,314.9182466009365,3.418788184685575,4.704936171835187,-9999,7280.429914375,-0.197784423828125,0.918548583984375,-0.19317626953125,1,0.91
2020-05-19 15:14:05.099 -0400,1589915644.00048,41.3749481319274,-71.8310235302246,-2.31584,0,314.9182466009365,3.418788184685575,4.704936171835187,-9999,7280.479807375001,-0.387847900390625,0.906646728515625,-0.2846832275390625,1,0.91
2020-05-19 15:14:05.149 -0400,1589915644.00048,41.3749481319274,-71.8310235302246,-2.31584,0,314.9182466009365,3.418788184685575,4.704936171835187,-9999,7280.529699375001,-0.424560546875,0.965728759765625,-0.5167083740234375,1,0.91
2020-05-19 15:14:05.199 -0400,1589915644.00048,41.3749481319274,-71.8310235302246,-2.31584,0,314.9182466009365,3.418788184685575,4.704936171835187,-9999,7280.579592375,-0.4348907470703125,0.8618927001953125,-0.516845703125,1,0.91
2020-05-19 15:14:05.249 -0400,1589915645.000489,41.37494324544465,-71.83103690857929,-2.559598,0,314.9182367907036,3.41721353654416,4.706079969406405,-9999,7280.629486375001,-0.3724365234375,0.7990570068359375,-0.7347869873046875,1,0.91
2020-05-19 15:14:05.299 -0400,1589915645.000489,41.37494324544465,-71.83103690857929,-2.559598,0,314.9182367907036,3.41721353654416,4.706079969406405,-9999,7280.679381375,-0.3920745849609375,0.6382293701171875,-0.688232421875,1,0.91
2020-05-19 15:14:05.348 -0400,1589915645.000489,41.37494324544465,-71.83103690857929,-2.559598,0,314.9182367907036,3.41721353654416,4.706079969406405,-9999,7280.729276041667,-0.3748626708984375,0.59271240234375,-0.74810791015625,1,0.91
2020-05-19 15:14:05.398 -0400,1589915645.000489,41.37494324544465,-71.83103690857929,-2.559598,0,314.9182367907036,3.41721353654416,4.706079969406405,-9999,7280.779170041667,-0.3030548095703125,0.4013824462890625,-0.9768524169921875,1,0.91
2020-05-19 15:14:05.448 -0400,1589915645.000489,41.37494324544465,-71.83103690857929,-2.559598,0,314.9182367907036,3.41721353654416,4.706079969406405,-9999,7280.829061041667,-0.3747100830078125,0.4783172607421875,-0.8851776123046875,1,0.91
2020-05-19 15:14:05.498 -0400,1589915645.000489,41.37494324544465,-71.83103690857929,-2.559598,0,314.9182367907036,3.41721353654416,4.706079969406405,-9999,7280.878952041667,-0.3850250244140625,0.3800506591796875,-0.817901611328125,1,0.91
2020-05-19 15:14:05.548 -0400,1589915645.000489,41.37494324544465,-71.83103690857929,-2.559598,0,314.9182367907036,3.41721353654416,4.706079969406405,-9999,7280.928845041667,0.005950927734375,0.4297943115234375,-0.465972900390625,1,0.91
2020-05-19 15:14:05.598 -0400,1589915645.000489,41.37494324544465,-71.83103690857929,-2.559598,0,314.9182367907036,3.41721353654416,4.706079969406405,-9999,7280.978736041667,-0.04937744140625,-0.1373443603515625,-0.6384124755859375,1,0.91
2020-05-19 15:14:05.648 -0400,1589915645.000489,41.37494324544465,-71.83103690857929,-2.559598,0,314.9182367907036,3.41721353654416,4.706079969406405,-9999,7281.028626041667,0.14459228515625,-0.0177001953125,-0.335693359375,1,0.91
2020-05-19 15:14:05.698 -0400,1589915645.000489,41.37494324544465,-71.83103690857929,-2.559598,0,314.9182367907036,3.41721353654416,4.706079969406405,-9999,7281.078520041667,0.1743316650390625,-0.39691162109375,-0.2271728515625,1,0.91
2020-05-19 15:14:05.748 -0400,1589915645.000489,41.37494324544465,-71.83103690857929,-2.559598,0,314.9182367907036,3.41721353654416,4.706079969406405,-9999,7281.128415041667,0.377105712890625,-0.751922607421875,-0.265869140625,1,0.91
2020-05-19 15:14:05.797 -0400,1589915645.000489,41.37494324544465,-71.83103690857929,-2.559598,0,314.9182367907036,3.41721353654416,4.706079969406405,-9999,7281.178310041667,0.6888580322265625,-1.07110595703125,-0.4697113037109375,1,0.91
2020-05-19 15:14:05.859 -0400,1589915645.000489,41.37494324544465,-71.83103690857929,-2.559598,0,314.9182367907036,3.41721353654416,4.706079969406405,-9999,7281.228204041667,0.162567138671875,-1.059814453125,-1.158035278320312,1,0.91
2020-05-19 15:14:05.897 -0400,1589915645.000489,41.37494324544465,-71.83103690857929,-2.559598,0,314.9182367907036,3.41721353654416,4.706079969406405,-9999,7281.278097041667,0.215667724609375,-1.253311157226562,-0.73480224609375,1,0.91
2020-05-19 15:14:05.947 -0400,1589915645.000489,41.37494324544465,-71.83103690857929,-2.559598,0,314.9182367907036,3.41721353654416,4.706079969406405,-9999,7281.327992041667,0.425537109375,-1.009506225585938,-1.14892578125,1,0.91
2020-05-19 15:14:05.997 -0400,1589915645.000489,41.37494324544465,-71.83103690857929,-2.559598,0,314.9182367907036,3.41721353654416,4.706079969406405,-9999,7281.377888041667,-0.2089385986328125,-0.70123291015625,-0.825286865234375,1,0.91
2020-05-19 15:14:06.047 -0400,1589915645.000489,41.37494324544465,-71.83103690857929,-2.559598,0,314.9182367907036,3.41721353654416,4.706079969406405,-9999,7281.427785041667,0.0990142822265625,-0.6566009521484375,-0.842010498046875,1,0.91
2020-05-19 15:14:06.097 -0400,1589915645.000489,41.37494324544465,-71.83103690857929,-2.559598,0,314.9182367907036,3.41721353654416,4.706079969406405,-9999,7281.477681041667,0.0789794921875,-0.4840850830078125,-1.010086059570312,1,0.91
2020-05-19 15:14:06.147 -0400,1589915645.000489,41.37494324544465,-71.83103690857929,-2.559598,0,314.9182367907036,3.41721353654416,4.706079969406405,-9999,7281.527575041667,0.1944427490234375,-0.6158599853515625,-0.8192596435546875,1,0.91
2020-05-19 15:14:06.197 -0400,1589915645.000489,41.37494324544465,-71.83103690857929,-2.559598,0,314.9182367907036,3.41721353654416,4.706079969406405,-9999,7281.577466041667,0.813385009765625,-0.4927215576171875,-0.5749359130859375,1,0.91
2020-05-19 15:14:06.247 -0400,1589915645.000489,41.37494324544465,-71.83103690857929,-2.559598,0,314.9182367907036,3.41721353654416,4.706079969406405,-9999,7281.627359041667,0.5826873779296875,-0.2256317138671875,-0.6558837890625,1,0.91
2020-05-19 15:14:06.297 -0400,1589915645.000489,41.37494324544465,-71.83103690857929,-2.559598,0,314.9182367907036,3.41721353654416,4.706079969406405,-9999,7281.677252041667,0.353271484375,-0.3202362060546875,-1.043075561523438,1,0.91
2020-05-19 15:14:06.346 -0400,1589915646.000497,41.37494803096494,-71.83106071155939,-2.782958,1.123959,287.841279336478,3.41408215318798,4.708352162282698,-9999,7281.72714825,-0.0837249755859375,-0.7666778564453125,-1.63763427734375,1,0.91
2020-05-19 15:14:06.396 -0400,1589915646.000497,41.37494803096494,-71.83106071155939,-2.782958,1.123959,287.841279336478,3.41408215318798,4.708352162282698,-9999,7281.777045250001,-0.5202178955078125,-0.110443115234375,-1.0865478515625,1,0.91
2020-05-19 15:14:06.446 -0400,1589915646.000497,41.37494803096494,-71.83106071155939,-2.782958,1.123959,287.841279336478,3.41408215318798,4.708352162282698,-9999,7281.82694125,-0.5797271728515625,1.191909790039062,0.35601806640625,1,0.91
2020-05-19 15:14:06.496 -0400,1589915646.000497,41.37494803096494,-71.83106071155939,-2.782958,1.123959,287.841279336478,3.41408215318798,4.708352162282698,-9999,7281.876840250001,-0.8937835693359375,2.039794921875,0.165008544921875,1,0.91
2020-05-19 15:14:06.546 -0400,1589915646.000497,41.37494803096494,-71.83106071155939,-2.782958,1.123959,287.841279336478,3.41408215318798,4.708352162282698,-9999,7281.92673625,-0.8222808837890625,1.381622314453125,0.187164306640625,1,0.91
2020-05-19 15:14:06.596 -0400,1589915646.000497,41.37494803096494,-71.83106071155939,-2.782958,1.123959,287.841279336478,3.41408215318798,4.708352162282698,-9999,7281.97663325,0.0735321044921875,0.126373291015625,-0.25543212890625,1,0.91
2020-05-19 15:14:06.646 -0400,1589915646.000497,41.37494803096494,-71.83106071155939,-2.782958,1.123959,287.841279336478,3.41408215318798,4.708352162282698,-9999,7282.02652725,0.167144775390625,0.983612060546875,-0.1915283203125,1,0.91
2020-05-19 15:14:06.696 -0400,1589915646.000497,41.37494803096494,-71.83106071155939,-2.782958,1.123959,287.841279336478,3.41408215318798,4.708352162282698,-9999,7282.076424250001,-0.44677734375,0.678131103515625,0.03094482421875,1,0.91
2020-05-19 15:14:06.746 -0400,1589915646.000497,41.37494803096494,-71.83106071155939,-2.782958,1.123959,287.841279336478,3.41408215318798,4.708352162282698,-9999,7282.12631925,-0.4486846923828125,1.004730224609375,-0.120208740234375,1,0.91
2020-05-19 15:14:06.796 -0400,1589915646.000497,41.37494803096494,-71.83106071155939,-2.782958,1.123959,287.841279336478,3.41408215318798,4.708352162282698,-9999,7282.17621525,-0.3072967529296875,1.054489135742188,-0.02105712890625,1,0.91
2020-05-19 15:14:06.845 -0400,1589915646.000497,41.37494803096494,-71.83106071155939,-2.782958,1.123959,287.841279336478,3.41408215318798,4.708352162282698,-9999,7282.226110250001,-0.3673095703125,1.130661010742188,-0.176727294921875,1,0.91
2020-05-19 15:14:06.897 -0400,1589915646.000497,41.37494803096494,-71.83106071155939,-2.782958,1.123959,287.841279336478,3.41408215318798,4.708352162282698,-9999,7282.276005250001,-0.2957611083984375,1.172882080078125,0.003662109375,1,0.91
2020-05-19 15:14:06.945 -0400,1589915646.000497,41.37494803096494,-71.83106071155939,-2.782958,1.123959,287.841279336478,3.41408215318798,4.708352162282698,-9999,7282.32589925,-0.1869964599609375,0.965911865234375,-0.1496429443359375,1,0.91
2020-05-19 15:14:06.995 -0400,1589915646.000497,41.37494803096494,-71.83106071155939,-2.782958,1.123959,287.841279336478,3.41408215318798,4.708352162282698,-9999,7282.375794250001,-0.120849609375,0.7374267578125,-0.353057861328125,1,0.91
2020-05-19 15:14:07.045 -0400,1589915646.000497,41.37494803096494,-71.83106071155939,-2.782958,1.123959,287.841279336478,3.41408215318798,4.708352162282698,-9999,7282.42568825,0.132110595703125,0.5040435791015625,-0.264190673828125,1,0.91
2020-05-19 15:14:07.095 -0400,1589915646.000497,41.37494803096494,-71.83106071155939,-2.782958,1.123959,287.841279336478,3.41408215318798,4.708352162282698,-9999,7282.475581250001,-0.0085296630859375,0.542572021484375,-0.5264739990234375,1,0.91
2020-05-19 15:14:07.145 -0400,1589915646.000497,41.37494803096494,-71.83106071155939,-2.782958,1.123959,287.841279336478,3.41408215318798,4.708352162282698,-9999,7282.52547525,-0.0803070068359375,0.7729644775390625,-0.8910064697265625,1,0.91
2020-05-19 15:14:07.195 -0400,1589915646.000497,41.37494803096494,-71.83106071155939,-2.782958,1.123959,287.841279336478,3.41408215318798,4.708352162282698,-9999,7282.57536925,-0.2373504638671875,0.7167816162109375,-0.947723388671875,1,0.91
2020-05-19 15:14:07.245 -0400,1589915646.000497,41.37494803096494,-71.83106071155939,-2.782958,1.123959,287.841279336478,3.41408215318798,4.708352162282698,-9999,7282.62526425,-0.2036285400390625,0.6095428466796875,-0.8106842041015625,1,0.91
2020-05-19 15:14:07.295 -0400,1589915647.0005,41.3749498160792,-71.83109541934405,-2.680526,2.082145,283.1773728926146,3.400077384987208,4.718475475075332,-9999,7282.675160250001,-0.266876220703125,0.5480804443359375,-0.94915771484375,1,0.91
2020-05-19 15:14:07.344 -0400,1589915647.0005,41.3749498160792,-71.83109541934405,-2.680526,2.082145,283.1773728926146,3.400077384987208,4.718475475075332,-9999,7282.725052500001,-0.1520233154296875,0.29931640625,-0.8448486328125,1,0.91
2020-05-19 15:14:07.402 -0400,1589915647.0005,41.3749498160792,-71.83109541934405,-2.680526,2.082145,283.1773728926146,3.400077384987208,4.718475475075332,-9999,7282.7749475,-0.1159515380859375,0.044403076171875,-0.8387908935546875,1,0.91
2020-05-19 15:14:07.444 -0400,1589915647.0005,41.3749498160792,-71.83109541934405,-2.680526,2.082145,283.1773728926146,3.400077384987208,4.718475475075332,-9999,7282.824841500001,-0.0746612548828125,-0.1173248291015625,-0.921356201171875,1,0.91
2020-05-19 15:14:07.494 -0400,1589915647.0005,41.3749498160792,-71.83109541934405,-2.680526,2.082145,283.1773728926146,3.400077384987208,4.718475475075332,-9999,7282.8747345,-0.0531158447265625,-0.340789794921875,-0.8900299072265625,1,0.91
2020-05-19 15:14:07.544 -0400,1589915647.0005,41.3749498160792,-71.83109541934405,-2.680526,2.082145,283.1773728926146,3.400077384987208,4.718475475075332,-9999,7282.924628500001,0.0152587890625,-0.181121826171875,-0.726470947265625,1,0.91
2020-05-19 15:14:07.594 -0400,1589915647.0005,41.3749498160792,-71.83109541934405,-2.680526,2.082145,283.1773728926146,3.400077384987208,4.718475475075332,-9999,7282.974522500001,-0.00921630859375,-0.042633056640625,-0.7041015625,1,0.91
2020-05-19 15:14:07.644 -0400,1589915647.0005,41.3749498160792,-71.83109541934405,-2.680526,2.082145,283.1773728926146,3.400077384987208,4.718475475075332,-9999,7283.0244135,0.0882568359375,-0.2083587646484375,-0.93231201171875,1,0.91
2020-05-19 15:14:07.694 -0400,1589915647.0005,41.3749498160792,-71.83109541934405,-2.680526,2.082145,283.1773728926146,3.400077384987208,4.718475475075332,-9999,7283.0743075,-0.076263427734375,0.1756591796875,-0.9490966796875,1,0.91
2020-05-19 15:14:07.743 -0400,1589915647.0005,41.3749498160792,-71.83109541934405,-2.680526,2.082145,283.1773728926146,3.400077384987208,4.718475475075332,-9999,7283.124204500001,-0.1250457763671875,-0.0960235595703125,-0.8130340576171875,1,0.91
2020-05-19 15:14:07.793 -0400,1589915647.0005,41.3749498160792,-71.83109541934405,-2.680526,2.082145,283.1773728926146,3.400077384987208,4.718475475075332,-9999,7283.1740995,-0.1728973388671875,-0.0877532958984375,-1.1129150390625,1,0.91
2020-05-19 15:14:07.852 -0400,1589915647.0005,41.3749498160792,-71.83109541934405,-2.680526,2.082145,283.1773728926146,3.400077384987208,4.718475475075332,-9999,7283.2239895,-0.0348663330078125,-0.187469482421875,-1.27508544921875,1,0.91
2020-05-19 15:14:07.894 -0400,1589915647.0005,41.3749498160792,-71.83109541934405,-2.680526,2.082145,283.1773728926146,3.400077384987208,4.718475475075332,-9999,7283.2738815,0.0677337646484375,-0.5604248046875,-1.575546264648438,1,0.91
2020-05-19 15:14:07.943 -0400,1589915647.0005,41.3749498160792,-71.83109541934405,-2.680526,2.082145,283.1773728926146,3.400077384987208,4.718475475075332,-9999,7283.3237735,0.142913818359375,-0.897552490234375,-1.273834228515625,1,0.91
2020-05-19 15:14:07.993 -0400,1589915647.0005,41.3749498160792,-71.83109541934405,-2.680526,2.082145,283.1773728926146,3.400077384987208,4.718475475075332,-9999,7283.373666500001,0.4199066162109375,-1.015518188476562,-1.2303466796875,1,0.91
2020-05-19 15:14:08.043 -0400,1589915647.0005,41.3749498160792,-71.83109541934405,-2.680526,2.082145,283.1773728926146,3.400077384987208,4.718475475075332,-9999,7283.4235625,0.43548583984375,-0.9463958740234375,-0.775054931640625,1,0.91
2020-05-19 15:14:08.092 -0400,1589915647.0005,41.3749498160792,-71.83109541934405,-2.680526,2.082145,283.1773728926146,3.400077384987208,4.718475475075332,-9999,7283.4734575,0.426116943359375,-0.7359771728515625,-0.8299713134765625,1,0.91
2020-05-19 15:14:08.143 -0400,1589915647.0005,41.3749498160792,-71.83109541934405,-2.680526,2.082145,283.1773728926146,3.400077384987208,4.718475475075332,-9999,7283.523348500001,0.2869110107421875,-0.6311492919921875,-0.7108306884765625,1,0.91
2020-05-19 15:14:08.193 -0400,1589915647.0005,41.3749498160792,-71.83109541934405,-2.680526,2.082145,283.1773728926146,3.400077384987208,4.718475475075332,-9999,7283.5732395,0.24981689453125,-0.6739959716796875,-0.76708984375,1,0.91
2020-05-19 15:14:08.242 -0400,1589915648.000512,41.37496216726575,-71.83113027717943,-2.25988,2.582997,290.940395088617,3.427450355485347,4.698629703804313,-9999,7283.6231335,0.1375579833984375,-0.782745361328125,-0.6504669189453125,1,0.91
2020-05-19 15:14:08.292 -0400,1589915648.000512,41.37496216726575,-71.83113027717943,-2.25988,2.582997,290.940395088617,3.427450355485347,4.698629703804313,-9999,7283.6730235,0.0263671875,-1.003936767578125,-0.695465087890625,1,0.91
2020-05-19 15:14:08.342 -0400,1589915648.000512,41.37496216726575,-71.83113027717943,-2.25988,2.582997,290.940395088617,3.427450355485347,4.698629703804313,-9999,7283.722916500001,0.0975341796875,-1.329833984375,-1.156158447265625,1,0.91
2020-05-19 15:14:08.392 -0400,1589915648.000512,41.37496216726575,-71.83113027717943,-2.25988,2.582997,290.940395088617,3.427450355485347,4.698629703804313,-9999,7283.7728115,0.010894775390625,-0.579437255859375,-0.799774169921875,1,0.91
2020-05-19 15:14:08.442 -0400,1589915648.000512,41.37496216726575,-71.83113027717943,-2.25988,2.582997,290.940395088617,3.427450355485347,4.698629703804313,-9999,7283.822708500001,0.393524169921875,-0.75677490234375,-0.0858154296875,1,0.91
2020-05-19 15:14:08.492 -0400,1589915648.000512,41.37496216726575,-71.83113027717943,-2.25988,2.582997,290.940395088617,3.427450355485347,4.698629703804313,-9999,7283.872605500001,0.4936370849609375,-0.270599365234375,-0.354949951171875,1,0.91
2020-05-19 15:14:08.542 -0400,1589915648.000512,41.37496216726575,-71.83113027717943,-2.25988,2.582997,290.940395088617,3.427450355485347,4.698629703804313,-9999,7283.9225015,0.2777252197265625,-0.05743408203125,0.3601226806640625,1,0.91
2020-05-19 15:14:08.592 -0400,1589915648.000512,41.37496216726575,-71.83113027717943,-2.25988,2.582997,290.940395088617,3.427450355485347,4.698629703804313,-9999,7283.972397500001,-0.1420135498046875,0.9307708740234375,-0.2490234375,1,0.91
2020-05-19 15:14:08.642 -0400,1589915648.000512,41.37496216726575,-71.83113027717943,-2.25988,2.582997,290.940395088617,3.427450355485347,4.698629703804313,-9999,7284.0222915,-0.0281524658203125,0.3798828125,-0.0950164794921875,1,0.91
2020-05-19 15:14:08.691 -0400,1589915648.000512,41.37496216726575,-71.83113027717943,-2.25988,2.582997,290.940395088617,3.427450355485347,4.698629703804313,-9999,7284.072187500001,-0.55328369140625,1.26531982421875,0.3397979736328125,1,0.91
2020-05-19 15:14:08.741 -0400,1589915648.000512,41.37496216726575,-71.83113027717943,-2.25988,2.582997,290.940395088617,3.427450355485347,4.698629703804313,-9999,7284.1220805,-0.6923370361328125,0.79425048828125,-0.7613525390625,1,0.91
2020-05-19 15:14:08.791 -0400,1589915648.000512,41.37496216726575,-71.83113027717943,-2.25988,2.582997,290.940395088617,3.427450355485347,4.698629703804313,-9999,7284.171973500001,-0.6888427734375,2.060195922851562,-0.1098785400390625,1,0.91
2020-05-19 15:14:08.841 -0400,1589915648.000512,41.37496216726575,-71.83113027717943,-2.25988,2.582997,290.940395088617,3.427450355485347,4.698629703804313,-9999,7284.221868500001,-1.031036376953125,1.431793212890625,-0.6837615966796875,1,0.91
2020-05-19 15:14:08.891 -0400,1589915648.000512,41.37496216726575,-71.83113027717943,-2.25988,2.582997,290.940395088617,3.427450355485347,4.698629703804313,-9999,7284.2717645,-0.6875457763671875,1.72344970703125,-0.5756072998046875,1,0.91
2020-05-19 15:14:08.941 -0400,1589915648.000512,41.37496216726575,-71.83113027717943,-2.25988,2.582997,290.940395088617,3.427450355485347,4.698629703804313,-9999,7284.3216585,-0.180511474609375,1.263641357421875,-0.7720489501953125,1,0.91
2020-05-19 15:14:08.991 -0400,1589915648.000512,41.37496216726575,-71.83113027717943,-2.25988,2.582997,290.940395088617,3.427450355485347,4.698629703804313,-9999,7284.3715535,-0.207275390625,1.53729248046875,-0.1500396728515625,1,0.91
2020-05-19 15:14:09.041 -0400,1589915648.000512,41.37496216726575,-71.83113027717943,-2.25988,2.582997,290.940395088617,3.427450355485347,4.698629703804313,-9999,7284.421447500001,-0.205169677734375,1.308303833007812,-0.493011474609375,1,0.91
2020-05-19 15:14:09.091 -0400,1589915648.000512,41.37496216726575,-71.83113027717943,-2.25988,2.582997,290.940395088617,3.427450355485347,4.698629703804313,-9999,7284.471341500001,-0.2825775146484375,0.8381805419921875,-0.4612579345703125,1,0.91
2020-05-19 15:14:09.141 -0400,1589915648.000512,41.37496216726575,-71.83113027717943,-2.25988,2.582997,290.940395088617,3.427450355485347,4.698629703804313,-9999,7284.5212375,-0.4993438720703125,0.62554931640625,-0.5953369140625,1,0.91
2020-05-19 15:14:09.190 -0400,1589915648.000512,41.37496216726575,-71.83113027717943,-2.25988,2.582997,290.940395088617,3.427450355485347,4.698629703804313,-9999,7284.571133500001,-0.5963592529296875,0.1192626953125,-0.448760986328125,1,0.91
2020-05-19 15:14:09.241 -0400,1589915649.000514,41.37500626873818,-71.83111933848284,-2.643308,2.888533,334.4455743151213,3.436691600251481,4.691874665584083,-9999,7284.6210305,-0.7570343017578125,0.1613616943359375,-0.461700439453125,1,0.91
2020-05-19 15:14:09.290 -0400,1589915649.000514,41.37500626873818,-71.83111933848284,-2.643308,2.888533,334.4455743151213,3.436691600251481,4.691874665584083,-9999,7284.670925500001,-0.592376708984375,0.394500732421875,-0.5897674560546875,1,0.91
2020-05-19 15:14:09.340 -0400,1589915649.000514,41.37500626873818,-71.83111933848284,-2.643308,2.888533,334.4455743151213,3.436691600251481,4.691874665584083,-9999,7284.720818416667,-0.4510650634765625,0.44482421875,-0.29962158203125,1,0.91
2020-05-19 15:14:09.390 -0400,1589915649.000514,41.37500626873818,-71.83111933848284,-2.643308,2.888533,334.4455743151213,3.436691600251481,4.691874665584083,-9999,7284.770716416667,-0.24163818359375,0.6368255615234375,-0.7232666015625,1,0.91
2020-05-19 15:14:09.440 -0400,1589915649.000514,41.37500626873818,-71.83111933848284,-2.643308,2.888533,334.4455743151213,3.436691600251481,4.691874665584083,-9999,7284.820612416667,-0.3681640625,0.5351715087890625,-0.53125,1,0.91
2020-05-19 15:14:09.490 -0400,1589915649.000514,41.37500626873818,-71.83111933848284,-2.643308,2.888533,334.4455743151213,3.436691600251481,4.691874665584083,-9999,7284.870507416667,-0.415740966796875,0.523040771484375,-0.6578369140625,1,0.91
2020-05-19 15:14:09.540 -0400,1589915649.000514,41.37500626873818,-71.83111933848284,-2.643308,2.888533,334.4455743151213,3.436691600251481,4.691874665584083,-9999,7284.920405416667,-0.3463287353515625,0.5607757568359375,-0.5233154296875,1,0.91
2020-05-19 15:14:09.590 -0400,1589915649.000514,41.37500626873818,-71.83111933848284,-2.643308,2.888533,334.4455743151213,3.436691600251481,4.691874665584083,-9999,7284.970303416667,-0.3985137939453125,0.5894317626953125,-0.4279327392578125,1,0.91
2020-05-19 15:14:09.640 -0400,1589915649.000514,41.37500626873818,-71.83111933848284,-2.643308,2.888533,334.4455743151213,3.436691600251481,4.691874665584083,-9999,7285.020197416668,-0.32073974609375,1.008377075195312,-0.6317901611328125,1,0.91
2020-05-19 15:14:09.689 -0400,1589915649.000514,41.37500626873818,-71.83111933848284,-2.643308,2.888533,334.4455743151213,3.436691600251481,4.691874665584083,-9999,7285.070093416667,-0.3986358642578125,0.52423095703125,-0.598876953125,1,0.91
2020-05-19 15:14:09.739 -0400,1589915649.000514,41.37500626873818,-71.83111933848284,-2.643308,2.888533,334.4455743151213,3.436691600251481,4.691874665584083,-9999,7285.119991416667,-0.2803802490234375,0.9217376708984375,-0.5865478515625,1,0.91
2020-05-19 15:14:09.789 -0400,1589915649.000514,41.37500626873818,-71.83111933848284,-2.643308,2.888533,334.4455743151213,3.436691600251481,4.691874665584083,-9999,7285.169887416667,-0.2258453369140625,0.594085693359375,-0.462188720703125,1,0.91
2020-05-19 15:14:09.839 -0400,1589915649.000514,41.37500626873818,-71.83111933848284,-2.643308,2.888533,334.4455743151213,3.436691600251481,4.691874665584083,-9999,7285.219783416667,-0.1649932861328125,0.9250030517578125,-0.5907135009765625,1,0.91
2020-05-19 15:14:09.889 -0400,1589915649.000514,41.37500626873818,-71.83111933848284,-2.643308,2.888533,334.4455743151213,3.436691600251481,4.691874665584083,-9999,7285.269680416667,0.0527496337890625,0.422515869140625,-0.530242919921875,1,0.91
2020-05-19 15:14:09.939 -0400,1589915649.000514,41.37500626873818,-71.83111933848284,-2.643308,2.888533,334.4455743151213,3.436691600251481,4.691874665584083,-9999,7285.319575416667,-0.1619110107421875,0.4853515625,-0.3278350830078125,1,0.91
2020-05-19 15:14:09.989 -0400,1589915649.000514,41.37500626873818,-71.83111933848284,-2.643308,2.888533,334.4455743151213,3.436691600251481,4.691874665584083,-9999,7285.369469416667,-0.2932281494140625,0.4837646484375,-0.19580078125,1,0.91
2020-05-19 15:14:10.039 -0400,1589915649.000514,41.37500626873818,-71.83111933848284,-2.643308,2.888533,334.4455743151213,3.436691600251481,4.691874665584083,-9999,7285.419360416667,-0.3407135009765625,0.620208740234375,-0.620147705078125,1,0.91
2020-05-19 15:14:10.089 -0400,1589915649.000514,41.37500626873818,-71.83111933848284,-2.643308,2.888533,334.4455743151213,3.436691600251481,4.691874665584083,-9999,7285.469253416667,-0.378570556640625,0.71673583984375,-0.38812255859375,1,0.91
2020-05-19 15:14:10.138 -0400,1589915649.000514,41.37500626873818,-71.83111933848284,-2.643308,2.888533,334.4455743151213,3.436691600251481,4.691874665584083,-9999,7285.519145416667,-0.24493408203125,1.511260986328125,-0.7007598876953125,1,0.91
2020-05-19 15:14:10.188 -0400,1589915649.000514,41.37500626873818,-71.83111933848284,-2.643308,2.888533,334.4455743151213,3.436691600251481,4.691874665584083,-9999,7285.569037416667,-0.3298797607421875,1.015487670898438,-0.058929443359375,1,0.91
2020-05-19 15:14:10.238 -0400,1589915649.000514,41.37500626873818,-71.83111933848284,-2.643308,2.888533,334.4455743151213,3.436691600251481,4.691874665584083,-9999,7285.618929416667,-0.2437286376953125,1.000640869140625,-0.1387481689453125,1,0.91
2020-05-19 15:14:10.290 -0400,1589915650.000521,41.3750577635418,-71.83111293832056,-2.662541,4.335291,354.490717922948,3.447286236567574,4.684095925145066,-9999,7285.668821416667,0.4557647705078125,0.915374755859375,0.3554229736328125,1,0.91
2020-05-19 15:14:10.338 -0400,1589915650.000521,41.3750577635418,-71.83111293832056,-2.662541,4.335291,354.490717922948,3.447286236567574,4.684095925145066,-9999,7285.718713666667,0.560302734375,1.255599975585938,-0.2625579833984375,1,0.91
2020-05-19 15:14:10.388 -0400,1589915650.000521,41.3750577635418,-71.83111293832056,-2.662541,4.335291,354.490717922948,3.447286236567574,4.684095925145066,-9999,7285.768604666667,0.0189056396484375,1.639633178710938,-0.648406982421875,1,0.91
2020-05-19 15:14:10.438 -0400,1589915650.000521,41.3750577635418,-71.83111293832056,-2.662541,4.335291,354.490717922948,3.447286236567574,4.684095925145066,-9999,7285.818495666667,0.6476287841796875,0.97930908203125,0.3570709228515625,1,0.91
2020-05-19 15:14:10.488 -0400,1589915650.000521,41.3750577635418,-71.83111293832056,-2.662541,4.335291,354.490717922948,3.447286236567574,4.684095925145066,-9999,7285.868389666667,0.476593017578125,1.019256591796875,-0.3611297607421875,1,0.91
2020-05-19 15:14:10.537 -0400,1589915650.000521,41.3750577635418,-71.83111293832056,-2.662541,4.335291,354.490717922948,3.447286236567574,4.684095925145066,-9999,7285.918282666667,0.326568603515625,1.402191162109375,-0.1043548583984375,1,0.91
2020-05-19 15:14:10.587 -0400,1589915650.000521,41.3750577635418,-71.83111293832056,-2.662541,4.335291,354.490717922948,3.447286236567574,4.684095925145066,-9999,7285.968173666667,0.381134033203125,0.9886474609375,0.0405120849609375,1,0.91
2020-05-19 15:14:10.637 -0400,1589915650.000521,41.3750577635418,-71.83111293832056,-2.662541,4.335291,354.490717922948,3.447286236567574,4.684095925145066,-9999,7286.018065666667,0.63873291015625,0.698455810546875,-0.2677001953125,1,0.91
2020-05-19 15:14:10.687 -0400,1589915650.000521,41.3750577635418,-71.83111293832056,-2.662541,4.335291,354.490717922948,3.447286236567574,4.684095925145066,-9999,7286.067960666667,0.5932769775390625,0.6143646240234375,-0.1349029541015625,1,0.91
2020-05-19 15:14:10.737 -0400,1589915650.000521,41.3750577635418,-71.83111293832056,-2.662541,4.335291,354.490717922948,3.447286236567574,4.684095925145066,-9999,7286.117856666667,0.571563720703125,0.72003173828125,-0.1566619873046875,1,0.91
2020-05-19 15:14:10.787 -0400,1589915650.000521,41.3750577635418,-71.83111293832056,-2.662541,4.335291,354.490717922948,3.447286236567574,4.684095925145066,-9999,7286.167751666667,0.4378662109375,1.08428955078125,6.103515625e-05,1,0.91
2020-05-19 15:14:10.837 -0400,1589915650.000521,41.3750577635418,-71.83111293832056,-2.662541,4.335291,354.490717922948,3.447286236567574,4.684095925145066,-9999,7286.217646666667,0.5515289306640625,1.035476684570312,-0.1170196533203125,1,0.91
2020-05-19 15:14:10.887 -0400,1589915650.000521,41.3750577635418,-71.83111293832056,-2.662541,4.335291,354.490717922948,3.447286236567574,4.684095925145066,-9999,7286.267539666667,0.5765228271484375,0.48248291015625,-0.4000396728515625,1,0.91
2020-05-19 15:14:10.937 -0400,1589915650.000521,41.3750577635418,-71.83111293832056,-2.662541,4.335291,354.490717922948,3.447286236567574,4.684095925145066,-9999,7286.317433666667,0.522491455078125,0.8050537109375,0.0973663330078125,1,0.91
2020-05-19 15:14:10.986 -0400,1589915650.000521,41.3750577635418,-71.83111293832056,-2.662541,4.335291,354.490717922948,3.447286236567574,4.684095925145066,-9999,7286.367326666667,0.553131103515625,0.5505523681640625,-0.3079376220703125,1,0.91
2020-05-19 15:14:11.037 -0400,1589915650.000521,41.3750577635418,-71.83111293832056,-2.662541,4.335291,354.490717922948,3.447286236567574,4.684095925145066,-9999,7286.417221666668,0.5133209228515625,0.883148193359375,-0.0434417724609375,1,0.91
2020-05-19 15:14:11.086 -0400,1589915650.000521,41.3750577635418,-71.83111293832056,-2.662541,4.335291,354.490717922948,3.447286236567574,4.684095925145066,-9999,7286.467116666667,0.504974365234375,0.911468505859375,-0.268768310546875,1,0.91
2020-05-19 15:14:11.136 -0400,1589915650.000521,41.3750577635418,-71.83111293832056,-2.662541,4.335291,354.490717922948,3.447286236567574,4.684095925145066,-9999,7286.517013666667,0.4335174560546875,1.076690673828125,-0.125885009765625,1,0.91
2020-05-19 15:14:11.186 -0400,1589915650.000521,41.3750577635418,-71.83111293832056,-2.662541,4.335291,354.490717922948,3.447286236567574,4.684095925145066,-9999,7286.566910666667,0.6504058837890625,0.3504180908203125,-0.107086181640625,1,0.91
2020-05-19 15:14:11.253 -0400,1589915650.000521,41.3750577635418,-71.83111293832056,-2.662541,4.335291,354.490717922948,3.447286236567574,4.684095925145066,-9999,7286.616805666667,0.4139404296875,0.87567138671875,-0.2489776611328125,1,0.91
2020-05-19 15:14:11.286 -0400,1589915651.000528,41.37512048999103,-71.83111922761991,-2.608791,5.958645,357.6593359920162,3.445912603896035,4.685106547251544,-9999,7286.666698666667,0.51446533203125,0.606414794921875,-0.2296905517578125,1,0.91
2020-05-19 15:14:11.336 -0400,1589915651.000528,41.37512048999103,-71.83111922761991,-2.608791,5.958645,357.6593359920162,3.445912603896035,4.685106547251544,-9999,7286.716592666667,0.507110595703125,1.08563232421875,-0.3351287841796875,1,0.91
2020-05-19 15:14:11.386 -0400,1589915651.000528,41.37512048999103,-71.83111922761991,-2.608791,5.958645,357.6593359920162,3.445912603896035,4.685106547251544,-9999,7286.7664915,0.5535430908203125,0.86590576171875,-0.39697265625,1,0.91
2020-05-19 15:14:11.436 -0400,1589915651.000528,41.37512048999103,-71.83111922761991,-2.608791,5.958645,357.6593359920162,3.445912603896035,4.685106547251544,-9999,7286.816389500001,0.4777679443359375,0.6212158203125,-0.2542877197265625,1,0.91
2020-05-19 15:14:11.485 -0400,1589915651.000528,41.37512048999103,-71.83111922761991,-2.608791,5.958645,357.6593359920162,3.445912603896035,4.685106547251544,-9999,7286.866284500001,0.5064239501953125,0.7183837890625,-0.3932037353515625,1,0.91
2020-05-19 15:14:11.535 -0400,1589915651.000528,41.37512048999103,-71.83111922761991,-2.608791,5.958645,357.6593359920162,3.445912603896035,4.685106547251544,-9999,7286.9161805,0.467864990234375,0.962493896484375,-0.0950164794921875,1,0.91
2020-05-19 15:14:11.585 -0400,1589915651.000528,41.37512048999103,-71.83111922761991,-2.608791,5.958645,357.6593359920162,3.445912603896035,4.685106547251544,-9999,7286.966073500001,0.539642333984375,0.51177978515625,-0.3707427978515625,1,0.91
2020-05-19 15:14:11.635 -0400,1589915651.000528,41.37512048999103,-71.83111922761991,-2.608791,5.958645,357.6593359920162,3.445912603896035,4.685106547251544,-9999,7287.015968500001,0.4243011474609375,1.101181030273438,-0.1824798583984375,1,0.91
2020-05-19 15:14:11.685 -0400,1589915651.000528,41.37512048999103,-71.83111922761991,-2.608791,5.958645,357.6593359920162,3.445912603896035,4.685106547251544,-9999,7287.065862500001,0.431732177734375,1.055007934570312,-0.152557373046875,1,0.91
2020-05-19 15:14:11.735 -0400,1589915651.000528,41.37512048999103,-71.83111922761991,-2.608791,5.958645,357.6593359920162,3.445912603896035,4.685106547251544,-9999,7287.115755500001,0.5026092529296875,0.7965240478515625,-0.1634979248046875,1,0.91
2020-05-19 15:14:11.785 -0400,1589915651.000528,41.37512048999103,-71.83111922761991,-2.608791,5.958645,357.6593359920162,3.445912603896035,4.685106547251544,-9999,7287.165652500001,0.497100830078125,0.8398895263671875,-0.068511962890625,1,0.91
2020-05-19 15:14:11.835 -0400,1589915651.000528,41.37512048999103,-71.83111922761991,-2.608791,5.958645,357.6593359920162,3.445912603896035,4.685106547251544,-9999,7287.2155485,0.5491943359375,0.8404541015625,-0.1876678466796875,1,0.91
2020-05-19 15:14:11.885 -0400,1589915651.000528,41.37512048999103,-71.83111922761991,-2.608791,5.958645,357.6593359920162,3.445912603896035,4.685106547251544,-9999,7287.265444500001,0.56109619140625,0.9151611328125,-0.096221923828125,1,0.91
2020-05-19 15:14:11.935 -0400,1589915651.000528,41.37512048999103,-71.83111922761991,-2.608791,5.958645,357.6593359920162,3.445912603896035,4.685106547251544,-9999,7287.315341500001,0.54058837890625,0.789886474609375,-0.1511688232421875,1,0.91
2020-05-19 15:14:11.984 -0400,1589915651.000528,41.37512048999103,-71.83111922761991,-2.608791,5.958645,357.6593359920162,3.445912603896035,4.685106547251544,-9999,7287.365241500001,0.5126800537109375,0.870697021484375,-0.124359130859375,1,0.91
2020-05-19 15:14:12.034 -0400,1589915651.000528,41.37512048999103,-71.83111922761991,-2.608791,5.958645,357.6593359920162,3.445912603896035,4.685106547251544,-9999,7287.415139500001,0.532867431640625,0.7954864501953125,-0.180877685546875,1,0.91
2020-05-19 15:14:12.084 -0400,1589915651.000528,41.37512048999103,-71.83111922761991,-2.608791,5.958645,357.6593359920162,3.445912603896035,4.685106547251544,-9999,7287.4650375,0.494537353515625,0.8845977783203125,-0.1095123291015625,1,0.91
2020-05-19 15:14:12.134 -0400,1589915651.000528,41.37512048999103,-71.83111922761991,-2.608791,5.958645,357.6593359920162,3.445912603896035,4.685106547251544,-9999,7287.514933500001,0.5320892333984375,0.9380645751953125,-0.1846771240234375,1,0.91
2020-05-19 15:14:12.184 -0400,1589915651.000528,41.37512048999103,-71.83111922761991,-2.608791,5.958645,357.6593359920162,3.445912603896035,4.685106547251544,-9999,7287.564828500001,0.5215911865234375,0.7058868408203125,-0.133941650390625,1,0.91
2020-05-19 15:14:12.238 -0400,1589915652.000538,41.37519616905763,-71.83113524855221,-3.201098,7.478839,355.0971567256715,3.442723617801479,4.687450386320982,-9999,7287.614725500001,0.5273284912109375,1.03594970703125,-0.1475830078125,1,0.91
2020-05-19 15:14:12.284 -0400,1589915652.000538,41.37519616905763,-71.83113524855221,-3.201098,7.478839,355.0971567256715,3.442723617801479,4.687450386320982,-9999,7287.6646195,0.5011444091796875,0.8091583251953125,-0.218353271484375,1,0.91
2020-05-19 15:14:12.334 -0400,1589915652.000538,41.37519616905763,-71.83113524855221,-3.201098,7.478839,355.0971567256715,3.442723617801479,4.687450386320982,-9999,7287.7145145,0.513671875,0.8472137451171875,-0.1874542236328125,1,0.91
2020-05-19 15:14:12.384 -0400,1589915652.000538,41.37519616905763,-71.83113524855221,-3.201098,7.478839,355.0971567256715,3.442723617801479,4.687450386320982,-9999,7287.764408375,0.5231475830078125,0.8873443603515625,-0.2110443115234375,1,0.91
2020-05-19 15:14:12.433 -0400,1589915652.000538,41.37519616905763,-71.83113524855221,-3.201098,7.478839,355.0971567256715,3.442723617801479,4.687450386320982,-9999,7287.814303375,0.4901275634765625,0.9046478271484375,-0.123809814453125,1,0.91
2020-05-19 15:14:12.483 -0400,1589915652.000538,41.37519616905763,-71.83113524855221,-3.201098,7.478839,355.0971567256715,3.442723617801479,4.687450386320982,-9999,7287.864197375,0.5534515380859375,0.795562744140625,-0.2495574951171875,1,0.91
2020-05-19 15:14:12.534 -0400,1589915652.000538,41.37519616905763,-71.83113524855221,-3.201098,7.478839,355.0971567256715,3.442723617801479,4.687450386320982,-9999,7287.914092375,0.5722808837890625,0.720245361328125,-0.2097320556640625,1,0.91
2020-05-19 15:14:12.583 -0400,1589915652.000538,41.37519616905763,-71.83113524855221,-3.201098,7.478839,355.0971567256715,3.442723617801479,4.687450386320982,-9999,7287.963989375001,0.50537109375,0.9224853515625,-0.1130523681640625,1,0.91
2020-05-19 15:14:12.633 -0400,1589915652.000538,41.37519616905763,-71.83113524855221,-3.201098,7.478839,355.0971567256715,3.442723617801479,4.687450386320982,-9999,7288.013887375,0.5040130615234375,0.88714599609375,-0.227294921875,1,0.91
2020-05-19 15:14:12.683 -0400,1589915652.000538,41.37519616905763,-71.83113524855221,-3.201098,7.478839,355.0971567256715,3.442723617801479,4.687450386320982,-9999,7288.063783375001,0.5566864013671875,0.696563720703125,-0.2894439697265625,1,0.91
2020-05-19 15:14:12.733 -0400,1589915652.000538,41.37519616905763,-71.83113524855221,-3.201098,7.478839,355.0971567256715,3.442723617801479,4.687450386320982,-9999,7288.113679375,0.511383056640625,0.79412841796875,-0.17047119140625,1,0.91
2020-05-19 15:14:12.783 -0400,1589915652.000538,41.37519616905763,-71.83113524855221,-3.201098,7.478839,355.0971567256715,3.442723617801479,4.687450386320982,-9999,7288.163574375,0.554901123046875,0.7484588623046875,-0.3787841796875,1,0.91
2020-05-19 15:14:12.833 -0400,1589915652.000538,41.37519616905763,-71.83113524855221,-3.201098,7.478839,355.0971567256715,3.442723617801479,4.687450386320982,-9999,7288.213470375001,0.5699462890625,0.8062744140625,-0.2408905029296875,1,0.91
2020-05-19 15:14:12.883 -0400,1589915652.000538,41.37519616905763,-71.83113524855221,-3.201098,7.478839,355.0971567256715,3.442723617801479,4.687450386320982,-9999,7288.263362375001,0.4876708984375,1.094696044921875,-0.1730804443359375,1,0.91
2020-05-19 15:14:12.932 -0400,1589915652.000538,41.37519616905763,-71.83113524855221,-3.201098,7.478839,355.0971567256715,3.442723617801479,4.687450386320982,-9999,7288.313257375001,0.5728607177734375,0.6645965576171875,-0.290252685546875,1,0.91
2020-05-19 15:14:12.982 -0400,1589915652.000538,41.37519616905763,-71.83113524855221,-3.201098,7.478839,355.0971567256715,3.442723617801479,4.687450386320982,-9999,7288.363151375001,0.56121826171875,0.8946990966796875,-0.261993408203125,1,0.91
2020-05-19 15:14:13.032 -0400,1589915652.000538,41.37519616905763,-71.83113524855221,-3.201098,7.478839,355.0971567256715,3.442723617801479,4.687450386320982,-9999,7288.413044375,0.5821990966796875,0.73663330078125,-0.313018798828125,1,0.91
2020-05-19 15:14:13.082 -0400,1589915652.000538,41.37519616905763,-71.83113524855221,-3.201098,7.478839,355.0971567256715,3.442723617801479,4.687450386320982,-9999,7288.462941375001,0.5740203857421875,0.8170318603515625,-0.34112548828125,1,0.91
2020-05-19 15:14:13.132 -0400,1589915652.000538,41.37519616905763,-71.83113524855221,-3.201098,7.478839,355.0971567256715,3.442723617801479,4.687450386320982,-9999,7288.512832375,0.5106201171875,0.8095550537109375,-0.252777099609375,1,0.91
2020-05-19 15:14:13.182 -0400,1589915652.000538,41.37519616905763,-71.83113524855221,-3.201098,7.478839,355.0971567256715,3.442723617801479,4.687450386320982,-9999,7288.562728375,0.542022705078125,0.7437744140625,-0.3544158935546875,1,0.91
2020-05-19 15:14:13.232 -0400,1589915652.000538,41.37519616905763,-71.83113524855221,-3.201098,7.478839,355.0971567256715,3.442723617801479,4.687450386320982,-9999,7288.612625375001,0.6017608642578125,0.84429931640625,-0.425384521484375,1,0.91
2020-05-19 15:14:13.282 -0400,1589915652.000538,41.37519616905763,-71.83113524855221,-3.201098,7.478839,355.0971567256715,3.442723617801479,4.687450386320982,-9999,7288.662523375,0.556854248046875,0.7208404541015625,-0.2592620849609375,1,0.91
2020-05-19 15:14:13.332 -0400,1589915652.000538,41.37519616905763,-71.83113524855221,-3.201098,7.478839,355.0971567256715,3.442723617801479,4.687450386320982,-9999,7288.712419375001,0.5963592529296875,0.8930816650390625,-0.3928680419921875,1,0.91
2020-05-19 15:14:13.382 -0400,1589915653.000544,41.37528508679586,-71.83114637018426,-3.41491,8.874986,355.2196958000916,3.484178786071908,4.656719362327445,-9999,7288.76231575,0.598663330078125,0.46295166015625,-0.2598724365234375,1,0.91
2020-05-19 15:14:13.431 -0400,1589915653.000544,41.37528508679586,-71.83114637018426,-3.41491,8.874986,355.2196958000916,3.484178786071908,4.656719362327445,-9999,7288.81221075,0.5025177001953125,0.9928131103515625,-0.35498046875,1,0.91
2020-05-19 15:14:13.481 -0400,1589915653.000544,41.37528508679586,-71.83114637018426,-3.41491,8.874986,355.2196958000916,3.484178786071908,4.656719362327445,-9999,7288.86210775,0.6019744873046875,0.7579498291015625,-0.3451385498046875,1,0.91
2020-05-19 15:14:13.531 -0400,1589915653.000544,41.37528508679586,-71.83114637018426,-3.41491,8.874986,355.2196958000916,3.484178786071908,4.656719362327445,-9999,7288.912006750001,0.5480499267578125,0.702911376953125,-0.35015869140625,1,0.91
2020-05-19 15:14:13.581 -0400,1589915653.000544,41.37528508679586,-71.83114637018426,-3.41491,8.874986,355.2196958000916,3.484178786071908,4.656719362327445,-9999,7288.96190575,0.6070709228515625,0.72869873046875,-0.355316162109375,1,0.91
2020-05-19 15:14:13.631 -0400,1589915653.000544,41.37528508679586,-71.83114637018426,-3.41491,8.874986,355.2196958000916,3.484178786071908,4.656719362327445,-9999,7289.011803750001,0.65643310546875,0.7386322021484375,-0.3771820068359375,1,0.91
2020-05-19 15:14:13.681 -0400,1589915653.000544,41.37528508679586,-71.83114637018426,-3.41491,8.874986,355.2196958000916,3.484178786071908,4.656719362327445,-9999,7289.061701750001,0.6488800048828125,0.741668701171875,-0.3399810791015625,1,0.91
2020-05-19 15:14:13.731 -0400,1589915653.000544,41.37528508679586,-71.83114637018426,-3.41491,8.874986,355.2196958000916,3.484178786071908,4.656719362327445,-9999,7289.111601750001,0.6197662353515625,0.857940673828125,-0.24822998046875,1,0.91
2020-05-19 15:14:13.781 -0400,1589915653.000544,41.37528508679586,-71.83114637018426,-3.41491,8.874986,355.2196958000916,3.484178786071908,4.656719362327445,-9999,7289.161501750001,0.421661376953125,1.071151733398438,-0.2398834228515625,1,0.91
2020-05-19 15:14:13.831 -0400,1589915653.000544,41.37528508679586,-71.83114637018426,-3.41491,8.874986,355.2196958000916,3.484178786071908,4.656719362327445,-9999,7289.21139975,0.5385589599609375,0.9976043701171875,-0.14813232421875,1,0.91
2020-05-19 15:14:13.880 -0400,1589915653.000544,41.37528508679586,-71.83114637018426,-3.41491,8.874986,355.2196958000916,3.484178786071908,4.656719362327445,-9999,7289.26129575,0.48583984375,1.500518798828125,0.1346435546875,1,0.91
2020-05-19 15:14:13.930 -0400,1589915653.000544,41.37528508679586,-71.83114637018426,-3.41491,8.874986,355.2196958000916,3.484178786071908,4.656719362327445,-9999,7289.311193750001,0.7438812255859375,0.71575927734375,-0.277618408203125,1,0.91
2020-05-19 15:14:13.980 -0400,1589915653.000544,41.37528508679586,-71.83114637018426,-3.41491,8.874986,355.2196958000916,3.484178786071908,4.656719362327445,-9999,7289.36108975,0.4423980712890625,1.085235595703125,-0.4672393798828125,1,0.91
2020-05-19 15:14:14.030 -0400,1589915653.000544,41.37528508679586,-71.83114637018426,-3.41491,8.874986,355.2196958000916,3.484178786071908,4.656719362327445,-9999,7289.410985750001,0.350189208984375,1.192855834960938,0.1482391357421875,1,0.91
2020-05-19 15:14:14.080 -0400,1589915653.000544,41.37528508679586,-71.83114637018426,-3.41491,8.874986,355.2196958000916,3.484178786071908,4.656719362327445,-9999,7289.460880750001,0.177093505859375,1.2552490234375,0.187957763671875,1,0.91
2020-05-19 15:14:14.130 -0400,1589915653.000544,41.37528508679586,-71.83114637018426,-3.41491,8.874986,355.2196958000916,3.484178786071908,4.656719362327445,-9999,7289.510774750001,-0.0499420166015625,1.122283935546875,-0.0958404541015625,1,0.91
2020-05-19 15:14:14.180 -0400,1589915653.000544,41.37528508679586,-71.83114637018426,-3.41491,8.874986,355.2196958000916,3.484178786071908,4.656719362327445,-9999,7289.56066875,-0.22137451171875,0.6900634765625,-0.3306884765625,1,0.91
2020-05-19 15:14:14.230 -0400,1589915653.000544,41.37528508679586,-71.83114637018426,-3.41491,8.874986,355.2196958000916,3.484178786071908,4.656719362327445,-9999,7289.61056275,-0.2927398681640625,1.002731323242188,-0.234893798828125,1,0.91
2020-05-19 15:14:14.280 -0400,1589915654.000547,41.37537888309195,-71.83115718020019,-3.475665,9.668423,355.4069786212886,3.525772899774346,4.625306745720291,-9999,7289.660453750001,-0.2321319580078125,0.7412261962890625,-0.244537353515625,1,0.91
2020-05-19 15:14:14.330 -0400,1589915654.000547,41.37537888309195,-71.83115718020019,-3.475665,9.668423,355.4069786212886,3.525772899774346,4.625306745720291,-9999,7289.71034775,-0.2337646484375,0.7930450439453125,-0.2376251220703125,1,0.91
2020-05-19 15:14:14.379 -0400,1589915654.000547,41.37537888309195,-71.83115718020019,-3.475665,9.668423,355.4069786212886,3.525772899774346,4.625306745720291,-9999,7289.760238291668,-0.103363037109375,0.7304840087890625,-0.2460174560546875,1,0.91
2020-05-19 15:14:14.429 -0400,1589915654.000547,41.37537888309195,-71.83115718020019,-3.475665,9.668423,355.4069786212886,3.525772899774346,4.625306745720291,-9999,7289.810130291668,0.0193328857421875,0.7123870849609375,-0.2562408447265625,1,0.91
2020-05-19 15:14:14.479 -0400,1589915654.000547,41.37537888309195,-71.83115718020019,-3.475665,9.668423,355.4069786212886,3.525772899774346,4.625306745720291,-9999,7289.860024291667,0.0406036376953125,0.8290557861328125,-0.1134185791015625,1,0.91
2020-05-19 15:14:14.529 -0400,1589915654.000547,41.37537888309195,-71.83115718020019,-3.475665,9.668423,355.4069786212886,3.525772899774346,4.625306745720291,-9999,7289.909920291667,0.026214599609375,0.648956298828125,-0.0838470458984375,1,0.91
2020-05-19 15:14:14.579 -0400,1589915654.000547,41.37537888309195,-71.83115718020019,-3.475665,9.668423,355.4069786212886,3.525772899774346,4.625306745720291,-9999,7289.959813291667,-0.15240478515625,0.877532958984375,-0.2515716552734375,1,0.91
2020-05-19 15:14:14.629 -0400,1589915654.000547,41.37537888309195,-71.83115718020019,-3.475665,9.668423,355.4069786212886,3.525772899774346,4.625306745720291,-9999,7290.009705291667,-0.2318115234375,0.934906005859375,-0.375946044921875,1,0.91
2020-05-19 15:14:14.679 -0400,1589915654.000547,41.37537888309195,-71.83115718020019,-3.475665,9.668423,355.4069786212886,3.525772899774346,4.625306745720291,-9999,7290.059599291667,-0.2626800537109375,0.9578399658203125,-0.323516845703125,1,0.91
2020-05-19 15:14:14.729 -0400,1589915654.000547,41.37537888309195,-71.83115718020019,-3.475665,9.668423,355.4069786212886,3.525772899774346,4.625306745720291,-9999,7290.109493291667,-0.3410491943359375,1.0299072265625,-0.1915740966796875,1,0.91
2020-05-19 15:14:14.779 -0400,1589915654.000547,41.37537888309195,-71.83115718020019,-3.475665,9.668423,355.4069786212886,3.525772899774346,4.625306745720291,-9999,7290.159382291667,-0.301849365234375,0.91766357421875,-0.1934967041015625,1,0.91
2020-05-19 15:14:14.828 -0400,1589915654.000547,41.37537888309195,-71.83115718020019,-3.475665,9.668423,355.4069786212886,3.525772899774346,4.625306745720291,-9999,7290.209273291667,-0.2257232666015625,0.9276580810546875,-0.1815032958984375,1,0.91
2020-05-19 15:14:14.878 -0400,1589915654.000547,41.37537888309195,-71.83115718020019,-3.475665,9.668423,355.4069786212886,3.525772899774346,4.625306745720291,-9999,7290.259163291667,-0.268341064453125,0.8995513916015625,-0.018951416015625,1,0.91
2020-05-19 15:14:14.928 -0400,1589915654.000547,41.37537888309195,-71.83115718020019,-3.475665,9.668423,355.4069786212886,3.525772899774346,4.625306745720291,-9999,7290.309054291667,-0.2433319091796875,0.892913818359375,-0.2296295166015625,1,0.91
2020-05-19 15:14:14.978 -0400,1589915654.000547,41.37537888309195,-71.83115718020019,-3.475665,9.668423,355.4069786212886,3.525772899774346,4.625306745720291,-9999,7290.358947291667,-0.364166259765625,1.087860107421875,-0.244964599609375,1,0.91
2020-05-19 15:14:15.028 -0400,1589915654.000547,41.37537888309195,-71.83115718020019,-3.475665,9.668423,355.4069786212886,3.525772899774346,4.625306745720291,-9999,7290.408840291667,-0.3329925537109375,0.9498138427734375,-0.2872161865234375,1,0.91
2020-05-19 15:14:15.078 -0400,1589915654.000547,41.37537888309195,-71.83115718020019,-3.475665,9.668423,355.4069786212886,3.525772899774346,4.625306745720291,-9999,7290.458734291667,-0.3126373291015625,0.8701324462890625,-0.027374267578125,1,0.91
2020-05-19 15:14:15.128 -0400,1589915654.000547,41.37537888309195,-71.83115718020019,-3.475665,9.668423,355.4069786212886,3.525772899774346,4.625306745720291,-9999,7290.508628291667,-0.14642333984375,0.95928955078125,-0.14501953125,1,0.91
2020-05-19 15:14:15.178 -0400,1589915654.000547,41.37537888309195,-71.83115718020019,-3.475665,9.668423,355.4069786212886,3.525772899774346,4.625306745720291,-9999,7290.558523291667,-0.247283935546875,0.877410888671875,-0.220245361328125,1,0.91
2020-05-19 15:14:15.228 -0400,1589915654.000547,41.37537888309195,-71.83115718020019,-3.475665,9.668423,355.4069786212886,3.525772899774346,4.625306745720291,-9999,7290.608416291667,-0.2395172119140625,1.128860473632812,-0.426361083984375,1,0.91
2020-05-19 15:14:15.277 -0400,1589915654.000547,41.37537888309195,-71.83115718020019,-3.475665,9.668423,355.4069786212886,3.525772899774346,4.625306745720291,-9999,7290.658309291667,-0.2415924072265625,0.78509521484375,-0.5812835693359375,1,0.91
2020-05-19 15:14:15.328 -0400,1589915655.000557,41.37547754765684,-71.83117546933728,-1.905252,10.22739,354.3332588273549,3.485658225877757,4.655612072022278,-9999,7290.708203291667,-0.21966552734375,0.8772125244140625,-0.672027587890625,1,0.91
2020-05-19 15:14:15.377 -0400,1589915655.000557,41.37547754765684,-71.83117546933728,-1.905252,10.22739,354.3332588273549,3.485658225877757,4.655612072022278,-9999,7290.758098625,-0.2378082275390625,0.7244415283203125,-0.6550750732421875,1,0.91
2020-05-19 15:14:15.427 -0400,1589915655.000557,41.37547754765684,-71.83117546933728,-1.905252,10.22739,354.3332588273549,3.485658225877757,4.655612072022278,-9999,7290.807993625001,-0.234405517578125,0.7419586181640625,-0.743316650390625,1,0.91
2020-05-19 15:14:15.477 -0400,1589915655.000557,41.37547754765684,-71.83117546933728,-1.905252,10.22739,354.3332588273549,3.485658225877757,4.655612072022278,-9999,7290.857885625001,-0.201385498046875,0.5887603759765625,-0.7358245849609375,1,0.91
2020-05-19 15:14:15.527 -0400,1589915655.000557,41.37547754765684,-71.83117546933728,-1.905252,10.22739,354.3332588273549,3.485658225877757,4.655612072022278,-9999,7290.907778625,-0.1829833984375,0.40228271484375,-0.79107666015625,1,0.91
2020-05-19 15:14:15.577 -0400,1589915655.000557,41.37547754765684,-71.83117546933728,-1.905252,10.22739,354.3332588273549,3.485658225877757,4.655612072022278,-9999,7290.957676625,-0.1336669921875,0.3004302978515625,-0.797210693359375,1,0.91
2020-05-19 15:14:15.627 -0400,1589915655.000557,41.37547754765684,-71.83117546933728,-1.905252,10.22739,354.3332588273549,3.485658225877757,4.655612072022278,-9999,7291.007573625,-0.149658203125,0.0770721435546875,-0.775909423828125,1,0.91
2020-05-19 15:14:15.677 -0400,1589915655.000557,41.37547754765684,-71.83117546933728,-1.905252,10.22739,354.3332588273549,3.485658225877757,4.655612072022278,-9999,7291.057470625001,-0.11932373046875,-0.0606231689453125,-0.86553955078125,1,0.91
2020-05-19 15:14:15.727 -0400,1589915655.000557,41.37547754765684,-71.83117546933728,-1.905252,10.22739,354.3332588273549,3.485658225877757,4.655612072022278,-9999,7291.107366625,-0.1060943603515625,-0.2811431884765625,-0.7209625244140625,1,0.91
2020-05-19 15:14:15.780 -0400,1589915655.000557,41.37547754765684,-71.83117546933728,-1.905252,10.22739,354.3332588273549,3.485658225877757,4.655612072022278,-9999,7291.157261625001,0.0023040771484375,-0.0630035400390625,-0.9638519287109375,1,0.91
2020-05-19 15:14:15.827 -0400,1589915655.000557,41.37547754765684,-71.83117546933728,-1.905252,10.22739,354.3332588273549,3.485658225877757,4.655612072022278,-9999,7291.207157625,-0.32464599609375,-0.224700927734375,-1.027618408203125,1,0.91
2020-05-19 15:14:15.876 -0400,1589915655.000557,41.37547754765684,-71.83117546933728,-1.905252,10.22739,354.3332588273549,3.485658225877757,4.655612072022278,-9999,7291.257054625001,-0.086517333984375,-0.322509765625,-1.148696899414062,1,0.91
2020-05-19 15:14:15.926 -0400,1589915655.000557,41.37547754765684,-71.83117546933728,-1.905252,10.22739,354.3332588273549,3.485658225877757,4.655612072022278,-9999,7291.306950625,0.1188812255859375,-0.0904693603515625,-1.195022583007812,1,0.91
2020-05-19 15:14:15.976 -0400,1589915655.000557,41.37547754765684,-71.83117546933728,-1.905252,10.22739,354.3332588273549,3.485658225877757,4.655612072022278,-9999,7291.356845625,0.1861114501953125,-0.268218994140625,-1.166793823242188,1,0.91
2020-05-19 15:14:16.026 -0400,1589915655.000557,41.37547754765684,-71.83117546933728,-1.905252,10.22739,354.3332588273549,3.485658225877757,4.655612072022278,-9999,7291.406738625001,0.2278289794921875,-0.3096771240234375,-0.8861083984375,1,0.91
2020-05-19 15:14:16.076 -0400,1589915655.000557,41.37547754765684,-71.83117546933728,-1.905252,10.22739,354.3332588273549,3.485658225877757,4.655612072022278,-9999,7291.456633625,0.175872802734375,-0.13775634765625,-0.942901611328125,1,0.91
2020-05-19 15:14:16.126 -0400,1589915655.000557,41.37547754765684,-71.83117546933728,-1.905252,10.22739,354.3332588273549,3.485658225877757,4.655612072022278,-9999,7291.506526625,0.1295013427734375,-0.2328338623046875,-0.8663787841796875,1,0.91
2020-05-19 15:14:16.176 -0400,1589915655.000557,41.37547754765684,-71.83117546933728,-1.905252,10.22739,354.3332588273549,3.485658225877757,4.655612072022278,-9999,7291.556422625001,0.1243896484375,-0.324951171875,-0.945770263671875,1,0.91
2020-05-19 15:14:16.226 -0400,1589915655.000557,41.37547754765684,-71.83117546933728,-1.905252,10.22739,354.3332588273549,3.485658225877757,4.655612072022278,-9999,7291.606322625001,0.135345458984375,-0.320281982421875,-1.114410400390625,1,0.91
2020-05-19 15:14:16.290 -0400,1589915655.000557,41.37547754765684,-71.83117546933728,-1.905252,10.22739,354.3332588273549,3.485658225877757,4.655612072022278,-9999,7291.656221625,0.229339599609375,-0.28424072265625,-0.9517669677734375,1,0.91
2020-05-19 15:14:16.326 -0400,1589915655.000557,41.37547754765684,-71.83117546933728,-1.905252,10.22739,354.3332588273549,3.485658225877757,4.655612072022278,-9999,7291.706119625001,0.222503662109375,-0.2503509521484375,-0.9328460693359375,1,0.91
2020-05-19 15:14:16.375 -0400,1589915656.000565,41.37556499881086,-71.83117998752897,-1.933625,10.03131,354.9515983893675,3.47356386046264,4.664642659419553,-9999,7291.756015375,0.1462554931640625,-0.08868408203125,-0.901947021484375,1,0.91
2020-05-19 15:14:16.425 -0400,1589915656.000565,41.37556499881086,-71.83117998752897,-1.933625,10.03131,354.9515983893675,3.47356386046264,4.664642659419553,-9999,7291.805913375,0.117828369140625,-0.0429534912109375,-0.9911956787109375,1,0.91
2020-05-19 15:14:16.475 -0400,1589915656.000565,41.37556499881086,-71.83117998752897,-1.933625,10.03131,354.9515983893675,3.47356386046264,4.664642659419553,-9999,7291.855807375,0.15643310546875,-0.0052947998046875,-0.93060302734375,1,0.91
2020-05-19 15:14:16.525 -0400,1589915656.000565,41.37556499881086,-71.83117998752897,-1.933625,10.03131,354.9515983893675,3.47356386046264,4.664642659419553,-9999,7291.905702375,0.247283935546875,0.0888214111328125,-0.8122711181640625,1,0.91
2020-05-19 15:14:16.575 -0400,1589915656.000565,41.37556499881086,-71.83117998752897,-1.933625,10.03131,354.9515983893675,3.47356386046264,4.664642659419553,-9999,7291.955599375,0.1152191162109375,0.1616973876953125,-0.3801116943359375,1,0.91
2020-05-19 15:14:16.625 -0400,1589915656.000565,41.37556499881086,-71.83117998752897,-1.933625,10.03131,354.9515983893675,3.47356386046264,4.664642659419553,-9999,7292.005496375001,-0.0583343505859375,0.815673828125,-0.4880218505859375,1,0.91
2020-05-19 15:14:16.675 -0400,1589915656.000565,41.37556499881086,-71.83117998752897,-1.933625,10.03131,354.9515983893675,3.47356386046264,4.664642659419553,-9999,7292.055393375001,-0.16845703125,0.7569580078125,-0.5652923583984375,1,0.91
2020-05-19 15:14:16.725 -0400,1589915656.000565,41.37556499881086,-71.83117998752897,-1.933625,10.03131,354.9515983893675,3.47356386046264,4.664642659419553,-9999,7292.105291375001,-0.0999755859375,0.8845977783203125,-0.6033477783203125,1,0.91
2020-05-19 15:14:16.775 -0400,1589915656.000565,41.37556499881086,-71.83117998752897,-1.933625,10.03131,354.9515983893675,3.47356386046264,4.664642659419553,-9999,7292.155188375001,-0.1268310546875,1.601287841796875,-0.2592926025390625,1,0.91
2020-05-19 15:14:16.825 -0400,1589915656.000565,41.37556499881086,-71.83117998752897,-1.933625,10.03131,354.9515983893675,3.47356386046264,4.664642659419553,-9999,7292.205084375,-0.2945098876953125,2.04461669921875,0.1800994873046875,1,0.91
2020-05-19 15:14:16.874 -0400,1589915656.000565,41.37556499881086,-71.83117998752897,-1.933625,10.03131,354.9515983893675,3.47356386046264,4.664642659419553,-9999,7292.254980375001,-0.050262451171875,1.03369140625,-0.58831787109375,1,0.91
2020-05-19 15:14:16.925 -0400,1589915656.000565,41.37556499881086,-71.83117998752897,-1.933625,10.03131,354.9515983893675,3.47356386046264,4.664642659419553,-9999,7292.304875375001,0.0569915771484375,0.925872802734375,-0.021697998046875,1,0.91
2020-05-19 15:14:16.974 -0400,1589915656.000565,41.37556499881086,-71.83117998752897,-1.933625,10.03131,354.9515983893675,3.47356386046264,4.664642659419553,-9999,7292.354773375,-0.170135498046875,1.226638793945312,0.3281097412109375,1,0.91
2020-05-19 15:14:17.024 -0400,1589915656.000565,41.37556499881086,-71.83117998752897,-1.933625,10.03131,354.9515983893675,3.47356386046264,4.664642659419553,-9999,7292.404670375,-0.0135498046875,1.054306030273438,0.00543212890625,1,0.91
2020-05-19 15:14:17.074 -0400,1589915656.000565,41.37556499881086,-71.83117998752897,-1.933625,10.03131,354.9515983893675,3.47356386046264,4.664642659419553,-9999,7292.454569375001,-0.00732421875,1.054931640625,-0.01348876953125,1,0.91
2020-05-19 15:14:17.124 -0400,1589915656.000565,41.37556499881086,-71.83117998752897,-1.933625,10.03131,354.9515983893675,3.47356386046264,4.664642659419553,-9999,7292.504463375,-0.108428955078125,1.068084716796875,0.2003936767578125,1,0.91
2020-05-19 15:14:17.175 -0400,1589915656.000565,41.37556499881086,-71.83117998752897,-1.933625,10.03131,354.9515983893675,3.47356386046264,4.664642659419553,-9999,7292.554362375001,-0.163482666015625,1.0338134765625,0.0053558349609375,1,0.91
2020-05-19 15:14:17.224 -0400,1589915656.000565,41.37556499881086,-71.83117998752897,-1.933625,10.03131,354.9515983893675,3.47356386046264,4.664642659419553,-9999,7292.604257375,-0.1788787841796875,1.227294921875,-0.0773162841796875,1,0.91
2020-05-19 15:14:17.274 -0400,1589915657.000569,41.3756494124291,-71.83117906965663,-1.716288,9.635212,358.07141000059,3.474281484799572,4.664108188836074,-9999,7292.654150375,-0.0838775634765625,0.9597930908203125,-0.0276947021484375,1,0.91
2020-05-19 15:14:17.329 -0400,1589915657.000569,41.3756494124291,-71.83117906965663,-1.716288,9.635212,358.07141000059,3.474281484799572,4.664108188836074,-9999,7292.704043375001,-0.1178436279296875,1.006561279296875,-0.131500244140625,1,0.91
2020-05-19 15:14:17.373 -0400,1589915657.000569,41.3756494124291,-71.83117906965663,-1.716288,9.635212,358.07141000059,3.474281484799572,4.664108188836074,-9999,7292.753937375001,-0.1664886474609375,1.118698120117188,-0.1836700439453125,1,0.91
2020-05-19 15:14:17.423 -0400,1589915657.000569,41.3756494124291,-71.83117906965663,-1.716288,9.635212,358.07141000059,3.474281484799572,4.664108188836074,-9999,7292.803832375001,-0.1550750732421875,0.8600921630859375,-0.2056732177734375,1,0.91
2020-05-19 15:14:17.473 -0400,1589915657.000569,41.3756494124291,-71.83117906965663,-1.716288,9.635212,358.07141000059,3.474281484799572,4.664108188836074,-9999,7292.853728375,-0.1655731201171875,1.23297119140625,-0.3319244384765625,1,0.91
2020-05-19 15:14:17.523 -0400,1589915657.000569,41.3756494124291,-71.83117906965663,-1.716288,9.635212,358.07141000059,3.474281484799572,4.664108188836074,-9999,7292.903623375,-0.1796875,0.9570465087890625,-0.3211822509765625,1,0.91
2020-05-19 15:14:17.573 -0400,1589915657.000569,41.3756494124291,-71.83117906965663,-1.716288,9.635212,358.07141000059,3.474281484799572,4.664108188836074,-9999,7292.953519375001,-0.184814453125,0.79742431640625,-0.3816375732421875,1,0.91
2020-05-19 15:14:17.623 -0400,1589915657.000569,41.3756494124291,-71.83117906965663,-1.716288,9.635212,358.07141000059,3.474281484799572,4.664108188836074,-9999,7293.003414375001,-0.22265625,0.9436798095703125,-0.4792633056640625,1,0.91
2020-05-19 15:14:17.673 -0400,1589915657.000569,41.3756494124291,-71.83117906965663,-1.716288,9.635212,358.07141000059,3.474281484799572,4.664108188836074,-9999,7293.053306375001,-0.1014556884765625,0.9640655517578125,-0.447265625,1,0.91
2020-05-19 15:14:17.722 -0400,1589915657.000569,41.3756494124291,-71.83117906965663,-1.716288,9.635212,358.07141000059,3.474281484799572,4.664108188836074,-9999,7293.103199375,-0.08050537109375,0.698883056640625,-0.4688568115234375,1,0.91
2020-05-19 15:14:17.772 -0400,1589915657.000569,41.3756494124291,-71.83117906965663,-1.716288,9.635212,358.07141000059,3.474281484799572,4.664108188836074,-9999,7293.153095375001,-0.20208740234375,0.7786407470703125,-0.4295501708984375,1,0.91
2020-05-19 15:14:17.822 -0400,1589915657.000569,41.3756494124291,-71.83117906965663,-1.716288,9.635212,358.07141000059,3.474281484799572,4.664108188836074,-9999,7293.202990375001,-0.27655029296875,0.8636627197265625,-0.598052978515625,1,0.91
2020-05-19 15:14:17.872 -0400,1589915657.000569,41.3756494124291,-71.83117906965663,-1.716288,9.635212,358.07141000059,3.474281484799572,4.664108188836074,-9999,7293.252883375,-0.1123199462890625,0.706512451171875,-0.5463714599609375,1,0.91
2020-05-19 15:14:17.922 -0400,1589915657.000569,41.3756494124291,-71.83117906965663,-1.716288,9.635212,358.07141000059,3.474281484799572,4.664108188836074,-9999,7293.302776375001,-0.19830322265625,0.905242919921875,-0.6633148193359375,1,0.91
2020-05-19 15:14:17.972 -0400,1589915657.000569,41.3756494124291,-71.83117906965663,-1.716288,9.635212,358.07141000059,3.474281484799572,4.664108188836074,-9999,7293.352670375,-0.1420440673828125,0.832672119140625,-0.621307373046875,1,0.91
2020-05-19 15:14:18.022 -0400,1589915657.000569,41.3756494124291,-71.83117906965663,-1.716288,9.635212,358.07141000059,3.474281484799572,4.664108188836074,-9999,7293.402565375,-0.15106201171875,0.7989959716796875,-0.5668792724609375,1,0.91
2020-05-19 15:14:18.072 -0400,1589915657.000569,41.3756494124291,-71.83117906965663,-1.716288,9.635212,358.07141000059,3.474281484799572,4.664108188836074,-9999,7293.452460375001,-0.1866912841796875,0.9921112060546875,-0.6505126953125,1,0.91
2020-05-19 15:14:18.122 -0400,1589915657.000569,41.3756494124291,-71.83117906965663,-1.716288,9.635212,358.07141000059,3.474281484799572,4.664108188836074,-9999,7293.502356375,-0.184539794921875,0.999908447265625,-0.654815673828125,1,0.91
2020-05-19 15:14:18.171 -0400,1589915657.000569,41.3756494124291,-71.83117906965663,-1.716288,9.635212,358.07141000059,3.474281484799572,4.664108188836074,-9999,7293.552251375,-0.253173828125,0.7906951904296875,-0.6464996337890625,1,0.91
2020-05-19 15:14:18.221 -0400,1589915657.000569,41.3756494124291,-71.83117906965663,-1.716288,9.635212,358.07141000059,3.474281484799572,4.664108188836074,-9999,7293.602146375,-0.1986083984375,1.037445068359375,-0.65234375,1,0.91
2020-05-19 15:14:18.271 -0400,1589915657.000569,41.3756494124291,-71.83117906965663,-1.716288,9.635212,358.07141000059,3.474281484799572,4.664108188836074,-9999,7293.652039375001,-0.287078857421875,0.3234100341796875,-0.67083740234375,1,0.91
2020-05-19 15:14:18.329 -0400,1589915657.000569,41.3756494124291,-71.83117906965663,-1.716288,9.635212,358.07141000059,3.474281484799572,4.664108188836074,-9999,7293.701936375001,-0.220001220703125,0.7631988525390625,-0.7754669189453125,1,0.91
2020-05-19 15:14:18.371 -0400,1589915658.000576,41.37572672384384,-71.83116052357789,-2.001271,9.044234,4.907596563537331,3.44209389280111,4.687912826187166,-9999,7293.751834250001,-0.1420745849609375,0.8075714111328125,-0.6103363037109375,1,0.91
2020-05-19 15:14:18.421 -0400,1589915658.000576,41.37572672384384,-71.83116052357789,-2.001271,9.044234,4.907596563537331,3.44209389280111,4.687912826187166,-9999,7293.80172725,-0.2301025390625,0.9901275634765625,-0.7148284912109375,1,0.91
2020-05-19 15:14:18.471 -0400,1589915658.000576,41.37572672384384,-71.83116052357789,-2.001271,9.044234,4.907596563537331,3.44209389280111,4.687912826187166,-9999,7293.851621250001,-0.1800079345703125,0.8415069580078125,-0.6277008056640625,1,0.91
2020-05-19 15:14:18.521 -0400,1589915658.000576,41.37572672384384,-71.83116052357789,-2.001271,9.044234,4.907596563537331,3.44209389280111,4.687912826187166,-9999,7293.90151725,-0.1920013427734375,0.9314422607421875,-0.9297637939453125,1,0.91
2020-05-19 15:14:18.571 -0400,1589915658.000576,41.37572672384384,-71.83116052357789,-2.001271,9.044234,4.907596563537331,3.44209389280111,4.687912826187166,-9999,7293.95141225,-0.1983489990234375,0.747955322265625,-0.672393798828125,1,0.91
2020-05-19 15:14:18.621 -0400,1589915658.000576,41.37572672384384,-71.83116052357789,-2.001271,9.044234,4.907596563537331,3.44209389280111,4.687912826187166,-9999,7294.00130925,-0.0916290283203125,0.8805999755859375,-0.6066131591796875,1,0.91
2020-05-19 15:14:18.671 -0400,1589915658.000576,41.37572672384384,-71.83116052357789,-2.001271,9.044234,4.907596563537331,3.44209389280111,4.687912826187166,-9999,7294.05120925,-0.19744873046875,-0.1221160888671875,-0.414581298828125,1,0.91
2020-05-19 15:14:18.720 -0400,1589915658.000576,41.37572672384384,-71.83116052357789,-2.001271,9.044234,4.907596563537331,3.44209389280111,4.687912826187166,-9999,7294.101108250001,-0.1453704833984375,0.7440643310546875,-0.7309417724609375,1,0.91
2020-05-19 15:14:18.770 -0400,1589915658.000576,41.37572672384384,-71.83116052357789,-2.001271,9.044234,4.907596563537331,3.44209389280111,4.687912826187166,-9999,7294.15100625,-0.078277587890625,0.688934326171875,-0.8281097412109375,1,0.91
2020-05-19 15:14:18.820 -0400,1589915658.000576,41.37572672384384,-71.83116052357789,-2.001271,9.044234,4.907596563537331,3.44209389280111,4.687912826187166,-9999,7294.200908250001,-0.1223297119140625,0.6519012451171875,-0.622222900390625,1,0.91
2020-05-19 15:14:18.870 -0400,1589915658.000576,41.37572672384384,-71.83116052357789,-2.001271,9.044234,4.907596563537331,3.44209389280111,4.687912826187166,-9999,7294.25080925,-0.1668853759765625,0.6610107421875,-0.8977508544921875,1,0.91
2020-05-19 15:14:18.920 -0400,1589915658.000576,41.37572672384384,-71.83116052357789,-2.001271,9.044234,4.907596563537331,3.44209389280111,4.687912826187166,-9999,7294.30070925,-0.1299285888671875,0.59552001953125,-0.7898406982421875,1,0.91
2020-05-19 15:14:18.970 -0400,1589915658.000576,41.37572672384384,-71.83116052357789,-2.001271,9.044234,4.907596563537331,3.44209389280111,4.687912826187166,-9999,7294.35061225,-0.1283416748046875,0.52435302734375,-0.6923065185546875,1,0.91
2020-05-19 15:14:19.020 -0400,1589915658.000576,41.37572672384384,-71.83116052357789,-2.001271,9.044234,4.907596563537331,3.44209389280111,4.687912826187166,-9999,7294.40051525,-0.17193603515625,0.7215728759765625,-0.7755889892578125,1,0.91
2020-05-19 15:14:19.070 -0400,1589915658.000576,41.37572672384384,-71.83116052357789,-2.001271,9.044234,4.907596563537331,3.44209389280111,4.687912826187166,-9999,7294.450416250001,-0.2174835205078125,0.67108154296875,-0.72149658203125,1,0.91
2020-05-19 15:14:19.119 -0400,1589915658.000576,41.37572672384384,-71.83116052357789,-2.001271,9.044234,4.907596563537331,3.44209389280111,4.687912826187166,-9999,7294.500319250001,-0.24951171875,0.6931915283203125,-0.7056121826171875,1,0.91
2020-05-19 15:14:19.169 -0400,1589915658.000576,41.37572672384384,-71.83116052357789,-2.001271,9.044234,4.907596563537331,3.44209389280111,4.687912826187166,-9999,7294.550221250001,-0.3002777099609375,0.82257080078125,-0.7093963623046875,1,0.91
2020-05-19 15:14:19.219 -0400,1589915658.000576,41.37572672384384,-71.83116052357789,-2.001271,9.044234,4.907596563537331,3.44209389280111,4.687912826187166,-9999,7294.60012125,-0.343017578125,0.87225341796875,-0.7387542724609375,1,0.91
2020-05-19 15:14:19.269 -0400,1589915658.000576,41.37572672384384,-71.83116052357789,-2.001271,9.044234,4.907596563537331,3.44209389280111,4.687912826187166,-9999,7294.65002125,-0.3574371337890625,0.7950897216796875,-0.739959716796875,1,0.91
2020-05-19 15:14:19.319 -0400,1589915658.000576,41.37572672384384,-71.83116052357789,-2.001271,9.044234,4.907596563537331,3.44209389280111,4.687912826187166,-9999,7294.699922250001,-0.335357666015625,0.8288421630859375,-0.67852783203125,1,0.91
2020-05-19 15:14:19.369 -0400,1589915659.000585,41.37579445353818,-71.83111246586864,-1.625147,8.474979,16.98389271826523,3.444953143446676,4.685812082472546,-9999,7294.749823625,-0.258056640625,0.597015380859375,-0.6335601806640625,1,0.91
2020-05-19 15:14:19.419 -0400,1589915659.000585,41.37579445353818,-71.83111246586864,-1.625147,8.474979,16.98389271826523,3.444953143446676,4.685812082472546,-9999,7294.799724625001,-0.2423858642578125,0.674163818359375,-0.566741943359375,1,0.91
2020-05-19 15:14:19.469 -0400,1589915659.000585,41.37579445353818,-71.83111246586864,-1.625147,8.474979,16.98389271826523,3.444953143446676,4.685812082472546,-9999,7294.849624625001,-0.2612152099609375,0.6527557373046875,-0.5378875732421875,1,0.91
2020-05-19 15:14:19.519 -0400,1589915659.000585,41.37579445353818,-71.83111246586864,-1.625147,8.474979,16.98389271826523,3.444953143446676,4.685812082472546,-9999,7294.899524625001,-0.279144287109375,0.6482086181640625,-0.5596160888671875,1,0.91
2020-05-19 15:14:19.569 -0400,1589915659.000585,41.37579445353818,-71.83111246586864,-1.625147,8.474979,16.98389271826523,3.444953143446676,4.685812082472546,-9999,7294.949424625001,-0.301605224609375,0.68267822265625,-0.620758056640625,1,0.91
2020-05-19 15:14:19.619 -0400,1589915659.000585,41.37579445353818,-71.83111246586864,-1.625147,8.474979,16.98389271826523,3.444953143446676,4.685812082472546,-9999,7294.999325625001,-0.336669921875,0.73687744140625,-0.7052459716796875,1,0.91
2020-05-19 15:14:19.668 -0400,1589915659.000585,41.37579445353818,-71.83111246586864,-1.625147,8.474979,16.98389271826523,3.444953143446676,4.685812082472546,-9999,7295.049224625001,-0.3289031982421875,0.76806640625,-0.687591552734375,1,0.91
2020-05-19 15:14:19.719 -0400,1589915659.000585,41.37579445353818,-71.83111246586864,-1.625147,8.474979,16.98389271826523,3.444953143446676,4.685812082472546,-9999,7295.099124625001,-0.319244384765625,0.8012237548828125,-0.6611328125,1,0.91
2020-05-19 15:14:19.768 -0400,1589915659.000585,41.37579445353818,-71.83111246586864,-1.625147,8.474979,16.98389271826523,3.444953143446676,4.685812082472546,-9999,7295.149021625,-0.28851318359375,0.689361572265625,-0.599639892578125,1,0.91
2020-05-19 15:14:19.818 -0400,1589915659.000585,41.37579445353818,-71.83111246586864,-1.625147,8.474979,16.98389271826523,3.444953143446676,4.685812082472546,-9999,7295.198920625,-0.302978515625,0.7667083740234375,-0.5884857177734375,1,0.91
2020-05-19 15:14:19.868 -0400,1589915659.000585,41.37579445353818,-71.83111246586864,-1.625147,8.474979,16.98389271826523,3.444953143446676,4.685812082472546,-9999,7295.248820625,-0.2813262939453125,0.7564849853515625,-0.57421875,1,0.91
2020-05-19 15:14:19.918 -0400,1589915659.000585,41.37579445353818,-71.83111246586864,-1.625147,8.474979,16.98389271826523,3.444953143446676,4.685812082472546,-9999,7295.298716625,-0.3045196533203125,0.76416015625,-0.55816650390625,1,0.91
2020-05-19 15:14:19.968 -0400,1589915659.000585,41.37579445353818,-71.83111246586864,-1.625147,8.474979,16.98389271826523,3.444953143446676,4.685812082472546,-9999,7295.348612625001,-0.3096771240234375,0.7199859619140625,-0.59552001953125,1,0.91
2020-05-19 15:14:20.018 -0400,1589915659.000585,41.37579445353818,-71.83111246586864,-1.625147,8.474979,16.98389271826523,3.444953143446676,4.685812082472546,-9999,7295.398510625,-0.2925872802734375,0.785919189453125,-0.5716094970703125,1,0.91
2020-05-19 15:14:20.068 -0400,1589915659.000585,41.37579445353818,-71.83111246586864,-1.625147,8.474979,16.98389271826523,3.444953143446676,4.685812082472546,-9999,7295.448408625,-0.288848876953125,0.78369140625,-0.522796630859375,1,0.91
2020-05-19 15:14:20.118 -0400,1589915659.000585,41.37579445353818,-71.83111246586864,-1.625147,8.474979,16.98389271826523,3.444953143446676,4.685812082472546,-9999,7295.498305625,-0.3126983642578125,0.7020416259765625,-0.5424346923828125,1,0.91
2020-05-19 15:14:20.167 -0400,1589915659.000585,41.37579445353818,-71.83111246586864,-1.625147,8.474979,16.98389271826523,3.444953143446676,4.685812082472546,-9999,7295.548201625001,-0.3017578125,0.7400360107421875,-0.5217437744140625,1,0.91
2020-05-19 15:14:20.217 -0400,1589915659.000585,41.37579445353818,-71.83111246586864,-1.625147,8.474979,16.98389271826523,3.444953143446676,4.685812082472546,-9999,7295.598100625,-0.2841644287109375,0.769744873046875,-0.5270233154296875,1,0.91
2020-05-19 15:14:20.267 -0400,1589915660.000588,41.3758461093649,-71.83104705379087,-0.5712363,7.990575,31.14387982428113,3.423150126615621,4.701763524831963,-9999,7295.648000625,-0.3010406494140625,0.79473876953125,-0.5086212158203125,1,0.91
2020-05-19 15:14:20.317 -0400,1589915660.000588,41.3758461093649,-71.83104705379087,-0.5712363,7.990575,31.14387982428113,3.423150126615621,4.701763524831963,-9999,7295.697899625,-0.334014892578125,0.8115692138671875,-0.5588531494140625,1,0.91
2020-05-19 15:14:20.367 -0400,1589915660.000588,41.3758461093649,-71.83104705379087,-0.5712363,7.990575,31.14387982428113,3.423150126615621,4.701763524831963,-9999,7295.747798750001,-0.3428497314453125,0.8433837890625,-0.57745361328125,1,0.91
2020-05-19 15:14:20.417 -0400,1589915660.000588,41.3758461093649,-71.83104705379087,-0.5712363,7.990575,31.14387982428113,3.423150126615621,4.701763524831963,-9999,7295.797696750001,-0.2697906494140625,0.8051605224609375,-0.5567474365234375,1,0.91
2020-05-19 15:14:20.467 -0400,1589915660.000588,41.3758461093649,-71.83104705379087,-0.5712363,7.990575,31.14387982428113,3.423150126615621,4.701763524831963,-9999,7295.84759575,-0.2641448974609375,0.8459625244140625,-0.544097900390625,1,0.91
2020-05-19 15:14:20.517 -0400,1589915660.000588,41.3758461093649,-71.83104705379087,-0.5712363,7.990575,31.14387982428113,3.423150126615621,4.701763524831963,-9999,7295.897496750001,-0.2926025390625,0.8453521728515625,-0.5503082275390625,1,0.91
2020-05-19 15:14:20.567 -0400,1589915660.000588,41.3758461093649,-71.83104705379087,-0.5712363,7.990575,31.14387982428113,3.423150126615621,4.701763524831963,-9999,7295.947398750001,-0.286468505859375,0.7792205810546875,-0.4980621337890625,1,0.91
2020-05-19 15:14:20.617 -0400,1589915660.000588,41.3758461093649,-71.83104705379087,-0.5712363,7.990575,31.14387982428113,3.423150126615621,4.701763524831963,-9999,7295.997299750001,-0.289337158203125,0.7911834716796875,-0.486968994140625,1,0.91
2020-05-19 15:14:20.666 -0400,1589915660.000588,41.3758461093649,-71.83104705379087,-0.5712363,7.990575,31.14387982428113,3.423150126615621,4.701763524831963,-9999,7296.04719875,-0.305450439453125,0.807830810546875,-0.4873809814453125,1,0.91
2020-05-19 15:14:20.716 -0400,1589915660.000588,41.3758461093649,-71.83104705379087,-0.5712363,7.990575,31.14387982428113,3.423150126615621,4.701763524831963,-9999,7296.097099750001,-0.317535400390625,0.799072265625,-0.5259246826171875,1,0.91
2020-05-19 15:14:20.766 -0400,1589915660.000588,41.3758461093649,-71.83104705379087,-0.5712363,7.990575,31.14387982428113,3.423150126615621,4.701763524831963,-9999,7296.14700075,-0.326019287109375,0.8574981689453125,-0.5418701171875,1,0.91
2020-05-19 15:14:20.816 -0400,1589915660.000588,41.3758461093649,-71.83104705379087,-0.5712363,7.990575,31.14387982428113,3.423150126615621,4.701763524831963,-9999,7296.196899750001,-0.303680419921875,0.8166961669921875,-0.5237579345703125,1,0.91
2020-05-19 15:14:20.866 -0400,1589915660.000588,41.3758461093649,-71.83104705379087,-0.5712363,7.990575,31.14387982428113,3.423150126615621,4.701763524831963,-9999,7296.246796750001,-0.2953643798828125,0.8112945556640625,-0.5011138916015625,1,0.91
2020-05-19 15:14:20.916 -0400,1589915660.000588,41.3758461093649,-71.83104705379087,-0.5712363,7.990575,31.14387982428113,3.423150126615621,4.701763524831963,-9999,7296.296694750001,-0.287322998046875,0.7917022705078125,-0.45745849609375,1,0.91
2020-05-19 15:14:20.966 -0400,1589915660.000588,41.3758461093649,-71.83104705379087,-0.5712363,7.990575,31.14387982428113,3.423150126615621,4.701763524831963,-9999,7296.346594750001,-0.3193817138671875,0.7867279052734375,-0.481964111328125,1,0.91
