loggingTime(txt),locationTimestamp_since1970(s),locationLatitude(WGS84),locationLongitude(WGS84),locationAltitude(m),locationSpeed(m/s),locationCourse(°),locationVerticalAccuracy(m),locationHorizontalAccuracy(m),locationFloor(Z),accelerometerTimestamp_sinceReboot(s),accelerometerAccelerationX(G),accelerometerAccelerationY(G),accelerometerAccelerationZ(G),batteryState,batteryLevel
2020-05-19 13:57:46.094 -0400,1589911065.001327,41.34814188564728,-71.74427912683662,22.89701,15.56981,285.72509765625,3.405273322744758,4.714726994237493,-9999,4515.23150825,-0.201904296875,-0.3648681640625,-0.9144287109375,1,0.97
2020-05-19 13:57:46.140 -0400,1589911065.001327,41.34814188564728,-71.74427912683662,22.89701,15.56981,285.72509765625,3.405273322744758,4.714726994237493,-9999,4515.28140125,-0.1513824462890625,-0.3897247314453125,-0.6990509033203125,1,0.97
2020-05-19 13:57:46.190 -0400,1589911065.001327,41.34814188564728,-71.74427912683662,22.89701,15.56981,285.72509765625,3.405273322744758,4.714726994237493,-9999,4515.331294250001,-0.1925201416015625,-0.607269287109375,-0.775848388671875,1,0.97
2020-05-19 13:57:46.240 -0400,1589911065.001327,41.34814188564728,-71.74427912683662,22.89701,15.56981,285.72509765625,3.405273322744758,4.714726994237493,-9999,4515.38119225,-0.1977081298828125,-0.332611083984375,-0.88092041015625,1,0.97
2020-05-19 13:57:46.290 -0400,1589911065.001327,41.34814188564728,-71.74427912683662,22.89701,15.56981,285.72509765625,3.405273322744758,4.714726994237493,-9999,4515.43109125,-0.1804351806640625,-0.4720611572265625,-0.7342376708984375,1,0.97
2020-05-19 13:57:46.340 -0400,1589911066.001342,41.34818875584865,-71.74447552323095,23.58157,17.05457,288.7982788085938,3.4140958065564,4.708342262032662,-9999,4515.480989250001,-0.246856689453125,-0.58740234375,-0.7925262451171875,1,0.97
2020-05-19 13:57:46.390 -0400,1589911066.001342,41.34818875584865,-71.74447552323095,23.58157,17.05457,288.7982788085938,3.4140958065564,4.708342262032662,-9999,4515.53088825,-0.1892242431640625,-0.3278961181640625,-0.8538665771484375,1,0.97
2020-05-19 13:57:46.439 -0400,1589911066.001342,41.34818875584865,-71.74447552323095,23.58157,17.05457,288.7982788085938,3.4140958065564,4.708342262032662,-9999,4515.58078825,-0.2435760498046875,-0.334259033203125,-0.889312744140625,1,0.97
2020-05-19 13:57:46.496 -0400,1589911066.001342,41.34818875584865,-71.74447552323095,23.58157,17.05457,288.7982788085938,3.4140958065564,4.708342262032662,-9999,4515.63068825,-0.208099365234375,-0.2799835205078125,-0.9298248291015625,1,0.97
2020-05-19 13:57:46.539 -0400,1589911066.001342,41.34818875584865,-71.74447552323095,23.58157,17.05457,288.7982788085938,3.4140958065564,4.708342262032662,-9999,4515.68059025,-0.2319488525390625,-0.254608154296875,-1.055496215820312,1,0.97
2020-05-19 13:57:46.589 -0400,1589911066.001342,41.34818875584865,-71.74447552323095,23.58157,17.05457,288.7982788085938,3.4140958065564,4.708342262032662,-9999,4515.73049125,-0.346954345703125,-0.308319091796875,-0.9936370849609375,1,0.97
2020-05-19 13:57:46.639 -0400,1589911066.001342,41.34818875584865,-71.74447552323095,23.58157,17.05457,288.7982788085938,3.4140958065564,4.708342262032662,-9999,4515.78039025,-0.294097900390625,-0.158660888671875,-1.084640502929688,1,0.97
2020-05-19 13:57:46.689 -0400,1589911066.001342,41.34818875584865,-71.74447552323095,23.58157,17.05457,288.7982788085938,3.4140958065564,4.708342262032662,-9999,4515.83028525,-0.277923583984375,-0.205810546875,-0.94451904296875,1,0.97
2020-05-19 13:57:46.739 -0400,1589911066.001342,41.34818875584865,-71.74447552323095,23.58157,17.05457,288.7982788085938,3.4140958065564,4.708342262032662,-9999,4515.880181250001,-0.3246612548828125,-0.311614990234375,-0.8997344970703125,1,0.97
2020-05-19 13:57:46.789 -0400,1589911066.001342,41.34818875584865,-71.74447552323095,23.58157,17.05457,288.7982788085938,3.4140958065564,4.708342262032662,-9999,4515.93007725,-0.23870849609375,0.0221710205078125,-0.904449462890625,1,0.97
2020-05-19 13:57:46.839 -0400,1589911066.001342,41.34818875584865,-71.74447552323095,23.58157,17.05457,288.7982788085938,3.4140958065564,4.708342262032662,-9999,4515.97997525,-0.2595367431640625,-0.2685699462890625,-0.833465576171875,1,0.97
2020-05-19 13:57:46.889 -0400,1589911066.001342,41.34818875584865,-71.74447552323095,23.58157,17.05457,288.7982788085938,3.4140958065564,4.708342262032662,-9999,4516.02987025,-0.2881317138671875,0.118072509765625,-0.9096832275390625,1,0.97
2020-05-19 13:57:46.939 -0400,1589911066.001342,41.34818875584865,-71.74447552323095,23.58157,17.05457,288.7982788085938,3.4140958065564,4.708342262032662,-9999,4516.07976475,-0.30462646484375,0.6829376220703125,-0.8271026611328125,1,0.97
2020-05-19 13:57:46.997 -0400,1589911066.001342,41.34818875584865,-71.74447552323095,23.58157,17.05457,288.7982788085938,3.4140958065564,4.708342262032662,-9999,4516.12966075,-0.32574462890625,0.236572265625,-0.8811187744140625,1,0.97
2020-05-19 13:57:47.038 -0400,1589911066.001342,41.34818875584865,-71.74447552323095,23.58157,17.05457,288.7982788085938,3.4140958065564,4.708342262032662,-9999,4516.17955875,-0.2836761474609375,0.3951568603515625,-0.8969573974609375,1,0.97
2020-05-19 13:57:47.088 -0400,1589911066.001342,41.34818875584865,-71.74447552323095,23.58157,17.05457,288.7982788085938,3.4140958065564,4.708342262032662,-9999,4516.22945575,-0.3635406494140625,0.3764801025390625,-0.70233154296875,1,0.97
2020-05-19 13:57:47.138 -0400,1589911066.001342,41.34818875584865,-71.74447552323095,23.58157,17.05457,288.7982788085938,3.4140958065564,4.708342262032662,-9999,4516.279352750001,-0.2247467041015625,0.7386322021484375,-0.4801788330078125,1,0.97
2020-05-19 13:57:47.188 -0400,1589911066.001342,41.34818875584865,-71.74447552323095,23.58157,17.05457,288.7982788085938,3.4140958065564,4.708342262032662,-9999,4516.32925075,-0.170379638671875,0.6502838134765625,-0.4254150390625,1,0.97
2020-05-19 13:57:47.238 -0400,1589911066.001342,41.34818875584865,-71.74447552323095,23.58157,17.05457,288.7982788085938,3.4140958065564,4.708342262032662,-9999,4516.37914775,-0.293792724609375,0.5951690673828125,-0.47760009765625,1,0.97
2020-05-19 13:57:47.288 -0400,1589911066.001342,41.34818875584865,-71.74447552323095,23.58157,17.05457,288.7982788085938,3.4140958065564,4.708342262032662,-9999,4516.42904775,-0.392578125,0.919342041015625,-0.51104736328125,1,0.97
2020-05-19 13:57:47.338 -0400,1589911066.001342,41.34818875584865,-71.74447552323095,23.58157,17.05457,288.7982788085938,3.4140958065564,4.708342262032662,-9999,4516.47894275,-0.44903564453125,0.913543701171875,-0.341461181640625,1,0.97
2020-05-19 13:57:47.388 -0400,1589911067.001357,41.34824508447959,-71.74468111950192,23.45734,17.78388,291.1585083007812,3.408088277922599,4.712692576720384,-9999,4516.52883875,-0.4921417236328125,1.06964111328125,-0.337982177734375,1,0.97
2020-05-19 13:57:47.438 -0400,1589911067.001357,41.34824508447959,-71.74468111950192,23.45734,17.78388,291.1585083007812,3.408088277922599,4.712692576720384,-9999,4516.578733750001,-0.4528656005859375,1.147232055664062,-0.318084716796875,1,0.97
2020-05-19 13:57:47.497 -0400,1589911067.001357,41.34824508447959,-71.74468111950192,23.45734,17.78388,291.1585083007812,3.408088277922599,4.712692576720384,-9999,4516.62862675,-0.5313873291015625,0.843292236328125,-0.1280975341796875,1,0.97
2020-05-19 13:57:47.537 -0400,1589911067.001357,41.34824508447959,-71.74468111950192,23.45734,17.78388,291.1585083007812,3.408088277922599,4.712692576720384,-9999,4516.67852175,-0.3180084228515625,1.010269165039062,-0.27655029296875,1,0.97
2020-05-19 13:57:47.587 -0400,1589911067.001357,41.34824508447959,-71.74468111950192,23.45734,17.78388,291.1585083007812,3.408088277922599,4.712692576720384,-9999,4516.72841575,-0.3016204833984375,1.081130981445312,-0.176025390625,1,0.97
2020-05-19 13:57:47.637 -0400,1589911067.001357,41.34824508447959,-71.74468111950192,23.45734,17.78388,291.1585083007812,3.408088277922599,4.712692576720384,-9999,4516.77830875,-0.3298187255859375,1.144790649414062,-0.227630615234375,1,0.97
2020-05-19 13:57:47.687 -0400,1589911067.001357,41.34824508447959,-71.74468111950192,23.45734,17.78388,291.1585083007812,3.408088277922599,4.712692576720384,-9999,4516.828201750001,-0.396575927734375,0.8763275146484375,-0.127410888671875,1,0.97
2020-05-19 13:57:47.737 -0400,1589911067.001357,41.34824508447959,-71.74468111950192,23.45734,17.78388,291.1585083007812,3.408088277922599,4.712692576720384,-9999,4516.87809475,-0.3169708251953125,0.8747100830078125,-0.1518402099609375,1,0.97
2020-05-19 13:57:47.787 -0400,1589911067.001357,41.34824508447959,-71.74468111950192,23.45734,17.78388,291.1585083007812,3.408088277922599,4.712692576720384,-9999,4516.927988750001,-0.2715911865234375,0.8224945068359375,-0.201385498046875,1,0.97
2020-05-19 13:57:47.837 -0400,1589911067.001357,41.34824508447959,-71.74468111950192,23.45734,17.78388,291.1585083007812,3.408088277922599,4.712692576720384,-9999,4516.97788175,-0.2590789794921875,0.9566650390625,-0.2034149169921875,1,0.97
2020-05-19 13:57:47.900 -0400,1589911067.001357,41.34824508447959,-71.74468111950192,23.45734,17.78388,291.1585083007812,3.408088277922599,4.712692576720384,-9999,4517.02777675,-0.3048095703125,0.756011962890625,-0.0935516357421875,1,0.97
2020-05-19 13:57:47.936 -0400,1589911067.001357,41.34824508447959,-71.74468111950192,23.45734,17.78388,291.1585083007812,3.408088277922599,4.712692576720384,-9999,4517.077670625,-0.2645111083984375,0.886383056640625,-0.1365509033203125,1,0.97
2020-05-19 13:57:47.986 -0400,1589911067.001357,41.34824508447959,-71.74468111950192,23.45734,17.78388,291.1585083007812,3.408088277922599,4.712692576720384,-9999,4517.127564625001,-0.2984771728515625,0.935760498046875,-0.157928466796875,1,0.97
2020-05-19 13:57:48.036 -0400,1589911067.001357,41.34824508447959,-71.74468111950192,23.45734,17.78388,291.1585083007812,3.408088277922599,4.712692576720384,-9999,4517.177458625,-0.2842864990234375,0.7820892333984375,-0.1955718994140625,1,0.97
2020-05-19 13:57:48.086 -0400,1589911067.001357,41.34824508447959,-71.74468111950192,23.45734,17.78388,291.1585083007812,3.408088277922599,4.712692576720384,-9999,4517.227353625,-0.23291015625,0.912109375,-0.1218414306640625,1,0.97
2020-05-19 13:57:48.136 -0400,1589911067.001357,41.34824508447959,-71.74468111950192,23.45734,17.78388,291.1585083007812,3.408088277922599,4.712692576720384,-9999,4517.277242625,-0.228546142578125,0.8125152587890625,-0.172119140625,1,0.97
2020-05-19 13:57:48.186 -0400,1589911067.001357,41.34824508447959,-71.74468111950192,23.45734,17.78388,291.1585083007812,3.408088277922599,4.712692576720384,-9999,4517.327131625,-0.2551116943359375,1.071533203125,-0.218994140625,1,0.97
2020-05-19 13:57:48.236 -0400,1589911067.001357,41.34824508447959,-71.74468111950192,23.45734,17.78388,291.1585083007812,3.408088277922599,4.712692576720384,-9999,4517.377023625,-0.2129669189453125,0.5839996337890625,-0.30792236328125,1,0.97
2020-05-19 13:57:48.293 -0400,1589911067.001357,41.34824508447959,-71.74468111950192,23.45734,17.78388,291.1585083007812,3.408088277922599,4.712692576720384,-9999,4517.426917625,-0.2930145263671875,1.051895141601562,-0.15313720703125,1,0.97
2020-05-19 13:57:48.336 -0400,1589911068.001373,41.34831114572084,-71.74488447072181,23.78836,18.42261,293.7750854492188,3.387892370968127,4.727231992987524,-9999,4517.476809625,-0.2667388916015625,1.745574951171875,-0.291839599609375,1,0.97
2020-05-19 13:57:48.385 -0400,1589911068.001373,41.34831114572084,-71.74488447072181,23.78836,18.42261,293.7750854492188,3.387892370968127,4.727231992987524,-9999,4517.526700625001,-0.1230926513671875,0.71826171875,-0.333526611328125,1,0.97
2020-05-19 13:57:48.435 -0400,1589911068.001373,41.34831114572084,-71.74488447072181,23.78836,18.42261,293.7750854492188,3.387892370968127,4.727231992987524,-9999,4517.576590625,-0.3104248046875,0.251495361328125,-0.140777587890625,1,0.97
2020-05-19 13:57:48.485 -0400,1589911068.001373,41.34831114572084,-71.74488447072181,23.78836,18.42261,293.7750854492188,3.387892370968127,4.727231992987524,-9999,4517.626481625,-0.3709716796875,2.42303466796875,0.26080322265625,1,0.97
2020-05-19 13:57:48.535 -0400,1589911068.001373,41.34831114572084,-71.74488447072181,23.78836,18.42261,293.7750854492188,3.387892370968127,4.727231992987524,-9999,4517.676378625,-0.243316650390625,0.63348388671875,-0.4207763671875,1,0.97
2020-05-19 13:57:48.585 -0400,1589911068.001373,41.34831114572084,-71.74488447072181,23.78836,18.42261,293.7750854492188,3.387892370968127,4.727231992987524,-9999,4517.726277625,-0.1222381591796875,0.729034423828125,-0.1336822509765625,1,0.97
2020-05-19 13:57:48.635 -0400,1589911068.001373,41.34831114572084,-71.74488447072181,23.78836,18.42261,293.7750854492188,3.387892370968127,4.727231992987524,-9999,4517.776176625001,-0.1414337158203125,0.9467620849609375,-0.1143341064453125,1,0.97
2020-05-19 13:57:48.685 -0400,1589911068.001373,41.34831114572084,-71.74488447072181,23.78836,18.42261,293.7750854492188,3.387892370968127,4.727231992987524,-9999,4517.826073625,-0.462982177734375,1.426177978515625,0.08428955078125,1,0.97
2020-05-19 13:57:48.735 -0400,1589911068.001373,41.34831114572084,-71.74488447072181,23.78836,18.42261,293.7750854492188,3.387892370968127,4.727231992987524,-9999,4517.875971625001,-0.0789794921875,1.1376953125,-0.3402557373046875,1,0.97
2020-05-19 13:57:48.785 -0400,1589911068.001373,41.34831114572084,-71.74488447072181,23.78836,18.42261,293.7750854492188,3.387892370968127,4.727231992987524,-9999,4517.925868625,-0.4410552978515625,0.8450164794921875,0.0287628173828125,1,0.97
2020-05-19 13:57:48.834 -0400,1589911068.001373,41.34831114572084,-71.74488447072181,23.78836,18.42261,293.7750854492188,3.387892370968127,4.727231992987524,-9999,4517.975761625,-0.52734375,1.211898803710938,-0.0517120361328125,1,0.97
2020-05-19 13:57:48.884 -0400,1589911068.001373,41.34831114572084,-71.74488447072181,23.78836,18.42261,293.7750854492188,3.387892370968127,4.727231992987524,-9999,4518.025652625,-0.22308349609375,1.156600952148438,-0.28704833984375,1,0.97
2020-05-19 13:57:48.934 -0400,1589911068.001373,41.34831114572084,-71.74488447072181,23.78836,18.42261,293.7750854492188,3.387892370968127,4.727231992987524,-9999,4518.0755455,-0.277374267578125,0.9451751708984375,-0.09332275390625,1,0.97
2020-05-19 13:57:48.984 -0400,1589911068.001373,41.34831114572084,-71.74488447072181,23.78836,18.42261,293.7750854492188,3.387892370968127,4.727231992987524,-9999,4518.1254375,-0.3544921875,0.767608642578125,0.000885009765625,1,0.97
2020-05-19 13:57:49.034 -0400,1589911068.001373,41.34831114572084,-71.74488447072181,23.78836,18.42261,293.7750854492188,3.387892370968127,4.727231992987524,-9999,4518.175331500001,-0.3900299072265625,0.978240966796875,0.11102294921875,1,0.97
2020-05-19 13:57:49.084 -0400,1589911068.001373,41.34831114572084,-71.74488447072181,23.78836,18.42261,293.7750854492188,3.387892370968127,4.727231992987524,-9999,4518.2252225,-0.4088897705078125,0.9367523193359375,-0.015350341796875,1,0.97
2020-05-19 13:57:49.134 -0400,1589911068.001373,41.34831114572084,-71.74488447072181,23.78836,18.42261,293.7750854492188,3.387892370968127,4.727231992987524,-9999,4518.2751165,-0.32318115234375,1.050460815429688,-0.02410888671875,1,0.97
2020-05-19 13:57:49.184 -0400,1589911068.001373,41.34831114572084,-71.74488447072181,23.78836,18.42261,293.7750854492188,3.387892370968127,4.727231992987524,-9999,4518.325010500001,-0.289703369140625,0.71563720703125,-0.151824951171875,1,0.97
2020-05-19 13:57:49.233 -0400,1589911068.001373,41.34831114572084,-71.74488447072181,23.78836,18.42261,293.7750854492188,3.387892370968127,4.727231992987524,-9999,4518.374902500001,-0.2690277099609375,1.010665893554688,-0.0260772705078125,1,0.97
2020-05-19 13:57:49.284 -0400,1589911069.001391,41.34838399350091,-71.74509317731895,24.20086,18.96844,295.2752075195312,3.367725342201269,4.741620298198095,-9999,4518.4247975,-0.23974609375,0.8274383544921875,-0.1779632568359375,1,0.97
2020-05-19 13:57:49.334 -0400,1589911069.001391,41.34838399350091,-71.74509317731895,24.20086,18.96844,295.2752075195312,3.367725342201269,4.741620298198095,-9999,4518.4746895,-0.239349365234375,0.8701629638671875,-0.16217041015625,1,0.97
2020-05-19 13:57:49.383 -0400,1589911069.001391,41.34838399350091,-71.74509317731895,24.20086,18.96844,295.2752075195312,3.367725342201269,4.741620298198095,-9999,4518.5245815,-0.2988128662109375,1.071380615234375,-0.0797576904296875,1,0.97
2020-05-19 13:57:49.433 -0400,1589911069.001391,41.34838399350091,-71.74509317731895,24.20086,18.96844,295.2752075195312,3.367725342201269,4.741620298198095,-9999,4518.5744725,-0.26605224609375,0.810638427734375,-0.097991943359375,1,0.97
2020-05-19 13:57:49.483 -0400,1589911069.001391,41.34838399350091,-71.74509317731895,24.20086,18.96844,295.2752075195312,3.367725342201269,4.741620298198095,-9999,4518.6243655,-0.2097015380859375,1.215225219726562,-0.077850341796875,1,0.97
2020-05-19 13:57:49.533 -0400,1589911069.001391,41.34838399350091,-71.74509317731895,24.20086,18.96844,295.2752075195312,3.367725342201269,4.741620298198095,-9999,4518.6742565,-0.265625,0.78997802734375,-0.183197021484375,1,0.97
2020-05-19 13:57:49.583 -0400,1589911069.001391,41.34838399350091,-71.74509317731895,24.20086,18.96844,295.2752075195312,3.367725342201269,4.741620298198095,-9999,4518.7241505,-0.2552642822265625,0.7291412353515625,-0.13818359375,1,0.97
2020-05-19 13:57:49.633 -0400,1589911069.001391,41.34838399350091,-71.74509317731895,24.20086,18.96844,295.2752075195312,3.367725342201269,4.741620298198095,-9999,4518.774043500001,-0.22210693359375,1.08636474609375,-0.126556396484375,1,0.97
2020-05-19 13:57:49.683 -0400,1589911069.001391,41.34838399350091,-71.74509317731895,24.20086,18.96844,295.2752075195312,3.367725342201269,4.741620298198095,-9999,4518.8239335,-0.27215576171875,0.903717041015625,-0.116302490234375,1,0.97
2020-05-19 13:57:49.733 -0400,1589911069.001391,41.34838399350091,-71.74509317731895,24.20086,18.96844,295.2752075195312,3.367725342201269,4.741620298198095,-9999,4518.8738245,-0.2410736083984375,0.971893310546875,-0.052947998046875,1,0.97
2020-05-19 13:57:49.782 -0400,1589911069.001391,41.34838399350091,-71.74509317731895,24.20086,18.96844,295.2752075195312,3.367725342201269,4.741620298198095,-9999,4518.923714500001,-0.2264556884765625,1.046173095703125,-0.2043609619140625,1,0.97
2020-05-19 13:57:49.832 -0400,1589911069.001391,41.34838399350091,-71.74509317731895,24.20086,18.96844,295.2752075195312,3.367725342201269,4.741620298198095,-9999,4518.9736075,-0.2239837646484375,0.8695526123046875,-0.1383819580078125,1,0.97
2020-05-19 13:57:49.882 -0400,1589911069.001391,41.34838399350091,-71.74509317731895,24.20086,18.96844,295.2752075195312,3.367725342201269,4.741620298198095,-9999,4519.0234995,-0.2487030029296875,0.709503173828125,-0.1169891357421875,1,0.97
2020-05-19 13:57:49.932 -0400,1589911069.001391,41.34838399350091,-71.74509317731895,24.20086,18.96844,295.2752075195312,3.367725342201269,4.741620298198095,-9999,4519.073392625,-0.2462158203125,1.188003540039062,-0.12664794921875,1,0.97
2020-05-19 13:57:49.982 -0400,1589911069.001391,41.34838399350091,-71.74509317731895,24.20086,18.96844,295.2752075195312,3.367725342201269,4.741620298198095,-9999,4519.123285625,-0.297088623046875,0.9688262939453125,-0.0189971923828125,1,0.97
2020-05-19 13:57:50.032 -0400,1589911069.001391,41.34838399350091,-71.74509317731895,24.20086,18.96844,295.2752075195312,3.367725342201269,4.741620298198095,-9999,4519.173181625,-0.2674407958984375,0.90130615234375,-0.011962890625,1,0.97
2020-05-19 13:57:50.082 -0400,1589911069.001391,41.34838399350091,-71.74509317731895,24.20086,18.96844,295.2752075195312,3.367725342201269,4.741620298198095,-9999,4519.223080625,-0.275177001953125,1.156173706054688,-0.1007232666015625,1,0.97
2020-05-19 13:57:50.132 -0400,1589911069.001391,41.34838399350091,-71.74509317731895,24.20086,18.96844,295.2752075195312,3.367725342201269,4.741620298198095,-9999,4519.272975625,-0.2330780029296875,0.8471832275390625,-0.2051849365234375,1,0.97
2020-05-19 13:57:50.182 -0400,1589911069.001391,41.34838399350091,-71.74509317731895,24.20086,18.96844,295.2752075195312,3.367725342201269,4.741620298198095,-9999,4519.322870625,-0.1707305908203125,1.217941284179688,-0.1772308349609375,1,0.97
2020-05-19 13:57:50.231 -0400,1589911069.001391,41.34838399350091,-71.74509317731895,24.20086,18.96844,295.2752075195312,3.367725342201269,4.741620298198095,-9999,4519.372764625,-0.2694549560546875,1.262451171875,-0.190399169921875,1,0.97
2020-05-19 13:57:50.281 -0400,1589911069.001391,41.34838399350091,-71.74509317731895,24.20086,18.96844,295.2752075195312,3.367725342201269,4.741620298198095,-9999,4519.422656625,-0.2461090087890625,0.7930755615234375,-0.22918701171875,1,0.97
2020-05-19 13:57:50.331 -0400,1589911070.001402,41.34846139398814,-71.74530692813232,24.78695,19.6216,294.927490234375,3.352697172418695,4.75225827400453,-9999,4519.472551625,-0.1836395263671875,1.336074829101562,-0.1026611328125,1,0.97
2020-05-19 13:57:50.381 -0400,1589911070.001402,41.34846139398814,-71.74530692813232,24.78695,19.6216,294.927490234375,3.352697172418695,4.75225827400453,-9999,4519.522445625001,-0.229766845703125,0.9385528564453125,0.0350341796875,1,0.97
2020-05-19 13:57:50.431 -0400,1589911070.001402,41.34846139398814,-71.74530692813232,24.78695,19.6216,294.927490234375,3.352697172418695,4.75225827400453,-9999,4519.572338625,-0.406829833984375,0.737945556640625,-0.0687713623046875,1,0.97
2020-05-19 13:57:50.481 -0400,1589911070.001402,41.34846139398814,-71.74530692813232,24.78695,19.6216,294.927490234375,3.352697172418695,4.75225827400453,-9999,4519.622233625,-0.3619232177734375,1.378128051757812,-0.044586181640625,1,0.97
2020-05-19 13:57:50.531 -0400,1589911070.001402,41.34846139398814,-71.74530692813232,24.78695,19.6216,294.927490234375,3.352697172418695,4.75225827400453,-9999,4519.672127625,-0.1732025146484375,1.15338134765625,-0.114776611328125,1,0.97
2020-05-19 13:57:50.581 -0400,1589911070.001402,41.34846139398814,-71.74530692813232,24.78695,19.6216,294.927490234375,3.352697172418695,4.75225827400453,-9999,4519.722022625,-0.1968231201171875,0.5927734375,-0.2022552490234375,1,0.97
2020-05-19 13:57:50.631 -0400,1589911070.001402,41.34846139398814,-71.74530692813232,24.78695,19.6216,294.927490234375,3.352697172418695,4.75225827400453,-9999,4519.771917625,-0.24505615234375,0.8529815673828125,-0.1430511474609375,1,0.97
2020-05-19 13:57:50.681 -0400,1589911070.001402,41.34846139398814,-71.74530692813232,24.78695,19.6216,294.927490234375,3.352697172418695,4.75225827400453,-9999,4519.821808625,-0.220947265625,1.020309448242188,-0.077392578125,1,0.97
2020-05-19 13:57:50.730 -0400,1589911070.001402,41.34846139398814,-71.74530692813232,24.78695,19.6216,294.927490234375,3.352697172418695,4.75225827400453,-9999,4519.871700625,-0.3270721435546875,0.9522705078125,-0.1001739501953125,1,0.97
2020-05-19 13:57:50.780 -0400,1589911070.001402,41.34846139398814,-71.74530692813232,24.78695,19.6216,294.927490234375,3.352697172418695,4.75225827400453,-9999,4519.921591625,-0.35821533203125,1.117462158203125,-0.11468505859375,1,0.97
2020-05-19 13:57:50.830 -0400,1589911070.001402,41.34846139398814,-71.74530692813232,24.78695,19.6216,294.927490234375,3.352697172418695,4.75225827400453,-9999,4519.971481625001,-0.2450714111328125,1.198089599609375,-0.1429595947265625,1,0.97
2020-05-19 13:57:50.880 -0400,1589911070.001402,41.34846139398814,-71.74530692813232,24.78695,19.6216,294.927490234375,3.352697172418695,4.75225827400453,-9999,4520.021375625,-0.322967529296875,1.3375244140625,-0.117095947265625,1,0.97
2020-05-19 13:57:50.930 -0400,1589911070.001402,41.34846139398814,-71.74530692813232,24.78695,19.6216,294.927490234375,3.352697172418695,4.75225827400453,-9999,4520.071267625,-0.2882080078125,0.96905517578125,-0.0854949951171875,1,0.97
2020-05-19 13:57:50.980 -0400,1589911070.001402,41.34846139398814,-71.74530692813232,24.78695,19.6216,294.927490234375,3.352697172418695,4.75225827400453,-9999,4520.1211615,-0.205230712890625,0.9224395751953125,-0.140777587890625,1,0.97
2020-05-19 13:57:51.030 -0400,1589911070.001402,41.34846139398814,-71.74530692813232,24.78695,19.6216,294.927490234375,3.352697172418695,4.75225827400453,-9999,4520.1710555,-0.231597900390625,0.86956787109375,-0.06488037109375,1,0.97
2020-05-19 13:57:51.092 -0400,1589911070.001402,41.34846139398814,-71.74530692813232,24.78695,19.6216,294.927490234375,3.352697172418695,4.75225827400453,-9999,4520.220949500001,-0.337188720703125,0.51959228515625,-0.019439697265625,1,0.97
2020-05-19 13:57:51.130 -0400,1589911070.001402,41.34846139398814,-71.74530692813232,24.78695,19.6216,294.927490234375,3.352697172418695,4.75225827400453,-9999,4520.2708425,-0.2907867431640625,0.90753173828125,-0.1271209716796875,1,0.97
2020-05-19 13:57:51.179 -0400,1589911070.001402,41.34846139398814,-71.74530692813232,24.78695,19.6216,294.927490234375,3.352697172418695,4.75225827400453,-9999,4520.3207375,-0.2572174072265625,0.87701416015625,-0.0926971435546875,1,0.97
2020-05-19 13:57:51.230 -0400,1589911070.001402,41.34846139398814,-71.74530692813232,24.78695,19.6216,294.927490234375,3.352697172418695,4.75225827400453,-9999,4520.3706315,-0.2975006103515625,1.096160888671875,-0.077911376953125,1,0.97
2020-05-19 13:57:51.279 -0400,1589911070.001402,41.34846139398814,-71.74530692813232,24.78695,19.6216,294.927490234375,3.352697172418695,4.75225827400453,-9999,4520.420525500001,-0.3474273681640625,1.12158203125,-0.121612548828125,1,0.97
2020-05-19 13:57:51.329 -0400,1589911071.001417,41.3485416375805,-71.74552467900013,25.75217,20.26617,294.927490234375,3.338108820928422,4.76251682752184,-9999,4520.470420500001,-0.2590789794921875,0.884490966796875,-0.075653076171875,1,0.97
2020-05-19 13:57:51.379 -0400,1589911071.001417,41.3485416375805,-71.74552467900013,25.75217,20.26617,294.927490234375,3.338108820928422,4.76251682752184,-9999,4520.520317500001,-0.26861572265625,0.8443756103515625,-0.0615692138671875,1,0.97
2020-05-19 13:57:51.429 -0400,1589911071.001417,41.3485416375805,-71.74552467900013,25.75217,20.26617,294.927490234375,3.338108820928422,4.76251682752184,-9999,4520.5702115,-0.3063812255859375,0.9664459228515625,-0.047210693359375,1,0.97
2020-05-19 13:57:51.479 -0400,1589911071.001417,41.3485416375805,-71.74552467900013,25.75217,20.26617,294.927490234375,3.338108820928422,4.76251682752184,-9999,4520.6201055,-0.314056396484375,0.9608306884765625,-0.2996826171875,1,0.97
2020-05-19 13:57:51.529 -0400,1589911071.001417,41.3485416375805,-71.74552467900013,25.75217,20.26617,294.927490234375,3.338108820928422,4.76251682752184,-9999,4520.6699985,-0.3864593505859375,0.9561309814453125,-0.129791259765625,1,0.97
2020-05-19 13:57:51.579 -0400,1589911071.001417,41.3485416375805,-71.74552467900013,25.75217,20.26617,294.927490234375,3.338108820928422,4.76251682752184,-9999,4520.7198905,-0.338165283203125,1.033493041992188,-0.13482666015625,1,0.97
2020-05-19 13:57:51.629 -0400,1589911071.001417,41.3485416375805,-71.74552467900013,25.75217,20.26617,294.927490234375,3.338108820928422,4.76251682752184,-9999,4520.7697865,-0.225555419921875,1.146072387695312,-0.180816650390625,1,0.97
2020-05-19 13:57:51.678 -0400,1589911071.001417,41.3485416375805,-71.74552467900013,25.75217,20.26617,294.927490234375,3.338108820928422,4.76251682752184,-9999,4520.8196835,-0.1168975830078125,1.119354248046875,-0.15692138671875,1,0.97
2020-05-19 13:57:51.728 -0400,1589911071.001417,41.3485416375805,-71.74552467900013,25.75217,20.26617,294.927490234375,3.338108820928422,4.76251682752184,-9999,4520.8695795,-0.149932861328125,0.44207763671875,-0.232513427734375,1,0.97
2020-05-19 13:57:51.778 -0400,1589911071.001417,41.3485416375805,-71.74552467900013,25.75217,20.26617,294.927490234375,3.338108820928422,4.76251682752184,-9999,4520.919477500001,-0.1952362060546875,0.82379150390625,-0.1217041015625,1,0.97
2020-05-19 13:57:51.828 -0400,1589911071.001417,41.3485416375805,-71.74552467900013,25.75217,20.26617,294.927490234375,3.338108820928422,4.76251682752184,-9999,4520.969372500001,-0.4068603515625,1.049896240234375,-0.2005462646484375,1,0.97
2020-05-19 13:57:51.878 -0400,1589911071.001417,41.3485416375805,-71.74552467900013,25.75217,20.26617,294.927490234375,3.338108820928422,4.76251682752184,-9999,4521.0192685,-0.4320831298828125,1.58575439453125,-0.275543212890625,1,0.97
2020-05-19 13:57:51.928 -0400,1589911071.001417,41.3485416375805,-71.74552467900013,25.75217,20.26617,294.927490234375,3.338108820928422,4.76251682752184,-9999,4521.0691655,-0.3739471435546875,1.171600341796875,-0.1183013916015625,1,0.97
2020-05-19 13:57:51.978 -0400,1589911071.001417,41.3485416375805,-71.74552467900013,25.75217,20.26617,294.927490234375,3.338108820928422,4.76251682752184,-9999,4521.119062000001,-0.3101043701171875,0.9736785888671875,-0.083587646484375,1,0.97
2020-05-19 13:57:52.028 -0400,1589911071.001417,41.3485416375805,-71.74552467900013,25.75217,20.26617,294.927490234375,3.338108820928422,4.76251682752184,-9999,4521.168958,-0.329437255859375,0.8576507568359375,0.0400390625,1,0.97
2020-05-19 13:57:52.078 -0400,1589911071.001417,41.3485416375805,-71.74552467900013,25.75217,20.26617,294.927490234375,3.338108820928422,4.76251682752184,-9999,4521.218856,-0.3838348388671875,1.281402587890625,-0.135162353515625,1,0.97
2020-05-19 13:57:52.127 -0400,1589911071.001417,41.3485416375805,-71.74552467900013,25.75217,20.26617,294.927490234375,3.338108820928422,4.76251682752184,-9999,4521.268753,-0.2038116455078125,0.94842529296875,-0.1787261962890625,1,0.97
2020-05-19 13:57:52.178 -0400,1589911071.001417,41.3485416375805,-71.74552467900013,25.75217,20.26617,294.927490234375,3.338108820928422,4.76251682752184,-9999,4521.318651000001,-0.2777557373046875,0.8507232666015625,-0.01904296875,1,0.97
2020-05-19 13:57:52.227 -0400,1589911071.001417,41.3485416375805,-71.74552467900013,25.75217,20.26617,294.927490234375,3.338108820928422,4.76251682752184,-9999,4521.368547,-0.3245391845703125,0.799407958984375,-0.0917205810546875,1,0.97
2020-05-19 13:57:52.277 -0400,1589911072.001433,41.3486245804177,-71.74575259331601,26.53871,20.885,294.927490234375,3.32903356897098,4.768864909960564,-9999,4521.418444,-0.317901611328125,1.122039794921875,0.011444091796875,1,0.97
2020-05-19 13:57:52.327 -0400,1589911072.001433,41.3486245804177,-71.74575259331601,26.53871,20.885,294.927490234375,3.32903356897098,4.768864909960564,-9999,4521.46834,-0.3266448974609375,0.935760498046875,-0.0233306884765625,1,0.97
2020-05-19 13:57:52.377 -0400,1589911072.001433,41.3486245804177,-71.74575259331601,26.53871,20.885,294.927490234375,3.32903356897098,4.768864909960564,-9999,4521.518239,-0.3341827392578125,1.14398193359375,-0.051116943359375,1,0.97
2020-05-19 13:57:52.427 -0400,1589911072.001433,41.3486245804177,-71.74575259331601,26.53871,20.885,294.927490234375,3.32903356897098,4.768864909960564,-9999,4521.568136,-0.4199371337890625,1.016403198242188,-0.085479736328125,1,0.97
2020-05-19 13:57:52.477 -0400,1589911072.001433,41.3486245804177,-71.74575259331601,26.53871,20.885,294.927490234375,3.32903356897098,4.768864909960564,-9999,4521.618032,-0.3158111572265625,0.87176513671875,-0.1414642333984375,1,0.97
2020-05-19 13:57:52.527 -0400,1589911072.001433,41.3486245804177,-71.74575259331601,26.53871,20.885,294.927490234375,3.32903356897098,4.768864909960564,-9999,4521.667928,-0.297332763671875,1.063125610351562,-0.1126861572265625,1,0.97
2020-05-19 13:57:52.577 -0400,1589911072.001433,41.3486245804177,-71.74575259331601,26.53871,20.885,294.927490234375,3.32903356897098,4.768864909960564,-9999,4521.717824,-0.32025146484375,0.9747314453125,-0.112884521484375,1,0.97
2020-05-19 13:57:52.626 -0400,1589911072.001433,41.3486245804177,-71.74575259331601,26.53871,20.885,294.927490234375,3.32903356897098,4.768864909960564,-9999,4521.767721,-0.3257904052734375,1.063552856445312,-0.07147216796875,1,0.97
2020-05-19 13:57:52.676 -0400,1589911072.001433,41.3486245804177,-71.74575259331601,26.53871,20.885,294.927490234375,3.32903356897098,4.768864909960564,-9999,4521.817618,-0.3283538818359375,0.9433441162109375,-0.18646240234375,1,0.97
2020-05-19 13:57:52.726 -0400,1589911072.001433,41.3486245804177,-71.74575259331601,26.53871,20.885,294.927490234375,3.32903356897098,4.768864909960564,-9999,4521.867516,-0.2248382568359375,1.110488891601562,-0.187103271484375,1,0.97
2020-05-19 13:57:52.776 -0400,1589911072.001433,41.3486245804177,-71.74575259331601,26.53871,20.885,294.927490234375,3.32903356897098,4.768864909960564,-9999,4521.917412000001,-0.3718414306640625,1.05438232421875,-0.01934814453125,1,0.97
2020-05-19 13:57:52.826 -0400,1589911072.001433,41.3486245804177,-71.74575259331601,26.53871,20.885,294.927490234375,3.32903356897098,4.768864909960564,-9999,4521.967311,-0.3740234375,1.14373779296875,-0.2426910400390625,1,0.97
2020-05-19 13:57:52.876 -0400,1589911072.001433,41.3486245804177,-71.74575259331601,26.53871,20.885,294.927490234375,3.32903356897098,4.768864909960564,-9999,4522.017209000001,-0.43121337890625,1.840087890625,0.0335540771484375,1,0.97
2020-05-19 13:57:52.926 -0400,1589911072.001433,41.3486245804177,-71.74575259331601,26.53871,20.885,294.927490234375,3.32903356897098,4.768864909960564,-9999,4522.067108,-0.0945587158203125,0.38848876953125,-0.1522064208984375,1,0.97
2020-05-19 13:57:52.976 -0400,1589911072.001433,41.3486245804177,-71.74575259331601,26.53871,20.885,294.927490234375,3.32903356897098,4.768864909960564,-9999,4522.1170075,-0.12457275390625,0.5083770751953125,-0.1599884033203125,1,0.97
2020-05-19 13:57:53.026 -0400,1589911072.001433,41.3486245804177,-71.74575259331601,26.53871,20.885,294.927490234375,3.32903356897098,4.768864909960564,-9999,4522.166901500001,-0.1439361572265625,0.8651885986328125,-0.058074951171875,1,0.97
2020-05-19 13:57:53.075 -0400,1589911072.001433,41.3486245804177,-71.74575259331601,26.53871,20.885,294.927490234375,3.32903356897098,4.768864909960564,-9999,4522.2167995,-0.3008270263671875,0.4146881103515625,0.1232757568359375,1,0.97
2020-05-19 13:57:53.125 -0400,1589911072.001433,41.3486245804177,-71.74575259331601,26.53871,20.885,294.927490234375,3.32903356897098,4.768864909960564,-9999,4522.2666925,-0.391510009765625,1.080841064453125,-0.090362548828125,1,0.97
2020-05-19 13:57:53.175 -0400,1589911072.001433,41.3486245804177,-71.74575259331601,26.53871,20.885,294.927490234375,3.32903356897098,4.768864909960564,-9999,4522.3165875,-0.2108154296875,1.03125,-0.1592864990234375,1,0.97
2020-05-19 13:57:53.225 -0400,1589911072.001433,41.3486245804177,-71.74575259331601,26.53871,20.885,294.927490234375,3.32903356897098,4.768864909960564,-9999,4522.3664865,-0.352813720703125,0.78582763671875,-0.032684326171875,1,0.97
2020-05-19 13:57:53.275 -0400,1589911073.001446,41.34871109488407,-71.74598641060109,27.31372,21.46324,294.927490234375,3.306184879669147,4.784733908404514,-9999,4522.4163805,-0.34881591796875,0.7696380615234375,-0.1634979248046875,1,0.97
2020-05-19 13:57:53.325 -0400,1589911073.001446,41.34871109488407,-71.74598641060109,27.31372,21.46324,294.927490234375,3.306184879669147,4.784733908404514,-9999,4522.4662735,-0.1381072998046875,0.76922607421875,-0.1298980712890625,1,0.97
2020-05-19 13:57:53.375 -0400,1589911073.001446,41.34871109488407,-71.74598641060109,27.31372,21.46324,294.927490234375,3.306184879669147,4.784733908404514,-9999,4522.516169500001,-0.216033935546875,1.0386962890625,-0.1650390625,1,0.97
2020-05-19 13:57:53.425 -0400,1589911073.001446,41.34871109488407,-71.74598641060109,27.31372,21.46324,294.927490234375,3.306184879669147,4.784733908404514,-9999,4522.5660635,-0.3613128662109375,0.970733642578125,-0.004180908203125,1,0.97
2020-05-19 13:57:53.475 -0400,1589911073.001446,41.34871109488407,-71.74598641060109,27.31372,21.46324,294.927490234375,3.306184879669147,4.784733908404514,-9999,4522.615956500001,-0.35308837890625,1.2891845703125,-0.1103668212890625,1,0.97
2020-05-19 13:57:53.525 -0400,1589911073.001446,41.34871109488407,-71.74598641060109,27.31372,21.46324,294.927490234375,3.306184879669147,4.784733908404514,-9999,4522.6658505,-0.3708953857421875,1.072616577148438,-0.1187744140625,1,0.97
2020-05-19 13:57:53.575 -0400,1589911073.001446,41.34871109488407,-71.74598641060109,27.31372,21.46324,294.927490234375,3.306184879669147,4.784733908404514,-9999,4522.7157465,-0.3256072998046875,0.890625,-0.1283721923828125,1,0.97
2020-05-19 13:57:53.624 -0400,1589911073.001446,41.34871109488407,-71.74598641060109,27.31372,21.46324,294.927490234375,3.306184879669147,4.784733908404514,-9999,4522.7656425,-0.190765380859375,1.105499267578125,-0.1253814697265625,1,0.97
2020-05-19 13:57:53.674 -0400,1589911073.001446,41.34871109488407,-71.74598641060109,27.31372,21.46324,294.927490234375,3.306184879669147,4.784733908404514,-9999,4522.8155385,-0.18817138671875,0.60858154296875,-0.1373138427734375,1,0.97
2020-05-19 13:57:53.724 -0400,1589911073.001446,41.34871109488407,-71.74598641060109,27.31372,21.46324,294.927490234375,3.306184879669147,4.784733908404514,-9999,4522.8654335,-0.2463531494140625,0.9458770751953125,-0.0666656494140625,1,0.97
2020-05-19 13:57:53.774 -0400,1589911073.001446,41.34871109488407,-71.74598641060109,27.31372,21.46324,294.927490234375,3.306184879669147,4.784733908404514,-9999,4522.9153285,-0.3201751708984375,1.23089599609375,-0.0715789794921875,1,0.97
2020-05-19 13:57:53.824 -0400,1589911073.001446,41.34871109488407,-71.74598641060109,27.31372,21.46324,294.927490234375,3.306184879669147,4.784733908404514,-9999,4522.9652205,-0.183868408203125,0.7086944580078125,-0.05133056640625,1,0.97
2020-05-19 13:57:53.874 -0400,1589911073.001446,41.34871109488407,-71.74598641060109,27.31372,21.46324,294.927490234375,3.306184879669147,4.784733908404514,-9999,4523.015116500001,-0.130889892578125,0.5472259521484375,-0.0493927001953125,1,0.97
2020-05-19 13:57:53.924 -0400,1589911073.001446,41.34871109488407,-71.74598641060109,27.31372,21.46324,294.927490234375,3.306184879669147,4.784733908404514,-9999,4523.0650115,-0.2471923828125,1.179244995117188,0.0388336181640625,1,0.97
2020-05-19 13:57:53.974 -0400,1589911073.001446,41.34871109488407,-71.74598641060109,27.31372,21.46324,294.927490234375,3.306184879669147,4.784733908404514,-9999,4523.114908625001,-0.2986297607421875,0.566314697265625,-0.1047210693359375,1,0.97
2020-05-19 13:57:54.023 -0400,1589911073.001446,41.34871109488407,-71.74598641060109,27.31372,21.46324,294.927490234375,3.306184879669147,4.784733908404514,-9999,4523.164803625,-0.324981689453125,1.224990844726562,0.0236968994140625,1,0.97
2020-05-19 13:57:54.073 -0400,1589911073.001446,41.34871109488407,-71.74598641060109,27.31372,21.46324,294.927490234375,3.306184879669147,4.784733908404514,-9999,4523.214699625,-0.2076416015625,0.8309173583984375,-0.1550445556640625,1,0.97
2020-05-19 13:57:54.123 -0400,1589911073.001446,41.34871109488407,-71.74598641060109,27.31372,21.46324,294.927490234375,3.306184879669147,4.784733908404514,-9999,4523.264592625001,-0.2464752197265625,0.9702606201171875,-0.04779052734375,1,0.97
2020-05-19 13:57:54.173 -0400,1589911073.001446,41.34871109488407,-71.74598641060109,27.31372,21.46324,294.927490234375,3.306184879669147,4.784733908404514,-9999,4523.314487625,-0.211212158203125,0.849273681640625,-0.0707855224609375,1,0.97
2020-05-19 13:57:54.223 -0400,1589911073.001446,41.34871109488407,-71.74598641060109,27.31372,21.46324,294.927490234375,3.306184879669147,4.784733908404514,-9999,4523.364383625,-0.173919677734375,0.8958282470703125,-0.120025634765625,1,0.97
2020-05-19 13:57:54.273 -0400,1589911074.001462,41.34879758843329,-71.74622295738756,28.89201,22.00312,294.927490234375,3.275095634465124,4.806067583575612,-9999,4523.414280625,-0.1776580810546875,0.6947479248046875,-0.1468963623046875,1,0.97
2020-05-19 13:57:54.323 -0400,1589911074.001462,41.34879758843329,-71.74622295738756,28.89201,22.00312,294.927490234375,3.275095634465124,4.806067583575612,-9999,4523.464179625001,-0.22283935546875,0.919921875,-0.012786865234375,1,0.97
2020-05-19 13:57:54.373 -0400,1589911074.001462,41.34879758843329,-71.74622295738756,28.89201,22.00312,294.927490234375,3.275095634465124,4.806067583575612,-9999,4523.514076625001,-0.1441650390625,0.7459716796875,-0.12786865234375,1,0.97
2020-05-19 13:57:54.423 -0400,1589911074.001462,41.34879758843329,-71.74622295738756,28.89201,22.00312,294.927490234375,3.275095634465124,4.806067583575612,-9999,4523.563975625,-0.2313690185546875,0.9871978759765625,-0.0579376220703125,1,0.97
2020-05-19 13:57:54.473 -0400,1589911074.001462,41.34879758843329,-71.74622295738756,28.89201,22.00312,294.927490234375,3.275095634465124,4.806067583575612,-9999,4523.613872625,-0.2732696533203125,0.8283538818359375,-0.0955810546875,1,0.97
2020-05-19 13:57:54.522 -0400,1589911074.001462,41.34879758843329,-71.74622295738756,28.89201,22.00312,294.927490234375,3.275095634465124,4.806067583575612,-9999,4523.663768625001,-0.3028411865234375,1.015975952148438,-0.1125030517578125,1,0.97
2020-05-19 13:57:54.572 -0400,1589911074.001462,41.34879758843329,-71.74622295738756,28.89201,22.00312,294.927490234375,3.275095634465124,4.806067583575612,-9999,4523.713662625,-0.252899169921875,0.9863433837890625,-0.167572021484375,1,0.97
2020-05-19 13:57:54.622 -0400,1589911074.001462,41.34879758843329,-71.74622295738756,28.89201,22.00312,294.927490234375,3.275095634465124,4.806067583575612,-9999,4523.763550625,-0.2339019775390625,1.002227783203125,-0.0983428955078125,1,0.97
2020-05-19 13:57:54.672 -0400,1589911074.001462,41.34879758843329,-71.74622295738756,28.89201,22.00312,294.927490234375,3.275095634465124,4.806067583575612,-9999,4523.813441625,-0.28277587890625,0.859222412109375,-0.1889495849609375,1,0.97
2020-05-19 13:57:54.722 -0400,1589911074.001462,41.34879758843329,-71.74622295738756,28.89201,22.00312,294.927490234375,3.275095634465124,4.806067583575612,-9999,4523.863333625,-0.25494384765625,1.074508666992188,-0.1139984130859375,1,0.97
2020-05-19 13:57:54.772 -0400,1589911074.001462,41.34879758843329,-71.74622295738756,28.89201,22.00312,294.927490234375,3.275095634465124,4.806067583575612,-9999,4523.913222625,-0.2238006591796875,0.8588104248046875,-0.1507720947265625,1,0.97
2020-05-19 13:57:54.822 -0400,1589911074.001462,41.34879758843329,-71.74622295738756,28.89201,22.00312,294.927490234375,3.275095634465124,4.806067583575612,-9999,4523.963115625001,-0.24615478515625,0.8189849853515625,-0.0756072998046875,1,0.97
2020-05-19 13:57:54.872 -0400,1589911074.001462,41.34879758843329,-71.74622295738756,28.89201,22.00312,294.927490234375,3.275095634465124,4.806067583575612,-9999,4524.013009625,-0.251373291015625,0.7868194580078125,-0.1169891357421875,1,0.97
2020-05-19 13:57:54.922 -0400,1589911074.001462,41.34879758843329,-71.74622295738756,28.89201,22.00312,294.927490234375,3.275095634465124,4.806067583575612,-9999,4524.062900625,-0.2277069091796875,0.9737396240234375,-0.098968505859375,1,0.97
2020-05-19 13:57:54.971 -0400,1589911074.001462,41.34879758843329,-71.74622295738756,28.89201,22.00312,294.927490234375,3.275095634465124,4.806067583575612,-9999,4524.112792625,-0.267852783203125,0.899993896484375,-0.12457275390625,1,0.97
2020-05-19 13:57:55.021 -0400,1589911074.001462,41.34879758843329,-71.74622295738756,28.89201,22.00312,294.927490234375,3.275095634465124,4.806067583575612,-9999,4524.162684625,-0.3012237548828125,0.95001220703125,-0.0831756591796875,1,0.97
2020-05-19 13:57:55.071 -0400,1589911074.001462,41.34879758843329,-71.74622295738756,28.89201,22.00312,294.927490234375,3.275095634465124,4.806067583575612,-9999,4524.212579625,-0.2544097900390625,0.91387939453125,-0.1775665283203125,1,0.97
2020-05-19 13:57:55.121 -0400,1589911074.001462,41.34879758843329,-71.74622295738756,28.89201,22.00312,294.927490234375,3.275095634465124,4.806067583575612,-9999,4524.262475625001,-0.2253875732421875,0.96636962890625,-0.1261138916015625,1,0.97
2020-05-19 13:57:55.171 -0400,1589911074.001462,41.34879758843329,-71.74622295738756,28.89201,22.00312,294.927490234375,3.275095634465124,4.806067583575612,-9999,4524.312369625,-0.2487030029296875,0.7914886474609375,-0.190216064453125,1,0.97
2020-05-19 13:57:55.221 -0400,1589911074.001462,41.34879758843329,-71.74622295738756,28.89201,22.00312,294.927490234375,3.275095634465124,4.806067583575612,-9999,4524.362266625,-0.2664031982421875,0.9228973388671875,-0.1129913330078125,1,0.97
2020-05-19 13:57:55.271 -0400,1589911075.001477,41.34888439644593,-71.74646315042877,30.02833,21.99639,295.0231018066406,3.283163169184607,4.800560033714663,-9999,4524.412160625,-0.22723388671875,0.9392242431640625,-0.1531219482421875,1,0.97
2020-05-19 13:57:55.321 -0400,1589911075.001477,41.34888439644593,-71.74646315042877,30.02833,21.99639,295.0231018066406,3.283163169184607,4.800560033714663,-9999,4524.462052625,-0.3176422119140625,1.104598999023438,0.014678955078125,1,0.97
2020-05-19 13:57:55.371 -0400,1589911075.001477,41.34888439644593,-71.74646315042877,30.02833,21.99639,295.0231018066406,3.283163169184607,4.800560033714663,-9999,4524.511945625,-0.2194061279296875,0.7927398681640625,-0.042572021484375,1,0.97
2020-05-19 13:57:55.421 -0400,1589911075.001477,41.34888439644593,-71.74646315042877,30.02833,21.99639,295.0231018066406,3.283163169184607,4.800560033714663,-9999,4524.561838625,-0.2172698974609375,0.9062347412109375,-0.130035400390625,1,0.97
2020-05-19 13:57:55.470 -0400,1589911075.001477,41.34888439644593,-71.74646315042877,30.02833,21.99639,295.0231018066406,3.283163169184607,4.800560033714663,-9999,4524.611732625001,-0.308135986328125,0.88140869140625,-0.08831787109375,1,0.97
2020-05-19 13:57:55.520 -0400,1589911075.001477,41.34888439644593,-71.74646315042877,30.02833,21.99639,295.0231018066406,3.283163169184607,4.800560033714663,-9999,4524.661627625001,-0.2936248779296875,1.257110595703125,-0.1522979736328125,1,0.97
2020-05-19 13:57:55.570 -0400,1589911075.001477,41.34888439644593,-71.74646315042877,30.02833,21.99639,295.0231018066406,3.283163169184607,4.800560033714663,-9999,4524.711518625,-0.3037109375,1.031326293945312,-0.1407470703125,1,0.97
2020-05-19 13:57:55.620 -0400,1589911075.001477,41.34888439644593,-71.74646315042877,30.02833,21.99639,295.0231018066406,3.283163169184607,4.800560033714663,-9999,4524.761412625,-0.258758544921875,0.9247589111328125,-0.0815277099609375,1,0.97
2020-05-19 13:57:55.670 -0400,1589911075.001477,41.34888439644593,-71.74646315042877,30.02833,21.99639,295.0231018066406,3.283163169184607,4.800560033714663,-9999,4524.811301625,-0.26165771484375,0.740478515625,-0.1297454833984375,1,0.97
2020-05-19 13:57:55.720 -0400,1589911075.001477,41.34888439644593,-71.74646315042877,30.02833,21.99639,295.0231018066406,3.283163169184607,4.800560033714663,-9999,4524.861192625001,-0.2355499267578125,0.8945159912109375,-0.1182708740234375,1,0.97
2020-05-19 13:57:55.770 -0400,1589911075.001477,41.34888439644593,-71.74646315042877,30.02833,21.99639,295.0231018066406,3.283163169184607,4.800560033714663,-9999,4524.911085625,-0.2490692138671875,0.86614990234375,-0.09423828125,1,0.97
2020-05-19 13:57:55.820 -0400,1589911075.001477,41.34888439644593,-71.74646315042877,30.02833,21.99639,295.0231018066406,3.283163169184607,4.800560033714663,-9999,4524.960977625,-0.2068328857421875,0.9157562255859375,-0.112457275390625,1,0.97
2020-05-19 13:57:55.870 -0400,1589911075.001477,41.34888439644593,-71.74646315042877,30.02833,21.99639,295.0231018066406,3.283163169184607,4.800560033714663,-9999,4525.010867625,-0.2779998779296875,0.9543914794921875,0.0007476806640625,1,0.97
2020-05-19 13:57:55.919 -0400,1589911075.001477,41.34888439644593,-71.74646315042877,30.02833,21.99639,295.0231018066406,3.283163169184607,4.800560033714663,-9999,4525.060758625,-0.245330810546875,1.034942626953125,-0.086456298828125,1,0.97
2020-05-19 13:57:55.969 -0400,1589911075.001477,41.34888439644593,-71.74646315042877,30.02833,21.99639,295.0231018066406,3.283163169184607,4.800560033714663,-9999,4525.110648875,-0.331787109375,1.010986328125,-0.046844482421875,1,0.97
2020-05-19 13:57:56.019 -0400,1589911075.001477,41.34888439644593,-71.74646315042877,30.02833,21.99639,295.0231018066406,3.283163169184607,4.800560033714663,-9999,4525.160540875,-0.288970947265625,0.9700164794921875,-0.0615386962890625,1,0.97
2020-05-19 13:57:56.069 -0400,1589911075.001477,41.34888439644593,-71.74646315042877,30.02833,21.99639,295.0231018066406,3.283163169184607,4.800560033714663,-9999,4525.210430875,-0.3023834228515625,0.9732818603515625,-0.050933837890625,1,0.97
2020-05-19 13:57:56.119 -0400,1589911075.001477,41.34888439644593,-71.74646315042877,30.02833,21.99639,295.0231018066406,3.283163169184607,4.800560033714663,-9999,4525.260323875001,-0.222412109375,0.94696044921875,-0.0393524169921875,1,0.97
2020-05-19 13:57:56.169 -0400,1589911075.001477,41.34888439644593,-71.74646315042877,30.02833,21.99639,295.0231018066406,3.283163169184607,4.800560033714663,-9999,4525.310216875,-0.237152099609375,0.8820037841796875,-0.0343170166015625,1,0.97
2020-05-19 13:57:56.219 -0400,1589911075.001477,41.34888439644593,-71.74646315042877,30.02833,21.99639,295.0231018066406,3.283163169184607,4.800560033714663,-9999,4525.360110875,-0.259307861328125,0.990966796875,-0.0538787841796875,1,0.97
2020-05-19 13:57:56.269 -0400,1589911075.001477,41.34888439644593,-71.74646315042877,30.02833,21.99639,295.0231018066406,3.283163169184607,4.800560033714663,-9999,4525.410004875001,-0.2552642822265625,0.79986572265625,-0.0391082763671875,1,0.97
2020-05-19 13:57:56.319 -0400,1589911075.001477,41.34888439644593,-71.74646315042877,30.02833,21.99639,295.0231018066406,3.283163169184607,4.800560033714663,-9999,4525.459895875,-0.2333221435546875,0.8955078125,-0.059722900390625,1,0.97
2020-05-19 13:57:56.369 -0400,1589911076.001492,41.34897296522947,-71.74670717561237,30.81002,22.08721,295.0231018066406,3.263811072685073,4.813738081222029,-9999,4525.509789875,-0.2158203125,0.631500244140625,-0.02044677734375,1,0.97
2020-05-19 13:57:56.419 -0400,1589911076.001492,41.34897296522947,-71.74670717561237,30.81002,22.08721,295.0231018066406,3.263811072685073,4.813738081222029,-9999,4525.559681875,-0.2529754638671875,1.135208129882812,-0.1081390380859375,1,0.97
2020-05-19 13:57:56.468 -0400,1589911076.001492,41.34897296522947,-71.74670717561237,30.81002,22.08721,295.0231018066406,3.263811072685073,4.813738081222029,-9999,4525.609572875001,-0.3527374267578125,1.038421630859375,-0.0037078857421875,1,0.97
2020-05-19 13:57:56.518 -0400,1589911076.001492,41.34897296522947,-71.74670717561237,30.81002,22.08721,295.0231018066406,3.263811072685073,4.813738081222029,-9999,4525.659463875,-0.246337890625,1.025833129882812,-0.2255096435546875,1,0.97
2020-05-19 13:57:56.568 -0400,1589911076.001492,41.34897296522947,-71.74670717561237,30.81002,22.08721,295.0231018066406,3.263811072685073,4.813738081222029,-9999,4525.709353875,-0.3044891357421875,0.794219970703125,-0.0107574462890625,1,0.97
2020-05-19 13:57:56.619 -0400,1589911076.001492,41.34897296522947,-71.74670717561237,30.81002,22.08721,295.0231018066406,3.263811072685073,4.813738081222029,-9999,4525.759245875,-0.193756103515625,1.019638061523438,-0.123077392578125,1,0.97
2020-05-19 13:57:56.668 -0400,1589911076.001492,41.34897296522947,-71.74670717561237,30.81002,22.08721,295.0231018066406,3.263811072685073,4.813738081222029,-9999,4525.809136875,-0.275146484375,0.8740997314453125,-0.0016326904296875,1,0.97
2020-05-19 13:57:56.718 -0400,1589911076.001492,41.34897296522947,-71.74670717561237,30.81002,22.08721,295.0231018066406,3.263811072685073,4.813738081222029,-9999,4525.859029875,-0.2354583740234375,0.8921356201171875,-0.1150054931640625,1,0.97
2020-05-19 13:57:56.768 -0400,1589911076.001492,41.34897296522947,-71.74670717561237,30.81002,22.08721,295.0231018066406,3.263811072685073,4.813738081222029,-9999,4525.908923875,-0.2349090576171875,0.911865234375,-0.0863037109375,1,0.97
2020-05-19 13:57:56.818 -0400,1589911076.001492,41.34897296522947,-71.74670717561237,30.81002,22.08721,295.0231018066406,3.263811072685073,4.813738081222029,-9999,4525.958818875,-0.2572784423828125,0.8895416259765625,-0.150177001953125,1,0.97
2020-05-19 13:57:56.867 -0400,1589911076.001492,41.34897296522947,-71.74670717561237,30.81002,22.08721,295.0231018066406,3.263811072685073,4.813738081222029,-9999,4526.008711875001,-0.3146209716796875,0.8368377685546875,-0.064605712890625,1,0.97
2020-05-19 13:57:56.917 -0400,1589911076.001492,41.34897296522947,-71.74670717561237,30.81002,22.08721,295.0231018066406,3.263811072685073,4.813738081222029,-9999,4526.058605875,-0.2375030517578125,0.9413909912109375,-0.158935546875,1,0.97
2020-05-19 13:57:56.967 -0400,1589911076.001492,41.34897296522947,-71.74670717561237,30.81002,22.08721,295.0231018066406,3.263811072685073,4.813738081222029,-9999,4526.108498500001,-0.26513671875,0.91607666015625,-0.1120147705078125,1,0.97
2020-05-19 13:57:57.017 -0400,1589911076.001492,41.34897296522947,-71.74670717561237,30.81002,22.08721,295.0231018066406,3.263811072685073,4.813738081222029,-9999,4526.158387500001,-0.2635650634765625,0.8649749755859375,-0.2131195068359375,1,0.97
2020-05-19 13:57:57.067 -0400,1589911076.001492,41.34897296522947,-71.74670717561237,30.81002,22.08721,295.0231018066406,3.263811072685073,4.813738081222029,-9999,4526.2082805,-0.2852935791015625,0.9898529052734375,-0.0849456787109375,1,0.97
2020-05-19 13:57:57.117 -0400,1589911076.001492,41.34897296522947,-71.74670717561237,30.81002,22.08721,295.0231018066406,3.263811072685073,4.813738081222029,-9999,4526.2581725,-0.2649383544921875,0.8654327392578125,-0.116119384765625,1,0.97
2020-05-19 13:57:57.167 -0400,1589911076.001492,41.34897296522947,-71.74670717561237,30.81002,22.08721,295.0231018066406,3.263811072685073,4.813738081222029,-9999,4526.3080615,-0.249267578125,1.03924560546875,-0.065673828125,1,0.97
2020-05-19 13:57:57.217 -0400,1589911076.001492,41.34897296522947,-71.74670717561237,30.81002,22.08721,295.0231018066406,3.263811072685073,4.813738081222029,-9999,4526.3579515,-0.293670654296875,0.89251708984375,-0.109619140625,1,0.97
2020-05-19 13:57:57.267 -0400,1589911076.001492,41.34897296522947,-71.74670717561237,30.81002,22.08721,295.0231018066406,3.263811072685073,4.813738081222029,-9999,4526.4078415,-0.257049560546875,1.005447387695312,-0.079498291015625,1,0.97
2020-05-19 13:57:57.322 -0400,1589911077.001507,41.34905996505393,-71.74695408777144,31.69268,22.20796,295.0231018066406,3.261916938217102,4.815021798596679,-9999,4526.4577325,-0.216064453125,0.9755859375,-0.0364227294921875,1,0.97
2020-05-19 13:57:57.366 -0400,1589911077.001507,41.34905996505393,-71.74695408777144,31.69268,22.20796,295.0231018066406,3.261916938217102,4.815021798596679,-9999,4526.5076215,-0.1163330078125,0.922271728515625,-0.03619384765625,1,0.97
2020-05-19 13:57:57.416 -0400,1589911077.001507,41.34905996505393,-71.74695408777144,31.69268,22.20796,295.0231018066406,3.261916938217102,4.815021798596679,-9999,4526.5575135,-0.224822998046875,0.8096160888671875,-0.0659027099609375,1,0.97
2020-05-19 13:57:57.466 -0400,1589911077.001507,41.34905996505393,-71.74695408777144,31.69268,22.20796,295.0231018066406,3.261916938217102,4.815021798596679,-9999,4526.607407500001,-0.3074493408203125,1.051422119140625,-0.0721893310546875,1,0.97
2020-05-19 13:57:57.516 -0400,1589911077.001507,41.34905996505393,-71.74695408777144,31.69268,22.20796,295.0231018066406,3.261916938217102,4.815021798596679,-9999,4526.6573045,-0.342498779296875,0.788330078125,-0.077056884765625,1,0.97
2020-05-19 13:57:57.566 -0400,1589911077.001507,41.34905996505393,-71.74695408777144,31.69268,22.20796,295.0231018066406,3.261916938217102,4.815021798596679,-9999,4526.7072005,-0.2379913330078125,0.955291748046875,-0.1682586669921875,1,0.97
2020-05-19 13:57:57.616 -0400,1589911077.001507,41.34905996505393,-71.74695408777144,31.69268,22.20796,295.0231018066406,3.261916938217102,4.815021798596679,-9999,4526.757094500001,-0.2742462158203125,0.834869384765625,-0.0591583251953125,1,0.97
2020-05-19 13:57:57.666 -0400,1589911077.001507,41.34905996505393,-71.74695408777144,31.69268,22.20796,295.0231018066406,3.261916938217102,4.815021798596679,-9999,4526.8069875,-0.240966796875,1.108322143554688,-0.081512451171875,1,0.97
2020-05-19 13:57:57.716 -0400,1589911077.001507,41.34905996505393,-71.74695408777144,31.69268,22.20796,295.0231018066406,3.261916938217102,4.815021798596679,-9999,4526.8568825,-0.2650146484375,0.90625,-0.1132965087890625,1,0.97
2020-05-19 13:57:57.766 -0400,1589911077.001507,41.34905996505393,-71.74695408777144,31.69268,22.20796,295.0231018066406,3.261916938217102,4.815021798596679,-9999,4526.9067795,-0.2741851806640625,1.022689819335938,-0.0592803955078125,1,0.97
2020-05-19 13:57:57.815 -0400,1589911077.001507,41.34905996505393,-71.74695408777144,31.69268,22.20796,295.0231018066406,3.261916938217102,4.815021798596679,-9999,4526.9566745,-0.29058837890625,0.9980010986328125,-0.0990142822265625,1,0.97
2020-05-19 13:57:57.865 -0400,1589911077.001507,41.34905996505393,-71.74695408777144,31.69268,22.20796,295.0231018066406,3.261916938217102,4.815021798596679,-9999,4527.0065655,-0.273284912109375,0.9622039794921875,-0.1576690673828125,1,0.97
2020-05-19 13:57:57.915 -0400,1589911077.001507,41.34905996505393,-71.74695408777144,31.69268,22.20796,295.0231018066406,3.261916938217102,4.815021798596679,-9999,4527.0564575,-0.3007354736328125,1.098007202148438,-0.0399932861328125,1,0.97
2020-05-19 13:57:57.965 -0400,1589911077.001507,41.34905996505393,-71.74695408777144,31.69268,22.20796,295.0231018066406,3.261916938217102,4.815021798596679,-9999,4527.106351166667,-0.2689361572265625,1.093597412109375,-0.1144256591796875,1,0.97
2020-05-19 13:57:58.015 -0400,1589911077.001507,41.34905996505393,-71.74695408777144,31.69268,22.20796,295.0231018066406,3.261916938217102,4.815021798596679,-9999,4527.156246166667,-0.29522705078125,0.979278564453125,-0.0490264892578125,1,0.97
2020-05-19 13:57:58.065 -0400,1589911077.001507,41.34905996505393,-71.74695408777144,31.69268,22.20796,295.0231018066406,3.261916938217102,4.815021798596679,-9999,4527.206143166667,-0.2907562255859375,1.1961669921875,-0.1282501220703125,1,0.97
2020-05-19 13:57:58.115 -0400,1589911077.001507,41.34905996505393,-71.74695408777144,31.69268,22.20796,295.0231018066406,3.261916938217102,4.815021798596679,-9999,4527.256039166667,-0.29974365234375,1.170867919921875,-0.112091064453125,1,0.97
2020-05-19 13:57:58.165 -0400,1589911077.001507,41.34905996505393,-71.74695408777144,31.69268,22.20796,295.0231018066406,3.261916938217102,4.815021798596679,-9999,4527.305936166667,0.0846405029296875,0.57635498046875,-0.12017822265625,1,0.97
2020-05-19 13:57:58.215 -0400,1589911077.001507,41.34905996505393,-71.74695408777144,31.69268,22.20796,295.0231018066406,3.261916938217102,4.815021798596679,-9999,4527.355834166667,-0.39324951171875,0.4832305908203125,0.078094482421875,1,0.97
2020-05-19 13:57:58.264 -0400,1589911078.001552,41.34914679151585,-71.74720249668371,32.40656,22.36362,295.0231018066406,3.25219471253722,4.821593780539147,-9999,4527.405732166667,-0.389251708984375,0.6329345703125,-0.3154754638671875,1,0.97
2020-05-19 13:57:58.314 -0400,1589911078.001552,41.34914679151585,-71.74720249668371,32.40656,22.36362,295.0231018066406,3.25219471253722,4.821593780539147,-9999,4527.455628166667,-0.111114501953125,2.00018310546875,-0.05780029296875,1,0.97
2020-05-19 13:57:58.364 -0400,1589911078.001552,41.34914679151585,-71.74720249668371,32.40656,22.36362,295.0231018066406,3.25219471253722,4.821593780539147,-9999,4527.505522166667,0.005950927734375,0.5928192138671875,-0.312835693359375,1,0.97
2020-05-19 13:57:58.414 -0400,1589911078.001552,41.34914679151585,-71.74720249668371,32.40656,22.36362,295.0231018066406,3.25219471253722,4.821593780539147,-9999,4527.555419166667,-0.4126739501953125,1.244125366210938,0.112060546875,1,0.97
2020-05-19 13:57:58.464 -0400,1589911078.001552,41.34914679151585,-71.74720249668371,32.40656,22.36362,295.0231018066406,3.25219471253722,4.821593780539147,-9999,4527.605317166667,-0.19647216796875,1.011123657226562,-0.2779998779296875,1,0.97
2020-05-19 13:57:58.514 -0400,1589911078.001552,41.34914679151585,-71.74720249668371,32.40656,22.36362,295.0231018066406,3.25219471253722,4.821593780539147,-9999,4527.655218166667,-0.2235260009765625,1.089736938476562,0.107879638671875,1,0.97
2020-05-19 13:57:58.564 -0400,1589911078.001552,41.34914679151585,-71.74720249668371,32.40656,22.36362,295.0231018066406,3.25219471253722,4.821593780539147,-9999,4527.705118166667,-0.19598388671875,0.9185638427734375,-0.1564483642578125,1,0.97
2020-05-19 13:57:58.614 -0400,1589911078.001552,41.34914679151585,-71.74720249668371,32.40656,22.36362,295.0231018066406,3.25219471253722,4.821593780539147,-9999,4527.755016166667,-0.2230377197265625,0.935302734375,-0.1341705322265625,1,0.97
2020-05-19 13:57:58.664 -0400,1589911078.001552,41.34914679151585,-71.74720249668371,32.40656,22.36362,295.0231018066406,3.25219471253722,4.821593780539147,-9999,4527.804917166667,-0.30615234375,0.7758331298828125,-0.0375213623046875,1,0.97
2020-05-19 13:57:58.713 -0400,1589911078.001552,41.34914679151585,-71.74720249668371,32.40656,22.36362,295.0231018066406,3.25219471253722,4.821593780539147,-9999,4527.854811166667,-0.3350830078125,1.1705322265625,-0.088836669921875,1,0.97
2020-05-19 13:57:58.764 -0400,1589911078.001552,41.34914679151585,-71.74720249668371,32.40656,22.36362,295.0231018066406,3.25219471253722,4.821593780539147,-9999,4527.904706166667,-0.2790069580078125,1.007080078125,-0.1098175048828125,1,0.97
2020-05-19 13:57:58.813 -0400,1589911078.001552,41.34914679151585,-71.74720249668371,32.40656,22.36362,295.0231018066406,3.25219471253722,4.821593780539147,-9999,4527.954602166667,-0.1656646728515625,0.836334228515625,-0.1075286865234375,1,0.97
2020-05-19 13:57:58.863 -0400,1589911078.001552,41.34914679151585,-71.74720249668371,32.40656,22.36362,295.0231018066406,3.25219471253722,4.821593780539147,-9999,4528.004497166667,-0.2871551513671875,0.9750823974609375,-0.020721435546875,1,0.97
2020-05-19 13:57:58.913 -0400,1589911078.001552,41.34914679151585,-71.74720249668371,32.40656,22.36362,295.0231018066406,3.25219471253722,4.821593780539147,-9999,4528.054394166666,-0.338134765625,1.152420043945312,-0.1509246826171875,1,0.97
2020-05-19 13:57:58.963 -0400,1589911078.001552,41.34914679151585,-71.74720249668371,32.40656,22.36362,295.0231018066406,3.25219471253722,4.821593780539147,-9999,4528.1042935,-0.30029296875,1.12811279296875,-0.0875244140625,1,0.97
2020-05-19 13:57:59.013 -0400,1589911078.001552,41.34914679151585,-71.74720249668371,32.40656,22.36362,295.0231018066406,3.25219471253722,4.821593780539147,-9999,4528.1541935,-0.1657867431640625,0.7997283935546875,-0.1301422119140625,1,0.97
2020-05-19 13:57:59.063 -0400,1589911078.001552,41.34914679151585,-71.74720249668371,32.40656,22.36362,295.0231018066406,3.25219471253722,4.821593780539147,-9999,4528.2040905,-0.1639556884765625,0.6853179931640625,-0.0503387451171875,1,0.97
2020-05-19 13:57:59.113 -0400,1589911078.001552,41.34914679151585,-71.74720249668371,32.40656,22.36362,295.0231018066406,3.25219471253722,4.821593780539147,-9999,4528.2539845,-0.0852813720703125,0.92578125,-0.1020355224609375,1,0.97
2020-05-19 13:57:59.163 -0400,1589911078.001552,41.34914679151585,-71.74720249668371,32.40656,22.36362,295.0231018066406,3.25219471253722,4.821593780539147,-9999,4528.303880500001,-0.1517486572265625,0.8511810302734375,-0.110565185546875,1,0.97
2020-05-19 13:57:59.213 -0400,1589911078.001552,41.34914679151585,-71.74720249668371,32.40656,22.36362,295.0231018066406,3.25219471253722,4.821593780539147,-9999,4528.3537765,-0.2194976806640625,0.9404296875,-0.0777130126953125,1,0.97
2020-05-19 13:57:59.262 -0400,1589911078.001552,41.34914679151585,-71.74720249668371,32.40656,22.36362,295.0231018066406,3.25219471253722,4.821593780539147,-9999,4528.4036735,-0.2647705078125,0.96820068359375,-0.110137939453125,1,0.97
2020-05-19 13:57:59.312 -0400,1589911078.001552,41.34914679151585,-71.74720249668371,32.40656,22.36362,295.0231018066406,3.25219471253722,4.821593780539147,-9999,4528.4535705,-0.220367431640625,1.128189086914062,-0.1170806884765625,1,0.97
2020-05-19 13:57:59.362 -0400,1589911079.001536,41.34923444285037,-71.747450036852,33.25066,22.39627,295.0231018066406,3.245689789776646,4.825975012505604,-9999,4528.503467500001,-0.2127838134765625,0.9761962890625,-0.1056060791015625,1,0.97
2020-05-19 13:57:59.412 -0400,1589911079.001536,41.34923444285037,-71.747450036852,33.25066,22.39627,295.0231018066406,3.245689789776646,4.825975012505604,-9999,4528.5533655,-0.1355743408203125,0.866851806640625,-0.1161346435546875,1,0.97
2020-05-19 13:57:59.462 -0400,1589911079.001536,41.34923444285037,-71.747450036852,33.25066,22.39627,295.0231018066406,3.245689789776646,4.825975012505604,-9999,4528.603262500001,-0.1003265380859375,0.83935546875,-0.0893402099609375,1,0.97
2020-05-19 13:57:59.512 -0400,1589911079.001536,41.34923444285037,-71.747450036852,33.25066,22.39627,295.0231018066406,3.245689789776646,4.825975012505604,-9999,4528.6531585,-0.1283721923828125,0.8870086669921875,-0.09466552734375,1,0.97
2020-05-19 13:57:59.562 -0400,1589911079.001536,41.34923444285037,-71.747450036852,33.25066,22.39627,295.0231018066406,3.245689789776646,4.825975012505604,-9999,4528.7030535,-0.15850830078125,1.063034057617188,-0.0728302001953125,1,0.97
2020-05-19 13:57:59.612 -0400,1589911079.001536,41.34923444285037,-71.747450036852,33.25066,22.39627,295.0231018066406,3.245689789776646,4.825975012505604,-9999,4528.7529505,-0.090667724609375,0.93267822265625,-0.202392578125,1,0.97
2020-05-19 13:57:59.662 -0400,1589911079.001536,41.34923444285037,-71.747450036852,33.25066,22.39627,295.0231018066406,3.245689789776646,4.825975012505604,-9999,4528.8028475,-0.2132720947265625,1.008071899414062,-0.077667236328125,1,0.97
2020-05-19 13:57:59.712 -0400,1589911079.001536,41.34923444285037,-71.747450036852,33.25066,22.39627,295.0231018066406,3.245689789776646,4.825975012505604,-9999,4528.8527445,-0.2241058349609375,1.0106201171875,-0.229461669921875,1,0.97
2020-05-19 13:57:59.762 -0400,1589911079.001536,41.34923444285037,-71.747450036852,33.25066,22.39627,295.0231018066406,3.245689789776646,4.825975012505604,-9999,4528.9026405,-0.2163238525390625,1.059738159179688,-0.04595947265625,1,0.97
2020-05-19 13:57:59.811 -0400,1589911079.001536,41.34923444285037,-71.747450036852,33.25066,22.39627,295.0231018066406,3.245689789776646,4.825975012505604,-9999,4528.952538500001,-0.149993896484375,1.036163330078125,-0.08770751953125,1,0.97
2020-05-19 13:57:59.861 -0400,1589911079.001536,41.34923444285037,-71.747450036852,33.25066,22.39627,295.0231018066406,3.245689789776646,4.825975012505604,-9999,4529.0024335,-0.1485595703125,1.101577758789062,-0.128631591796875,1,0.97
2020-05-19 13:57:59.911 -0400,1589911079.001536,41.34923444285037,-71.747450036852,33.25066,22.39627,295.0231018066406,3.245689789776646,4.825975012505604,-9999,4529.052330500001,-0.1643218994140625,1.1160888671875,-0.1102142333984375,1,0.97
2020-05-19 13:57:59.961 -0400,1589911079.001536,41.34923444285037,-71.747450036852,33.25066,22.39627,295.0231018066406,3.245689789776646,4.825975012505604,-9999,4529.102230541667,-0.1975555419921875,1.065963745117188,-0.034515380859375,1,0.97
2020-05-19 13:58:00.011 -0400,1589911079.001536,41.34923444285037,-71.747450036852,33.25066,22.39627,295.0231018066406,3.245689789776646,4.825975012505604,-9999,4529.152129541667,-0.1163330078125,0.842529296875,-0.110382080078125,1,0.97
2020-05-19 13:58:00.061 -0400,1589911079.001536,41.34923444285037,-71.747450036852,33.25066,22.39627,295.0231018066406,3.245689789776646,4.825975012505604,-9999,4529.202026541667,-0.104522705078125,0.83538818359375,-0.046234130859375,1,0.97
2020-05-19 13:58:00.111 -0400,1589911079.001536,41.34923444285037,-71.747450036852,33.25066,22.39627,295.0231018066406,3.245689789776646,4.825975012505604,-9999,4529.251926541667,-0.164520263671875,0.848480224609375,-0.0724639892578125,1,0.97
2020-05-19 13:58:00.161 -0400,1589911079.001536,41.34923444285037,-71.747450036852,33.25066,22.39627,295.0231018066406,3.245689789776646,4.825975012505604,-9999,4529.301827541667,-0.16400146484375,0.9655914306640625,-0.07415771484375,1,0.97
2020-05-19 13:58:00.210 -0400,1589911079.001536,41.34923444285037,-71.747450036852,33.25066,22.39627,295.0231018066406,3.245689789776646,4.825975012505604,-9999,4529.351727541667,-0.160430908203125,1.11199951171875,-0.101318359375,1,0.97
2020-05-19 13:58:00.260 -0400,1589911079.001536,41.34923444285037,-71.747450036852,33.25066,22.39627,295.0231018066406,3.245689789776646,4.825975012505604,-9999,4529.401625541667,-0.249908447265625,0.9715423583984375,-0.0672454833984375,1,0.97
2020-05-19 13:58:00.310 -0400,1589911080.001551,41.34931843234872,-71.74769487285755,33.8545,22.23196,295.0231018066406,3.242193185010842,4.828324800990306,-9999,4529.451526541667,-0.0809173583984375,0.9837646484375,-0.2517547607421875,1,0.97
2020-05-19 13:58:00.360 -0400,1589911080.001551,41.34931843234872,-71.74769487285755,33.8545,22.23196,295.0231018066406,3.242193185010842,4.828324800990306,-9999,4529.501427541667,-0.0548553466796875,0.7297210693359375,-0.08367919921875,1,0.97
2020-05-19 13:58:00.410 -0400,1589911080.001551,41.34931843234872,-71.74769487285755,33.8545,22.23196,295.0231018066406,3.242193185010842,4.828324800990306,-9999,4529.551325541667,-0.2469024658203125,0.8618316650390625,-0.032318115234375,1,0.97
2020-05-19 13:58:00.460 -0400,1589911080.001551,41.34931843234872,-71.74769487285755,33.8545,22.23196,295.0231018066406,3.242193185010842,4.828324800990306,-9999,4529.601226541667,-0.3356781005859375,1.092208862304688,-0.0670013427734375,1,0.97
2020-05-19 13:58:00.510 -0400,1589911080.001551,41.34931843234872,-71.74769487285755,33.8545,22.23196,295.0231018066406,3.242193185010842,4.828324800990306,-9999,4529.651126541667,-0.2625732421875,0.85540771484375,-0.0850982666015625,1,0.97
2020-05-19 13:58:00.560 -0400,1589911080.001551,41.34931843234872,-71.74769487285755,33.8545,22.23196,295.0231018066406,3.242193185010842,4.828324800990306,-9999,4529.701024541667,-0.2876434326171875,0.7264862060546875,-0.1085357666015625,1,0.97
2020-05-19 13:58:00.610 -0400,1589911080.001551,41.34931843234872,-71.74769487285755,33.8545,22.23196,295.0231018066406,3.242193185010842,4.828324800990306,-9999,4529.750923541667,-0.2530517578125,0.9861907958984375,-0.1819000244140625,1,0.97
2020-05-19 13:58:00.660 -0400,1589911080.001551,41.34931843234872,-71.74769487285755,33.8545,22.23196,295.0231018066406,3.242193185010842,4.828324800990306,-9999,4529.800822541667,-0.2189178466796875,0.9648284912109375,-0.11993408203125,1,0.97
2020-05-19 13:58:00.710 -0400,1589911080.001551,41.34931843234872,-71.74769487285755,33.8545,22.23196,295.0231018066406,3.242193185010842,4.828324800990306,-9999,4529.850721541667,-0.29925537109375,1.13360595703125,-0.071014404296875,1,0.97
2020-05-19 13:58:00.759 -0400,1589911080.001551,41.34931843234872,-71.74769487285755,33.8545,22.23196,295.0231018066406,3.242193185010842,4.828324800990306,-9999,4529.900620541667,-0.1862945556640625,1.007369995117188,-0.0686187744140625,1,0.97
2020-05-19 13:58:00.809 -0400,1589911080.001551,41.34931843234872,-71.74769487285755,33.8545,22.23196,295.0231018066406,3.242193185010842,4.828324800990306,-9999,4529.950518541666,-0.198455810546875,0.81890869140625,-0.0592498779296875,1,0.97
2020-05-19 13:58:00.859 -0400,1589911080.001551,41.34931843234872,-71.74769487285755,33.8545,22.23196,295.0231018066406,3.242193185010842,4.828324800990306,-9999,4530.000415541667,-0.2629852294921875,0.749908447265625,-0.0363616943359375,1,0.97
2020-05-19 13:58:00.909 -0400,1589911080.001551,41.34931843234872,-71.74769487285755,33.8545,22.23196,295.0231018066406,3.242193185010842,4.828324800990306,-9999,4530.050313541667,-0.2255706787109375,0.94354248046875,-0.105865478515625,1,0.97
2020-05-19 13:58:00.959 -0400,1589911080.001551,41.34931843234872,-71.74769487285755,33.8545,22.23196,295.0231018066406,3.242193185010842,4.828324800990306,-9999,4530.100211875,-0.1127777099609375,1.021484375,-0.1195526123046875,1,0.97
2020-05-19 13:58:01.009 -0400,1589911080.001551,41.34931843234872,-71.74769487285755,33.8545,22.23196,295.0231018066406,3.242193185010842,4.828324800990306,-9999,4530.150111875,-0.21209716796875,0.8063812255859375,-0.0694580078125,1,0.97
2020-05-19 13:58:01.059 -0400,1589911080.001551,41.34931843234872,-71.74769487285755,33.8545,22.23196,295.0231018066406,3.242193185010842,4.828324800990306,-9999,4530.200010875,-0.26495361328125,0.9463958740234375,-0.1007843017578125,1,0.97
2020-05-19 13:58:01.109 -0400,1589911080.001551,41.34931843234872,-71.74769487285755,33.8545,22.23196,295.0231018066406,3.242193185010842,4.828324800990306,-9999,4530.249908875,-0.2425537109375,1.126739501953125,-0.0654144287109375,1,0.97
2020-05-19 13:58:01.161 -0400,1589911080.001551,41.34931843234872,-71.74769487285755,33.8545,22.23196,295.0231018066406,3.242193185010842,4.828324800990306,-9999,4530.299803875,-0.1714324951171875,0.7919769287109375,-0.1308441162109375,1,0.97
2020-05-19 13:58:01.209 -0400,1589911080.001551,41.34931843234872,-71.74769487285755,33.8545,22.23196,295.0231018066406,3.242193185010842,4.828324800990306,-9999,4530.349698875,-0.293487548828125,1.015594482421875,-0.0753326416015625,1,0.97
2020-05-19 13:58:01.259 -0400,1589911081.001566,41.34940345646552,-71.74793653163304,33.58492,21.85794,295.0231018066406,3.249378661567782,4.823492028244351,-9999,4530.399596875,-0.198822021484375,0.9943389892578125,-0.0626373291015625,1,0.97
2020-05-19 13:58:01.311 -0400,1589911081.001566,41.34940345646552,-71.74793653163304,33.58492,21.85794,295.0231018066406,3.249378661567782,4.823492028244351,-9999,4530.449496875,-0.239227294921875,0.7333221435546875,-0.077423095703125,1,0.97
2020-05-19 13:58:01.358 -0400,1589911081.001566,41.34940345646552,-71.74793653163304,33.58492,21.85794,295.0231018066406,3.249378661567782,4.823492028244351,-9999,4530.499398875,-0.2646331787109375,0.909423828125,0.0098114013671875,1,0.97
2020-05-19 13:58:01.408 -0400,1589911081.001566,41.34940345646552,-71.74793653163304,33.58492,21.85794,295.0231018066406,3.249378661567782,4.823492028244351,-9999,4530.549302875001,-0.252288818359375,1.01129150390625,-0.105438232421875,1,0.97
2020-05-19 13:58:01.458 -0400,1589911081.001566,41.34940345646552,-71.74793653163304,33.58492,21.85794,295.0231018066406,3.249378661567782,4.823492028244351,-9999,4530.599202875001,-0.1507110595703125,0.9815673828125,-0.10626220703125,1,0.97
2020-05-19 13:58:01.508 -0400,1589911081.001566,41.34940345646552,-71.74793653163304,33.58492,21.85794,295.0231018066406,3.249378661567782,4.823492028244351,-9999,4530.649101875,-0.1609649658203125,0.8861236572265625,-0.096954345703125,1,0.97
2020-05-19 13:58:01.558 -0400,1589911081.001566,41.34940345646552,-71.74793653163304,33.58492,21.85794,295.0231018066406,3.249378661567782,4.823492028244351,-9999,4530.699000875,-0.189483642578125,0.966033935546875,-0.086395263671875,1,0.97
2020-05-19 13:58:01.607 -0400,1589911081.001566,41.34940345646552,-71.74793653163304,33.58492,21.85794,295.0231018066406,3.249378661567782,4.823492028244351,-9999,4530.748900875,-0.2062835693359375,0.9516448974609375,-0.1216278076171875,1,0.97
2020-05-19 13:58:01.657 -0400,1589911081.001566,41.34940345646552,-71.74793653163304,33.58492,21.85794,295.0231018066406,3.249378661567782,4.823492028244351,-9999,4530.798801875,-0.2030181884765625,1.08123779296875,-0.18310546875,1,0.97
2020-05-19 13:58:01.707 -0400,1589911081.001566,41.34940345646552,-71.74793653163304,33.58492,21.85794,295.0231018066406,3.249378661567782,4.823492028244351,-9999,4530.848701875,-0.1727142333984375,0.9579620361328125,-0.1237030029296875,1,0.97
2020-05-19 13:58:01.757 -0400,1589911081.001566,41.34940345646552,-71.74793653163304,33.58492,21.85794,295.0231018066406,3.249378661567782,4.823492028244351,-9999,4530.898601875,-0.2157745361328125,0.9099578857421875,-0.098968505859375,1,0.97
2020-05-19 13:58:01.812 -0400,1589911081.001566,41.34940345646552,-71.74793653163304,33.58492,21.85794,295.0231018066406,3.249378661567782,4.823492028244351,-9999,4530.948502875,-0.238983154296875,1.072158813476562,-0.0654754638671875,1,0.97
2020-05-19 13:58:01.857 -0400,1589911081.001566,41.34940345646552,-71.74793653163304,33.58492,21.85794,295.0231018066406,3.249378661567782,4.823492028244351,-9999,4530.998405875001,-0.284088134765625,0.868743896484375,-0.0288848876953125,1,0.97
2020-05-19 13:58:01.907 -0400,1589911081.001566,41.34940345646552,-71.74793653163304,33.58492,21.85794,295.0231018066406,3.249378661567782,4.823492028244351,-9999,4531.048304875,-0.1507415771484375,0.746856689453125,-0.1444091796875,1,0.97
2020-05-19 13:58:01.957 -0400,1589911081.001566,41.34940345646552,-71.74793653163304,33.58492,21.85794,295.0231018066406,3.249378661567782,4.823492028244351,-9999,4531.098201541667,-0.2256317138671875,0.598388671875,-0.113037109375,1,0.97
2020-05-19 13:58:02.007 -0400,1589911081.001566,41.34940345646552,-71.74793653163304,33.58492,21.85794,295.0231018066406,3.249378661567782,4.823492028244351,-9999,4531.148098541667,-0.1861572265625,1.02886962890625,-0.0751953125,1,0.97
2020-05-19 13:58:02.057 -0400,1589911081.001566,41.34940345646552,-71.74793653163304,33.58492,21.85794,295.0231018066406,3.249378661567782,4.823492028244351,-9999,4531.197992541667,-0.1080780029296875,1.05560302734375,-0.1477203369140625,1,0.97
2020-05-19 13:58:02.107 -0400,1589911081.001566,41.34940345646552,-71.74793653163304,33.58492,21.85794,295.0231018066406,3.249378661567782,4.823492028244351,-9999,4531.247888541667,-0.369720458984375,0.67034912109375,0.0452117919921875,1,0.97
2020-05-19 13:58:02.157 -0400,1589911081.001566,41.34940345646552,-71.74793653163304,33.58492,21.85794,295.0231018066406,3.249378661567782,4.823492028244351,-9999,4531.297781541667,-0.3769378662109375,0.95068359375,-0.1813507080078125,1,0.97
2020-05-19 13:58:02.206 -0400,1589911081.001566,41.34940345646552,-71.74793653163304,33.58492,21.85794,295.0231018066406,3.249378661567782,4.823492028244351,-9999,4531.347675541667,-0.1772613525390625,1.406600952148438,-0.0829315185546875,1,0.97
2020-05-19 13:58:02.257 -0400,1589911081.001566,41.34940345646552,-71.74793653163304,33.58492,21.85794,295.0231018066406,3.249378661567782,4.823492028244351,-9999,4531.397572541667,-0.1171875,0.3780975341796875,-0.0753021240234375,1,0.97
2020-05-19 13:58:02.306 -0400,1589911082.001581,41.34948629129286,-71.74818018597465,33.80188,21.87987,294.9717712402344,3.276808840743943,4.804899671586408,-9999,4531.447467541667,-0.1715240478515625,0.6989593505859375,-0.2021636962890625,1,0.97
2020-05-19 13:58:02.356 -0400,1589911082.001581,41.34948629129286,-71.74818018597465,33.80188,21.87987,294.9717712402344,3.276808840743943,4.804899671586408,-9999,4531.497363541667,-0.0441741943359375,1.597991943359375,-0.022918701171875,1,0.97
2020-05-19 13:58:02.406 -0400,1589911082.001581,41.34948629129286,-71.74818018597465,33.80188,21.87987,294.9717712402344,3.276808840743943,4.804899671586408,-9999,4531.547261541667,-0.126129150390625,0.3409881591796875,-0.2149505615234375,1,0.97
2020-05-19 13:58:02.456 -0400,1589911082.001581,41.34948629129286,-71.74818018597465,33.80188,21.87987,294.9717712402344,3.276808840743943,4.804899671586408,-9999,4531.597158541667,-0.439117431640625,1.011077880859375,0.0784912109375,1,0.97
2020-05-19 13:58:02.506 -0400,1589911082.001581,41.34948629129286,-71.74818018597465,33.80188,21.87987,294.9717712402344,3.276808840743943,4.804899671586408,-9999,4531.647054541667,-0.2203826904296875,0.784942626953125,-0.0726318359375,1,0.97
2020-05-19 13:58:02.556 -0400,1589911082.001581,41.34948629129286,-71.74818018597465,33.80188,21.87987,294.9717712402344,3.276808840743943,4.804899671586408,-9999,4531.696947541667,-0.2530670166015625,0.9786224365234375,-0.137481689453125,1,0.97
2020-05-19 13:58:02.606 -0400,1589911082.001581,41.34948629129286,-71.74818018597465,33.80188,21.87987,294.9717712402344,3.276808840743943,4.804899671586408,-9999,4531.746841541667,-0.2307586669921875,1.071746826171875,-0.1785430908203125,1,0.97
2020-05-19 13:58:02.655 -0400,1589911082.001581,41.34948629129286,-71.74818018597465,33.80188,21.87987,294.9717712402344,3.276808840743943,4.804899671586408,-9999,4531.796736541667,-0.2567291259765625,1.184463500976562,-0.11724853515625,1,0.97
2020-05-19 13:58:02.705 -0400,1589911082.001581,41.34948629129286,-71.74818018597465,33.80188,21.87987,294.9717712402344,3.276808840743943,4.804899671586408,-9999,4531.846630541667,-0.094573974609375,0.9734039306640625,-0.09600830078125,1,0.97
2020-05-19 13:58:02.755 -0400,1589911082.001581,41.34948629129286,-71.74818018597465,33.80188,21.87987,294.9717712402344,3.276808840743943,4.804899671586408,-9999,4531.896524541667,-0.28204345703125,1.010406494140625,-0.0546112060546875,1,0.97
2020-05-19 13:58:02.805 -0400,1589911082.001581,41.34948629129286,-71.74818018597465,33.80188,21.87987,294.9717712402344,3.276808840743943,4.804899671586408,-9999,4531.946418541667,-0.1685028076171875,0.8969573974609375,-0.12249755859375,1,0.97
2020-05-19 13:58:02.855 -0400,1589911082.001581,41.34948629129286,-71.74818018597465,33.80188,21.87987,294.9717712402344,3.276808840743943,4.804899671586408,-9999,4531.996313541666,-0.27069091796875,1.099594116210938,-0.086151123046875,1,0.97
2020-05-19 13:58:02.905 -0400,1589911082.001581,41.34948629129286,-71.74818018597465,33.80188,21.87987,294.9717712402344,3.276808840743943,4.804899671586408,-9999,4532.046206541667,-0.1787872314453125,0.9409027099609375,-0.1290130615234375,1,0.97
2020-05-19 13:58:02.955 -0400,1589911082.001581,41.34948629129286,-71.74818018597465,33.80188,21.87987,294.9717712402344,3.276808840743943,4.804899671586408,-9999,4532.096102125,-0.1900177001953125,1.041900634765625,-0.14215087890625,1,0.97
2020-05-19 13:58:03.005 -0400,1589911082.001581,41.34948629129286,-71.74818018597465,33.80188,21.87987,294.9717712402344,3.276808840743943,4.804899671586408,-9999,4532.145998125,-0.1650238037109375,1.00286865234375,-0.111572265625,1,0.97
2020-05-19 13:58:03.055 -0400,1589911082.001581,41.34948629129286,-71.74818018597465,33.80188,21.87987,294.9717712402344,3.276808840743943,4.804899671586408,-9999,4532.195894125,-0.2753143310546875,0.9661102294921875,-0.095306396484375,1,0.97
2020-05-19 13:58:03.104 -0400,1589911082.001581,41.34948629129286,-71.74818018597465,33.80188,21.87987,294.9717712402344,3.276808840743943,4.804899671586408,-9999,4532.245791125,-0.3123321533203125,0.979400634765625,-0.0888671875,1,0.97
2020-05-19 13:58:03.154 -0400,1589911082.001581,41.34948629129286,-71.74818018597465,33.80188,21.87987,294.9717712402344,3.276808840743943,4.804899671586408,-9999,4532.295689125001,-0.205047607421875,0.92864990234375,-0.119873046875,1,0.97
2020-05-19 13:58:03.204 -0400,1589911082.001581,41.34948629129286,-71.74818018597465,33.80188,21.87987,294.9717712402344,3.276808840743943,4.804899671586408,-9999,4532.345583125,-0.1621856689453125,1.038345336914062,-0.1139068603515625,1,0.97
2020-05-19 13:58:03.261 -0400,1589911082.001581,41.34948629129286,-71.74818018597465,33.80188,21.87987,294.9717712402344,3.276808840743943,4.804899671586408,-9999,4532.395479125,-0.1913909912109375,0.8665313720703125,-0.103973388671875,1,0.97
2020-05-19 13:58:03.304 -0400,1589911083.001596,41.34956966469294,-71.74841934590812,33.2496,21.92788,294.610107421875,3.277312325550782,4.804556270206621,-9999,4532.445377125,-0.2345733642578125,0.7889251708984375,-0.082977294921875,1,0.97
2020-05-19 13:58:03.354 -0400,1589911083.001596,41.34956966469294,-71.74841934590812,33.2496,21.92788,294.610107421875,3.277312325550782,4.804556270206621,-9999,4532.495275125,-0.197479248046875,1.143524169921875,-0.0836181640625,1,0.97
2020-05-19 13:58:03.404 -0400,1589911083.001596,41.34956966469294,-71.74841934590812,33.2496,21.92788,294.610107421875,3.277312325550782,4.804556270206621,-9999,4532.545173125,-0.2491912841796875,1.065872192382812,-0.050933837890625,1,0.97
2020-05-19 13:58:03.454 -0400,1589911083.001596,41.34956966469294,-71.74841934590812,33.2496,21.92788,294.610107421875,3.277312325550782,4.804556270206621,-9999,4532.595070125,-0.2282562255859375,0.925079345703125,-0.100067138671875,1,0.97
2020-05-19 13:58:03.504 -0400,1589911083.001596,41.34956966469294,-71.74841934590812,33.2496,21.92788,294.610107421875,3.277312325550782,4.804556270206621,-9999,4532.644964125,-0.209228515625,1.140365600585938,-0.0546722412109375,1,0.97
2020-05-19 13:58:03.574 -0400,1589911083.001596,41.34956966469294,-71.74841934590812,33.2496,21.92788,294.610107421875,3.277312325550782,4.804556270206621,-9999,4532.694859125,-0.259124755859375,0.689117431640625,-0.00018310546875,1,0.97
2020-05-19 13:58:03.603 -0400,1589911083.001596,41.34956966469294,-71.74841934590812,33.2496,21.92788,294.610107421875,3.277312325550782,4.804556270206621,-9999,4532.744756125,-0.19317626953125,0.8799285888671875,-0.0697021484375,1,0.97
2020-05-19 13:58:03.653 -0400,1589911083.001596,41.34956966469294,-71.74841934590812,33.2496,21.92788,294.610107421875,3.277312325550782,4.804556270206621,-9999,4532.794650125,-0.19464111328125,0.8597259521484375,-0.062225341796875,1,0.97
2020-05-19 13:58:03.703 -0400,1589911083.001596,41.34956966469294,-71.74841934590812,33.2496,21.92788,294.610107421875,3.277312325550782,4.804556270206621,-9999,4532.844543125,-0.220977783203125,0.9608612060546875,-0.05352783203125,1,0.97
2020-05-19 13:58:03.753 -0400,1589911083.001596,41.34956966469294,-71.74841934590812,33.2496,21.92788,294.610107421875,3.277312325550782,4.804556270206621,-9999,4532.894437125,-0.23272705078125,1.050155639648438,-0.028076171875,1,0.97
2020-05-19 13:58:03.803 -0400,1589911083.001596,41.34956966469294,-71.74841934590812,33.2496,21.92788,294.610107421875,3.277312325550782,4.804556270206621,-9999,4532.944331125001,-0.2252349853515625,0.9239501953125,-0.1456146240234375,1,0.97
2020-05-19 13:58:03.853 -0400,1589911083.001596,41.34956966469294,-71.74841934590812,33.2496,21.92788,294.610107421875,3.277312325550782,4.804556270206621,-9999,4532.994226125,-0.22418212890625,1.000198364257812,-0.143524169921875,1,0.97
2020-05-19 13:58:03.903 -0400,1589911083.001596,41.34956966469294,-71.74841934590812,33.2496,21.92788,294.610107421875,3.277312325550782,4.804556270206621,-9999,4533.044121125,-0.2445068359375,1.005203247070312,-0.08209228515625,1,0.97
2020-05-19 13:58:03.953 -0400,1589911083.001596,41.34956966469294,-71.74841934590812,33.2496,21.92788,294.610107421875,3.277312325550782,4.804556270206621,-9999,4533.09401475,-0.1957244873046875,0.911224365234375,-0.13299560546875,1,0.97
2020-05-19 13:58:04.003 -0400,1589911083.001596,41.34956966469294,-71.74841934590812,33.2496,21.92788,294.610107421875,3.277312325550782,4.804556270206621,-9999,4533.14390875,-0.2310333251953125,0.9283447265625,-0.1603851318359375,1,0.97
2020-05-19 13:58:04.053 -0400,1589911083.001596,41.34956966469294,-71.74841934590812,33.2496,21.92788,294.610107421875,3.277312325550782,4.804556270206621,-9999,4533.19380275,-0.2026824951171875,0.8672943115234375,-0.134002685546875,1,0.97
2020-05-19 13:58:04.103 -0400,1589911083.001596,41.34956966469294,-71.74841934590812,33.2496,21.92788,294.610107421875,3.277312325550782,4.804556270206621,-9999,4533.24369875,-0.238555908203125,1.031723022460938,-0.1166839599609375,1,0.97
2020-05-19 13:58:04.152 -0400,1589911083.001596,41.34956966469294,-71.74841934590812,33.2496,21.92788,294.610107421875,3.277312325550782,4.804556270206621,-9999,4533.293593750001,-0.23687744140625,0.8747711181640625,-0.0384674072265625,1,0.97
2020-05-19 13:58:04.202 -0400,1589911083.001596,41.34956966469294,-71.74841934590812,33.2496,21.92788,294.610107421875,3.277312325550782,4.804556270206621,-9999,4533.34348675,-0.2346649169921875,1.045425415039062,-0.0806121826171875,1,0.97
2020-05-19 13:58:04.252 -0400,1589911084.00161,41.34965370271721,-71.74866004089996,32.98983,22.0465,295.2633361816406,3.272918275104345,4.807550623475205,-9999,4533.393380750001,-0.21881103515625,1.143295288085938,-0.124725341796875,1,0.97
2020-05-19 13:58:04.302 -0400,1589911084.00161,41.34965370271721,-71.74866004089996,32.98983,22.0465,295.2633361816406,3.272918275104345,4.807550623475205,-9999,4533.44327675,-0.2734527587890625,0.9495086669921875,-0.000732421875,1,0.97
2020-05-19 13:58:04.352 -0400,1589911084.00161,41.34965370271721,-71.74866004089996,32.98983,22.0465,295.2633361816406,3.272918275104345,4.807550623475205,-9999,4533.49317675,-0.25860595703125,1.11322021484375,-0.08221435546875,1,0.97
2020-05-19 13:58:04.402 -0400,1589911084.00161,41.34965370271721,-71.74866004089996,32.98983,22.0465,295.2633361816406,3.272918275104345,4.807550623475205,-9999,4533.54307875,-0.213134765625,0.84100341796875,-0.1179962158203125,1,0.97
2020-05-19 13:58:04.452 -0400,1589911084.00161,41.34965370271721,-71.74866004089996,32.98983,22.0465,295.2633361816406,3.272918275104345,4.807550623475205,-9999,4533.592977750001,-0.2495880126953125,0.88006591796875,-0.11181640625,1,0.97
2020-05-19 13:58:04.501 -0400,1589911084.00161,41.34965370271721,-71.74866004089996,32.98983,22.0465,295.2633361816406,3.272918275104345,4.807550623475205,-9999,4533.642875750001,-0.3167266845703125,0.900360107421875,-0.19354248046875,1,0.97
2020-05-19 13:58:04.582 -0400,1589911084.00161,41.34965370271721,-71.74866004089996,32.98983,22.0465,295.2633361816406,3.272918275104345,4.807550623475205,-9999,4533.692775750001,-0.21002197265625,1.254547119140625,-0.0927886962890625,1,0.97
2020-05-19 13:58:04.602 -0400,1589911084.00161,41.34965370271721,-71.74866004089996,32.98983,22.0465,295.2633361816406,3.272918275104345,4.807550623475205,-9999,4533.74267475,-0.2352752685546875,1.321762084960938,-0.193206787109375,1,0.97
2020-05-19 13:58:04.651 -0400,1589911084.00161,41.34965370271721,-71.74866004089996,32.98983,22.0465,295.2633361816406,3.272918275104345,4.807550623475205,-9999,4533.79257475,-0.2575836181640625,1.005294799804688,-0.1304931640625,1,0.97
2020-05-19 13:58:04.701 -0400,1589911084.00161,41.34965370271721,-71.74866004089996,32.98983,22.0465,295.2633361816406,3.272918275104345,4.807550623475205,-9999,4533.84247475,-0.348388671875,1.090438842773438,-0.1302337646484375,1,0.97
2020-05-19 13:58:04.751 -0400,1589911084.00161,41.34965370271721,-71.74866004089996,32.98983,22.0465,295.2633361816406,3.272918275104345,4.807550623475205,-9999,4533.89237375,-0.3061370849609375,1.347030639648438,-0.1030426025390625,1,0.97
2020-05-19 13:58:04.801 -0400,1589911084.00161,41.34965370271721,-71.74866004089996,32.98983,22.0465,295.2633361816406,3.272918275104345,4.807550623475205,-9999,4533.942270750001,-0.1690521240234375,1.38720703125,-0.2066497802734375,1,0.97
2020-05-19 13:58:04.851 -0400,1589911084.00161,41.34965370271721,-71.74866004089996,32.98983,22.0465,295.2633361816406,3.272918275104345,4.807550623475205,-9999,4533.99217275,-0.1389923095703125,0.671630859375,-0.1297149658203125,1,0.97
2020-05-19 13:58:04.901 -0400,1589911084.00161,41.34965370271721,-71.74866004089996,32.98983,22.0465,295.2633361816406,3.272918275104345,4.807550623475205,-9999,4534.042070750001,-0.403289794921875,0.806304931640625,-0.037322998046875,1,0.97
2020-05-19 13:58:04.951 -0400,1589911084.00161,41.34965370271721,-71.74866004089996,32.98983,22.0465,295.2633361816406,3.272918275104345,4.807550623475205,-9999,4534.091969125,-0.3518829345703125,1.553268432617188,-0.0591278076171875,1,0.97
2020-05-19 13:58:05.001 -0400,1589911084.00161,41.34965370271721,-71.74866004089996,32.98983,22.0465,295.2633361816406,3.272918275104345,4.807550623475205,-9999,4534.141867125,-0.1872100830078125,0.802978515625,-0.310546875,1,0.97
2020-05-19 13:58:05.051 -0400,1589911084.00161,41.34965370271721,-71.74866004089996,32.98983,22.0465,295.2633361816406,3.272918275104345,4.807550623475205,-9999,4534.191762125,-0.4051055908203125,1.201690673828125,0.126556396484375,1,0.97
2020-05-19 13:58:05.101 -0400,1589911084.00161,41.34965370271721,-71.74866004089996,32.98983,22.0465,295.2633361816406,3.272918275104345,4.807550623475205,-9999,4534.241660125001,-0.2881622314453125,1.084762573242188,-0.2316741943359375,1,0.97
2020-05-19 13:58:05.150 -0400,1589911084.00161,41.34965370271721,-71.74866004089996,32.98983,22.0465,295.2633361816406,3.272918275104345,4.807550623475205,-9999,4534.291557125001,-0.0433502197265625,1.212326049804688,-0.1246490478515625,1,0.97
2020-05-19 13:58:05.200 -0400,1589911084.00161,41.34965370271721,-71.74866004089996,32.98983,22.0465,295.2633361816406,3.272918275104345,4.807550623475205,-9999,4534.341451125,-0.3494720458984375,1.163177490234375,-0.045013427734375,1,0.97
2020-05-19 13:58:05.250 -0400,1589911084.00161,41.34965370271721,-71.74866004089996,32.98983,22.0465,295.2633361816406,3.272918275104345,4.807550623475205,-9999,4534.391349125,-0.21539306640625,1.268218994140625,-0.1536407470703125,1,0.97
2020-05-19 13:58:05.300 -0400,1589911085.001626,41.34973877500865,-71.74890403974912,32.40184,22.24166,294.8025207519531,3.258022926011752,4.817657485373017,-9999,4534.441244125001,-0.2646026611328125,0.8697357177734375,-0.105316162109375,1,0.97
2020-05-19 13:58:05.350 -0400,1589911085.001626,41.34973877500865,-71.74890403974912,32.40184,22.24166,294.8025207519531,3.258022926011752,4.817657485373017,-9999,4534.491137125,-0.2039947509765625,1.008514404296875,-0.0265045166015625,1,0.97
2020-05-19 13:58:05.400 -0400,1589911085.001626,41.34973877500865,-71.74890403974912,32.40184,22.24166,294.8025207519531,3.258022926011752,4.817657485373017,-9999,4534.541033125,-0.2072906494140625,0.9427490234375,-0.007537841796875,1,0.97
2020-05-19 13:58:05.450 -0400,1589911085.001626,41.34973877500865,-71.74890403974912,32.40184,22.24166,294.8025207519531,3.258022926011752,4.817657485373017,-9999,4534.590929125,-0.1427764892578125,1.002151489257812,-0.1056976318359375,1,0.97
2020-05-19 13:58:05.500 -0400,1589911085.001626,41.34973877500865,-71.74890403974912,32.40184,22.24166,294.8025207519531,3.258022926011752,4.817657485373017,-9999,4534.640825125,-0.23724365234375,0.98199462890625,-0.0343475341796875,1,0.97
2020-05-19 13:58:05.550 -0400,1589911085.001626,41.34973877500865,-71.74890403974912,32.40184,22.24166,294.8025207519531,3.258022926011752,4.817657485373017,-9999,4534.690719125,-0.2373504638671875,1.274765014648438,-0.0570220947265625,1,0.97
2020-05-19 13:58:05.599 -0400,1589911085.001626,41.34973877500865,-71.74890403974912,32.40184,22.24166,294.8025207519531,3.258022926011752,4.817657485373017,-9999,4534.740615125001,-0.2068023681640625,0.7536468505859375,-0.097900390625,1,0.97
2020-05-19 13:58:05.649 -0400,1589911085.001626,41.34973877500865,-71.74890403974912,32.40184,22.24166,294.8025207519531,3.258022926011752,4.817657485373017,-9999,4534.790512125001,-0.28009033203125,0.957427978515625,0.0108184814453125,1,0.97
2020-05-19 13:58:05.699 -0400,1589911085.001626,41.34973877500865,-71.74890403974912,32.40184,22.24166,294.8025207519531,3.258022926011752,4.817657485373017,-9999,4534.840408125,-0.2371826171875,1.078460693359375,-0.04693603515625,1,0.97
2020-05-19 13:58:05.749 -0400,1589911085.001626,41.34973877500865,-71.74890403974912,32.40184,22.24166,294.8025207519531,3.258022926011752,4.817657485373017,-9999,4534.890301125,-0.191986083984375,1.110000610351562,-0.0193023681640625,1,0.97
2020-05-19 13:58:05.799 -0400,1589911085.001626,41.34973877500865,-71.74890403974912,32.40184,22.24166,294.8025207519531,3.258022926011752,4.817657485373017,-9999,4534.940197125,-0.2487030029296875,0.759979248046875,-0.02423095703125,1,0.97
2020-05-19 13:58:05.849 -0400,1589911085.001626,41.34973877500865,-71.74890403974912,32.40184,22.24166,294.8025207519531,3.258022926011752,4.817657485373017,-9999,4534.990090125,-0.2221221923828125,1.082504272460938,-0.02984619140625,1,0.97
2020-05-19 13:58:05.899 -0400,1589911085.001626,41.34973877500865,-71.74890403974912,32.40184,22.24166,294.8025207519531,3.258022926011752,4.817657485373017,-9999,4535.039985125,-0.21270751953125,1.066970825195312,-0.094268798828125,1,0.97
2020-05-19 13:58:05.949 -0400,1589911085.001626,41.34973877500865,-71.74890403974912,32.40184,22.24166,294.8025207519531,3.258022926011752,4.817657485373017,-9999,4535.089880375001,-0.2025604248046875,1.031051635742188,-0.01470947265625,1,0.97
2020-05-19 13:58:05.998 -0400,1589911085.001626,41.34973877500865,-71.74890403974912,32.40184,22.24166,294.8025207519531,3.258022926011752,4.817657485373017,-9999,4535.139774375,-0.1962432861328125,0.949188232421875,-0.074066162109375,1,0.97
2020-05-19 13:58:06.048 -0400,1589911085.001626,41.34973877500865,-71.74890403974912,32.40184,22.24166,294.8025207519531,3.258022926011752,4.817657485373017,-9999,4535.189666375,-0.1998138427734375,1.104095458984375,-0.0416107177734375,1,0.97
2020-05-19 13:58:06.098 -0400,1589911085.001626,41.34973877500865,-71.74890403974912,32.40184,22.24166,294.8025207519531,3.258022926011752,4.817657485373017,-9999,4535.239558375,-0.226654052734375,1.114990234375,-0.0521087646484375,1,0.97
2020-05-19 13:58:06.148 -0400,1589911085.001626,41.34973877500865,-71.74890403974912,32.40184,22.24166,294.8025207519531,3.258022926011752,4.817657485373017,-9999,4535.289449375,-0.254730224609375,1.086944580078125,-0.0218963623046875,1,0.97
2020-05-19 13:58:06.198 -0400,1589911085.001626,41.34973877500865,-71.74890403974912,32.40184,22.24166,294.8025207519531,3.258022926011752,4.817657485373017,-9999,4535.339344375,-0.236602783203125,1.070846557617188,-0.026763916015625,1,0.97
2020-05-19 13:58:06.248 -0400,1589911085.001626,41.34973877500865,-71.74890403974912,32.40184,22.24166,294.8025207519531,3.258022926011752,4.817657485373017,-9999,4535.389237375,-0.1637420654296875,0.9018402099609375,-0.1522674560546875,1,0.97
2020-05-19 13:58:06.298 -0400,1589911086.001647,41.34982342250047,-71.74914621853105,31.89679,22.44093,294.8025207519531,3.241873717190773,4.828539306516674,-9999,4535.439128375,-0.315673828125,1.06842041015625,-0.0877532958984375,1,0.97
2020-05-19 13:58:06.348 -0400,1589911086.001647,41.34982342250047,-71.74914621853105,31.89679,22.44093,294.8025207519531,3.241873717190773,4.828539306516674,-9999,4535.489022375,-0.272308349609375,1.319259643554688,-0.08624267578125,1,0.97
2020-05-19 13:58:06.398 -0400,1589911086.001647,41.34982342250047,-71.74914621853105,31.89679,22.44093,294.8025207519531,3.241873717190773,4.828539306516674,-9999,4535.538919375001,-0.2059783935546875,0.9455108642578125,-0.0253753662109375,1,0.97
2020-05-19 13:58:06.448 -0400,1589911086.001647,41.34982342250047,-71.74914621853105,31.89679,22.44093,294.8025207519531,3.241873717190773,4.828539306516674,-9999,4535.588816375001,-0.1602935791015625,0.8603515625,-0.1506805419921875,1,0.97
2020-05-19 13:58:06.497 -0400,1589911086.001647,41.34982342250047,-71.74914621853105,31.89679,22.44093,294.8025207519531,3.241873717190773,4.828539306516674,-9999,4535.638710375,-0.2120513916015625,0.9238128662109375,-0.1121673583984375,1,0.97
2020-05-19 13:58:06.547 -0400,1589911086.001647,41.34982342250047,-71.74914621853105,31.89679,22.44093,294.8025207519531,3.241873717190773,4.828539306516674,-9999,4535.688604375,-0.174530029296875,1.209686279296875,-0.0202178955078125,1,0.97
2020-05-19 13:58:06.597 -0400,1589911086.001647,41.34982342250047,-71.74914621853105,31.89679,22.44093,294.8025207519531,3.241873717190773,4.828539306516674,-9999,4535.738498375,-0.190765380859375,1.031890869140625,-0.1426544189453125,1,0.97
2020-05-19 13:58:06.647 -0400,1589911086.001647,41.34982342250047,-71.74914621853105,31.89679,22.44093,294.8025207519531,3.241873717190773,4.828539306516674,-9999,4535.788387375001,-0.221588134765625,1.113189697265625,0.01947021484375,1,0.97
2020-05-19 13:58:06.697 -0400,1589911086.001647,41.34982342250047,-71.74914621853105,31.89679,22.44093,294.8025207519531,3.241873717190773,4.828539306516674,-9999,4535.838280375,-0.2191925048828125,1.00213623046875,0.000396728515625,1,0.97
2020-05-19 13:58:06.747 -0400,1589911086.001647,41.34982342250047,-71.74914621853105,31.89679,22.44093,294.8025207519531,3.241873717190773,4.828539306516674,-9999,4535.888170375,-0.1631317138671875,0.89593505859375,-0.095062255859375,1,0.97
2020-05-19 13:58:06.797 -0400,1589911086.001647,41.34982342250047,-71.74914621853105,31.89679,22.44093,294.8025207519531,3.241873717190773,4.828539306516674,-9999,4535.938060375001,-0.2060546875,0.8944549560546875,-0.0712127685546875,1,0.97
2020-05-19 13:58:06.847 -0400,1589911086.001647,41.34982342250047,-71.74914621853105,31.89679,22.44093,294.8025207519531,3.241873717190773,4.828539306516674,-9999,4535.987951375,-0.1586456298828125,0.95574951171875,-0.050201416015625,1,0.97
2020-05-19 13:58:06.897 -0400,1589911086.001647,41.34982342250047,-71.74914621853105,31.89679,22.44093,294.8025207519531,3.241873717190773,4.828539306516674,-9999,4536.037844375001,-0.2232513427734375,1.44732666015625,-0.082611083984375,1,0.97
2020-05-19 13:58:06.946 -0400,1589911086.001647,41.34982342250047,-71.74914621853105,31.89679,22.44093,294.8025207519531,3.241873717190773,4.828539306516674,-9999,4536.087736375001,0.042694091796875,1.153244018554688,-0.0207672119140625,1,0.97
2020-05-19 13:58:06.996 -0400,1589911086.001647,41.34982342250047,-71.74914621853105,31.89679,22.44093,294.8025207519531,3.241873717190773,4.828539306516674,-9999,4536.137629,-0.0803680419921875,0.74505615234375,-0.001800537109375,1,0.97
2020-05-19 13:58:07.046 -0400,1589911086.001647,41.34982342250047,-71.74914621853105,31.89679,22.44093,294.8025207519531,3.241873717190773,4.828539306516674,-9999,4536.187521,-0.2947998046875,0.4480743408203125,0.0023193359375,1,0.97
2020-05-19 13:58:07.096 -0400,1589911086.001647,41.34982342250047,-71.74914621853105,31.89679,22.44093,294.8025207519531,3.241873717190773,4.828539306516674,-9999,4536.237414,-0.141815185546875,0.828216552734375,-0.1112823486328125,1,0.97
2020-05-19 13:58:07.146 -0400,1589911086.001647,41.34982342250047,-71.74914621853105,31.89679,22.44093,294.8025207519531,3.241873717190773,4.828539306516674,-9999,4536.287309,-0.143280029296875,1.021194458007812,0.022491455078125,1,0.97
2020-05-19 13:58:07.196 -0400,1589911086.001647,41.34982342250047,-71.74914621853105,31.89679,22.44093,294.8025207519531,3.241873717190773,4.828539306516674,-9999,4536.337202000001,-0.0938568115234375,0.872802734375,-0.0229339599609375,1,0.97
2020-05-19 13:58:07.251 -0400,1589911086.001647,41.34982342250047,-71.74914621853105,31.89679,22.44093,294.8025207519531,3.241873717190773,4.828539306516674,-9999,4536.387095,-0.1732635498046875,0.846954345703125,-0.013458251953125,1,0.97
2020-05-19 13:58:07.296 -0400,1589911087.001656,41.34990995729843,-71.74938982276659,31.60567,22.53044,294.5298767089844,3.22506524146918,4.839782146032626,-9999,4536.436985,-0.1948699951171875,0.9711761474609375,-0.12322998046875,1,0.97
2020-05-19 13:58:07.346 -0400,1589911087.001656,41.34990995729843,-71.74938982276659,31.60567,22.53044,294.5298767089844,3.22506524146918,4.839782146032626,-9999,4536.486874,-0.1806488037109375,1.160842895507812,-0.0386505126953125,1,0.97
2020-05-19 13:58:07.396 -0400,1589911087.001656,41.34990995729843,-71.74938982276659,31.60567,22.53044,294.5298767089844,3.22506524146918,4.839782146032626,-9999,4536.536766,-0.2409820556640625,1.111770629882812,-0.07818603515625,1,0.97
2020-05-19 13:58:07.445 -0400,1589911087.001656,41.34990995729843,-71.74938982276659,31.60567,22.53044,294.5298767089844,3.22506524146918,4.839782146032626,-9999,4536.586658,-0.192108154296875,1.151382446289062,-0.08642578125,1,0.97
2020-05-19 13:58:07.495 -0400,1589911087.001656,41.34990995729843,-71.74938982276659,31.60567,22.53044,294.5298767089844,3.22506524146918,4.839782146032626,-9999,4536.636549,-0.2066192626953125,0.8665008544921875,-0.0598907470703125,1,0.97
2020-05-19 13:58:07.545 -0400,1589911087.001656,41.34990995729843,-71.74938982276659,31.60567,22.53044,294.5298767089844,3.22506524146918,4.839782146032626,-9999,4536.686439,-0.165130615234375,1.277725219726562,0.0023651123046875,1,0.97
2020-05-19 13:58:07.595 -0400,1589911087.001656,41.34990995729843,-71.74938982276659,31.60567,22.53044,294.5298767089844,3.22506524146918,4.839782146032626,-9999,4536.736326,-0.2768707275390625,0.927886962890625,-0.069091796875,1,0.97
2020-05-19 13:58:07.645 -0400,1589911087.001656,41.34990995729843,-71.74938982276659,31.60567,22.53044,294.5298767089844,3.22506524146918,4.839782146032626,-9999,4536.786216,-0.2229461669921875,0.760894775390625,-0.0704803466796875,1,0.97
2020-05-19 13:58:07.695 -0400,1589911087.001656,41.34990995729843,-71.74938982276659,31.60567,22.53044,294.5298767089844,3.22506524146918,4.839782146032626,-9999,4536.836108,-0.126129150390625,0.9813995361328125,-0.2021484375,1,0.97
2020-05-19 13:58:07.745 -0400,1589911087.001656,41.34990995729843,-71.74938982276659,31.60567,22.53044,294.5298767089844,3.22506524146918,4.839782146032626,-9999,4536.885999,-0.1393280029296875,0.954681396484375,-0.1102752685546875,1,0.97
2020-05-19 13:58:07.795 -0400,1589911087.001656,41.34990995729843,-71.74938982276659,31.60567,22.53044,294.5298767089844,3.22506524146918,4.839782146032626,-9999,4536.935891,-0.165283203125,0.81671142578125,-0.1046905517578125,1,0.97
2020-05-19 13:58:07.844 -0400,1589911087.001656,41.34990995729843,-71.74938982276659,31.60567,22.53044,294.5298767089844,3.22506524146918,4.839782146032626,-9999,4536.985783,-0.18023681640625,0.823883056640625,-0.107513427734375,1,0.97
2020-05-19 13:58:07.894 -0400,1589911087.001656,41.34990995729843,-71.74938982276659,31.60567,22.53044,294.5298767089844,3.22506524146918,4.839782146032626,-9999,4537.035676,-0.1680908203125,0.898895263671875,-0.0843658447265625,1,0.97
2020-05-19 13:58:07.944 -0400,1589911087.001656,41.34990995729843,-71.74938982276659,31.60567,22.53044,294.5298767089844,3.22506524146918,4.839782146032626,-9999,4537.085569,-0.1991424560546875,0.884857177734375,-0.02978515625,1,0.97
2020-05-19 13:58:07.994 -0400,1589911087.001656,41.34990995729843,-71.74938982276659,31.60567,22.53044,294.5298767089844,3.22506524146918,4.839782146032626,-9999,4537.135458416667,-0.12249755859375,0.9384307861328125,-0.1301727294921875,1,0.97
2020-05-19 13:58:08.044 -0400,1589911087.001656,41.34990995729843,-71.74938982276659,31.60567,22.53044,294.5298767089844,3.22506524146918,4.839782146032626,-9999,4537.185349416667,-0.1533203125,0.8829345703125,-0.2278289794921875,1,0.97
2020-05-19 13:58:08.094 -0400,1589911087.001656,41.34990995729843,-71.74938982276659,31.60567,22.53044,294.5298767089844,3.22506524146918,4.839782146032626,-9999,4537.235239416667,-0.0948486328125,0.9707794189453125,-0.099090576171875,1,0.97
2020-05-19 13:58:08.144 -0400,1589911087.001656,41.34990995729843,-71.74938982276659,31.60567,22.53044,294.5298767089844,3.22506524146918,4.839782146032626,-9999,4537.285130416667,-0.1390533447265625,0.9562835693359375,-0.190643310546875,1,0.97
2020-05-19 13:58:08.194 -0400,1589911087.001656,41.34990995729843,-71.74938982276659,31.60567,22.53044,294.5298767089844,3.22506524146918,4.839782146032626,-9999,4537.335019416667,-0.206634521484375,1.058807373046875,-0.1800689697265625,1,0.97
2020-05-19 13:58:08.244 -0400,1589911088.001671,41.34999968428987,-71.74963309513927,31.66392,22.49031,294.5298767089844,3.219120165917136,4.843738472520421,-9999,4537.384910416667,-0.24530029296875,1.131256103515625,0.0053558349609375,1,0.97
2020-05-19 13:58:08.294 -0400,1589911088.001671,41.34999968428987,-71.74963309513927,31.66392,22.49031,294.5298767089844,3.219120165917136,4.843738472520421,-9999,4537.434801416667,-0.1325531005859375,1.0565185546875,-0.106292724609375,1,0.97
2020-05-19 13:58:08.343 -0400,1589911088.001671,41.34999968428987,-71.74963309513927,31.66392,22.49031,294.5298767089844,3.219120165917136,4.843738472520421,-9999,4537.484691416667,-0.1229095458984375,0.80609130859375,-0.2010955810546875,1,0.97
2020-05-19 13:58:08.393 -0400,1589911088.001671,41.34999968428987,-71.74963309513927,31.66392,22.49031,294.5298767089844,3.219120165917136,4.843738472520421,-9999,4537.534578416667,-0.2005462646484375,0.785369873046875,-0.1548614501953125,1,0.97
2020-05-19 13:58:08.448 -0400,1589911088.001671,41.34999968428987,-71.74963309513927,31.66392,22.49031,294.5298767089844,3.219120165917136,4.843738472520421,-9999,4537.584463416667,-0.184112548828125,1.353973388671875,-0.13861083984375,1,0.97
2020-05-19 13:58:08.493 -0400,1589911088.001671,41.34999968428987,-71.74963309513927,31.66392,22.49031,294.5298767089844,3.219120165917136,4.843738472520421,-9999,4537.634349416667,-0.1700439453125,0.95416259765625,0.056488037109375,1,0.97
2020-05-19 13:58:08.543 -0400,1589911088.001671,41.34999968428987,-71.74963309513927,31.66392,22.49031,294.5298767089844,3.219120165917136,4.843738472520421,-9999,4537.684239416667,-0.2535552978515625,1.256622314453125,-0.022552490234375,1,0.97
2020-05-19 13:58:08.593 -0400,1589911088.001671,41.34999968428987,-71.74963309513927,31.66392,22.49031,294.5298767089844,3.219120165917136,4.843738472520421,-9999,4537.734127416667,-0.1378173828125,0.8196563720703125,-0.0589599609375,1,0.97
2020-05-19 13:58:08.643 -0400,1589911088.001671,41.34999968428987,-71.74963309513927,31.66392,22.49031,294.5298767089844,3.219120165917136,4.843738472520421,-9999,4537.784016416667,-0.2481536865234375,1.300521850585938,-0.06646728515625,1,0.97
2020-05-19 13:58:08.693 -0400,1589911088.001671,41.34999968428987,-71.74963309513927,31.66392,22.49031,294.5298767089844,3.219120165917136,4.843738472520421,-9999,4537.833902416667,-0.202484130859375,1.077072143554688,-0.178680419921875,1,0.97
2020-05-19 13:58:08.742 -0400,1589911088.001671,41.34999968428987,-71.74963309513927,31.66392,22.49031,294.5298767089844,3.219120165917136,4.843738472520421,-9999,4537.883787416667,-0.1545257568359375,1.072418212890625,-0.1321563720703125,1,0.97
2020-05-19 13:58:08.792 -0400,1589911088.001671,41.34999968428987,-71.74963309513927,31.66392,22.49031,294.5298767089844,3.219120165917136,4.843738472520421,-9999,4537.933677416667,-0.1219482421875,0.5351104736328125,-0.3074188232421875,1,0.97
2020-05-19 13:58:08.842 -0400,1589911088.001671,41.34999968428987,-71.74963309513927,31.66392,22.49031,294.5298767089844,3.219120165917136,4.843738472520421,-9999,4537.983568416667,-0.17852783203125,0.8986663818359375,-0.1670684814453125,1,0.97
2020-05-19 13:58:08.892 -0400,1589911088.001671,41.34999968428987,-71.74963309513927,31.66392,22.49031,294.5298767089844,3.219120165917136,4.843738472520421,-9999,4538.033457416667,-0.1533660888671875,1.287628173828125,-0.08734130859375,1,0.97
2020-05-19 13:58:08.942 -0400,1589911088.001671,41.34999968428987,-71.74963309513927,31.66392,22.49031,294.5298767089844,3.219120165917136,4.843738472520421,-9999,4538.083346416667,-0.20196533203125,0.9275970458984375,-0.111602783203125,1,0.97
2020-05-19 13:58:08.992 -0400,1589911088.001671,41.34999968428987,-71.74963309513927,31.66392,22.49031,294.5298767089844,3.219120165917136,4.843738472520421,-9999,4538.133238375,-0.2398834228515625,0.844207763671875,-0.009490966796875,1,0.97
2020-05-19 13:58:09.042 -0400,1589911088.001671,41.34999968428987,-71.74963309513927,31.66392,22.49031,294.5298767089844,3.219120165917136,4.843738472520421,-9999,4538.183129375,-0.1146240234375,0.957672119140625,-0.1780242919921875,1,0.97
2020-05-19 13:58:09.092 -0400,1589911088.001671,41.34999968428987,-71.74963309513927,31.66392,22.49031,294.5298767089844,3.219120165917136,4.843738472520421,-9999,4538.233023375,-0.167327880859375,0.813323974609375,-0.0363922119140625,1,0.97
2020-05-19 13:58:09.142 -0400,1589911088.001671,41.34999968428987,-71.74963309513927,31.66392,22.49031,294.5298767089844,3.219120165917136,4.843738472520421,-9999,4538.282917375001,-0.1706085205078125,1.172683715820312,-0.1356658935546875,1,0.97
2020-05-19 13:58:09.192 -0400,1589911088.001671,41.34999968428987,-71.74963309513927,31.66392,22.49031,294.5298767089844,3.219120165917136,4.843738472520421,-9999,4538.332808375,-0.158721923828125,0.7137908935546875,-0.20159912109375,1,0.97
2020-05-19 13:58:09.242 -0400,1589911088.001671,41.34999968428987,-71.74963309513927,31.66392,22.49031,294.5298767089844,3.219120165917136,4.843738472520421,-9999,4538.382700375,-0.1790313720703125,1.108688354492188,-0.1164093017578125,1,0.97
2020-05-19 13:58:09.296 -0400,1589911089.001687,41.35008141818168,-71.7498706460415,31.49615,22.17016,294.5298767089844,3.211905151788275,4.848525789217252,-9999,4538.432589375,-0.151519775390625,1.135177612304688,-0.16131591796875,1,0.97
2020-05-19 13:58:09.341 -0400,1589911089.001687,41.35008141818168,-71.7498706460415,31.49615,22.17016,294.5298767089844,3.211905151788275,4.848525789217252,-9999,4538.482482375,-0.217864990234375,0.9100189208984375,-0.1233673095703125,1,0.97
2020-05-19 13:58:09.391 -0400,1589911089.001687,41.35008141818168,-71.7498706460415,31.49615,22.17016,294.5298767089844,3.211905151788275,4.848525789217252,-9999,4538.532376375,-0.1779937744140625,1.049240112304688,-0.1664886474609375,1,0.97
2020-05-19 13:58:09.441 -0400,1589911089.001687,41.35008141818168,-71.7498706460415,31.49615,22.17016,294.5298767089844,3.211905151788275,4.848525789217252,-9999,4538.582267375,-0.2030487060546875,1.132156372070312,-0.163360595703125,1,0.97
2020-05-19 13:58:09.491 -0400,1589911089.001687,41.35008141818168,-71.7498706460415,31.49615,22.17016,294.5298767089844,3.211905151788275,4.848525789217252,-9999,4538.632160375,-0.1965179443359375,0.9530181884765625,-0.0420989990234375,1,0.97
2020-05-19 13:58:09.541 -0400,1589911089.001687,41.35008141818168,-71.7498706460415,31.49615,22.17016,294.5298767089844,3.211905151788275,4.848525789217252,-9999,4538.682054375,-0.2212677001953125,0.919189453125,-0.1419677734375,1,0.97
2020-05-19 13:58:09.591 -0400,1589911089.001687,41.35008141818168,-71.7498706460415,31.49615,22.17016,294.5298767089844,3.211905151788275,4.848525789217252,-9999,4538.731949375,-0.1144256591796875,1.067184448242188,-0.044891357421875,1,0.97
2020-05-19 13:58:09.641 -0400,1589911089.001687,41.35008141818168,-71.7498706460415,31.49615,22.17016,294.5298767089844,3.211905151788275,4.848525789217252,-9999,4538.781843375,-0.0712127685546875,0.3717498779296875,-0.1402587890625,1,0.97
2020-05-19 13:58:09.690 -0400,1589911089.001687,41.35008141818168,-71.7498706460415,31.49615,22.17016,294.5298767089844,3.211905151788275,4.848525789217252,-9999,4538.831733375,-0.185150146484375,0.948455810546875,-0.0863189697265625,1,0.97
2020-05-19 13:58:09.740 -0400,1589911089.001687,41.35008141818168,-71.7498706460415,31.49615,22.17016,294.5298767089844,3.211905151788275,4.848525789217252,-9999,4538.881627375,-0.1947784423828125,1.188888549804688,-0.1884613037109375,1,0.97
2020-05-19 13:58:09.790 -0400,1589911089.001687,41.35008141818168,-71.7498706460415,31.49615,22.17016,294.5298767089844,3.211905151788275,4.848525789217252,-9999,4538.931520375,-0.214996337890625,1.042831420898438,-0.1142120361328125,1,0.97
2020-05-19 13:58:09.840 -0400,1589911089.001687,41.35008141818168,-71.7498706460415,31.49615,22.17016,294.5298767089844,3.211905151788275,4.848525789217252,-9999,4538.981414375,-0.1335601806640625,0.9749603271484375,-0.119720458984375,1,0.97
2020-05-19 13:58:09.890 -0400,1589911089.001687,41.35008141818168,-71.7498706460415,31.49615,22.17016,294.5298767089844,3.211905151788275,4.848525789217252,-9999,4539.031306375,-0.141510009765625,0.905029296875,-0.10064697265625,1,0.97
2020-05-19 13:58:09.940 -0400,1589911089.001687,41.35008141818168,-71.7498706460415,31.49615,22.17016,294.5298767089844,3.211905151788275,4.848525789217252,-9999,4539.081197375001,-0.19384765625,1.05145263671875,-0.0879669189453125,1,0.97
2020-05-19 13:58:09.990 -0400,1589911089.001687,41.35008141818168,-71.7498706460415,31.49615,22.17016,294.5298767089844,3.211905151788275,4.848525789217252,-9999,4539.131089375001,-0.2189788818359375,0.9285736083984375,-0.096771240234375,1,0.97
2020-05-19 13:58:10.040 -0400,1589911089.001687,41.35008141818168,-71.7498706460415,31.49615,22.17016,294.5298767089844,3.211905151788275,4.848525789217252,-9999,4539.180981375001,-0.1839141845703125,0.981170654296875,-0.1018524169921875,1,0.97
2020-05-19 13:58:10.090 -0400,1589911089.001687,41.35008141818168,-71.7498706460415,31.49615,22.17016,294.5298767089844,3.211905151788275,4.848525789217252,-9999,4539.230871375,-0.10662841796875,0.890045166015625,-0.180755615234375,1,0.97
2020-05-19 13:58:10.139 -0400,1589911089.001687,41.35008141818168,-71.7498706460415,31.49615,22.17016,294.5298767089844,3.211905151788275,4.848525789217252,-9999,4539.280759375,-0.1699676513671875,0.85748291015625,-0.0750579833984375,1,0.97
2020-05-19 13:58:10.189 -0400,1589911089.001687,41.35008141818168,-71.7498706460415,31.49615,22.17016,294.5298767089844,3.211905151788275,4.848525789217252,-9999,4539.330649375001,-0.1613311767578125,1.034439086914062,-0.0741424560546875,1,0.97
2020-05-19 13:58:10.239 -0400,1589911090.001701,41.3501636111069,-71.75010157310196,31.40624,21.58999,294.5298767089844,3.237617139662639,4.831394445680414,-9999,4539.380539375,-0.2039031982421875,0.9827423095703125,-0.13824462890625,1,0.97
2020-05-19 13:58:10.289 -0400,1589911090.001701,41.3501636111069,-71.75010157310196,31.40624,21.58999,294.5298767089844,3.237617139662639,4.831394445680414,-9999,4539.430428375001,-0.1815643310546875,0.8463287353515625,-0.06256103515625,1,0.97
2020-05-19 13:58:10.339 -0400,1589911090.001701,41.3501636111069,-71.75010157310196,31.40624,21.58999,294.5298767089844,3.237617139662639,4.831394445680414,-9999,4539.480317375001,-0.18292236328125,1.179031372070312,-0.0753173828125,1,0.97
2020-05-19 13:58:10.389 -0400,1589911090.001701,41.3501636111069,-71.75010157310196,31.40624,21.58999,294.5298767089844,3.237617139662639,4.831394445680414,-9999,4539.530209375001,-0.2692718505859375,1.052261352539062,-0.044708251953125,1,0.97
2020-05-19 13:58:10.439 -0400,1589911090.001701,41.3501636111069,-71.75010157310196,31.40624,21.58999,294.5298767089844,3.237617139662639,4.831394445680414,-9999,4539.580100375,-0.1790618896484375,1.032516479492188,-0.1214141845703125,1,0.97
2020-05-19 13:58:10.489 -0400,1589911090.001701,41.3501636111069,-71.75010157310196,31.40624,21.58999,294.5298767089844,3.237617139662639,4.831394445680414,-9999,4539.629988375001,-0.260650634765625,1.119171142578125,-0.294647216796875,1,0.97
2020-05-19 13:58:10.539 -0400,1589911090.001701,41.3501636111069,-71.75010157310196,31.40624,21.58999,294.5298767089844,3.237617139662639,4.831394445680414,-9999,4539.679878375,-0.3101654052734375,1.36126708984375,0.0286407470703125,1,0.97
2020-05-19 13:58:10.588 -0400,1589911090.001701,41.3501636111069,-71.75010157310196,31.40624,21.58999,294.5298767089844,3.237617139662639,4.831394445680414,-9999,4539.729770375,-0.1913909912109375,1.063735961914062,-0.178985595703125,1,0.97
2020-05-19 13:58:10.638 -0400,1589911090.001701,41.3501636111069,-71.75010157310196,31.40624,21.58999,294.5298767089844,3.237617139662639,4.831394445680414,-9999,4539.779660375,0.00537109375,0.7928619384765625,-0.1074066162109375,1,0.97
2020-05-19 13:58:10.688 -0400,1589911090.001701,41.3501636111069,-71.75010157310196,31.40624,21.58999,294.5298767089844,3.237617139662639,4.831394445680414,-9999,4539.829551375,-0.084228515625,0.523406982421875,-0.1433868408203125,1,0.97
2020-05-19 13:58:10.738 -0400,1589911090.001701,41.3501636111069,-71.75010157310196,31.40624,21.58999,294.5298767089844,3.237617139662639,4.831394445680414,-9999,4539.879442375001,-0.1617279052734375,0.87493896484375,-0.1993560791015625,1,0.97
2020-05-19 13:58:10.788 -0400,1589911090.001701,41.3501636111069,-71.75010157310196,31.40624,21.58999,294.5298767089844,3.237617139662639,4.831394445680414,-9999,4539.929332375,-0.2577972412109375,0.9993896484375,-0.085845947265625,1,0.97
2020-05-19 13:58:10.838 -0400,1589911090.001701,41.3501636111069,-71.75010157310196,31.40624,21.58999,294.5298767089844,3.237617139662639,4.831394445680414,-9999,4539.979224375,-0.1806793212890625,1.078231811523438,-0.096038818359375,1,0.97
2020-05-19 13:58:10.888 -0400,1589911090.001701,41.3501636111069,-71.75010157310196,31.40624,21.58999,294.5298767089844,3.237617139662639,4.831394445680414,-9999,4540.029118375001,-0.142181396484375,1.009780883789062,-0.141998291015625,1,0.97
