loggingTime(txt),locationTimestamp_since1970(s),locationLatitude(WGS84),locationLongitude(WGS84),locationAltitude(m),locationSpeed(m/s),locationCourse(°),locationVerticalAccuracy(m),locationHorizontalAccuracy(m),locationFloor(Z),accelerometerTimestamp_sinceReboot(s),accelerometerAccelerationX(G),accelerometerAccelerationY(G),accelerometerAccelerationZ(G),batteryState,batteryLevel
2020-05-19 15:00:34.822 -0400,1589914833.999996,41.37497512875023,-71.83042086972587,2.775625,0,81.74675750732422,3.484884499984001,4.656191260521855,-9999,6877.263797041667,-0.1576080322265625,-0.5947113037109375,-0.767364501953125,1,0.92
2020-05-19 15:00:34.870 -0400,1589914833.999996,41.37497512875023,-71.83042086972587,2.775625,0,81.74675750732422,3.484884499984001,4.656191260521855,-9999,6877.313688041667,-0.16448974609375,-0.618682861328125,-0.76092529296875,1,0.92
2020-05-19 15:00:34.920 -0400,1589914833.999996,41.37497512875023,-71.83042086972587,2.775625,0,81.74675750732422,3.484884499984001,4.656191260521855,-9999,6877.363575041667,-0.152740478515625,-0.6547698974609375,-0.727630615234375,1,0.92
2020-05-19 15:00:34.970 -0400,1589914833.999996,41.37497512875023,-71.83042086972587,2.775625,0,81.74675750732422,3.484884499984001,4.656191260521855,-9999,6877.413466041667,-0.1591949462890625,-0.658050537109375,-0.8045654296875,1,0.92
2020-05-19 15:00:35.020 -0400,1589914833.999996,41.37497512875023,-71.83042086972587,2.775625,0,81.74675750732422,3.484884499984001,4.656191260521855,-9999,6877.463356041667,-0.2094573974609375,-0.7491302490234375,-0.750396728515625,1,0.92
2020-05-19 15:00:35.070 -0400,1589914833.999996,41.37497512875023,-71.83042086972587,2.775625,0,81.74675750732422,3.484884499984001,4.656191260521855,-9999,6877.513248041667,-0.337646484375,-0.8044281005859375,-0.8726043701171875,1,0.92
2020-05-19 15:00:35.120 -0400,1589914833.999996,41.37497512875023,-71.83042086972587,2.775625,0,81.74675750732422,3.484884499984001,4.656191260521855,-9999,6877.563139041667,-0.2967987060546875,-0.7392120361328125,-1.0240478515625,1,0.92
2020-05-19 15:00:35.170 -0400,1589914833.999996,41.37497512875023,-71.83042086972587,2.775625,0,81.74675750732422,3.484884499984001,4.656191260521855,-9999,6877.613030041667,-0.289520263671875,-0.8450469970703125,-0.6525726318359375,1,0.92
2020-05-19 15:00:35.220 -0400,1589914833.999996,41.37497512875023,-71.83042086972587,2.775625,0,81.74675750732422,3.484884499984001,4.656191260521855,-9999,6877.662922041667,-0.14837646484375,-0.964691162109375,-0.625274658203125,1,0.92
2020-05-19 15:00:35.280 -0400,1589914835,41.37497742028161,-71.83041886339169,2.753587,0,81.74675750732422,3.479895740463778,4.659920886484114,-9999,6877.712812041667,-0.0402679443359375,-0.8729095458984375,-0.4456024169921875,1,0.92
2020-05-19 15:00:35.320 -0400,1589914835,41.37497742028161,-71.83041886339169,2.753587,0,81.74675750732422,3.479895740463778,4.659920886484114,-9999,6877.762701041667,0.2164459228515625,-0.90264892578125,-0.697906494140625,1,0.92
2020-05-19 15:00:35.370 -0400,1589914835,41.37497742028161,-71.83041886339169,2.753587,0,81.74675750732422,3.479895740463778,4.659920886484114,-9999,6877.812590041667,0.1200408935546875,-0.575042724609375,-0.604400634765625,1,0.92
2020-05-19 15:00:35.419 -0400,1589914835,41.37497742028161,-71.83041886339169,2.753587,0,81.74675750732422,3.479895740463778,4.659920886484114,-9999,6877.862479041667,0.0601654052734375,-0.584991455078125,-0.5745086669921875,1,0.92
2020-05-19 15:00:35.469 -0400,1589914835,41.37497742028161,-71.83041886339169,2.753587,0,81.74675750732422,3.479895740463778,4.659920886484114,-9999,6877.912368041667,0.1002044677734375,-0.020172119140625,-0.4613494873046875,1,0.92
2020-05-19 15:00:35.519 -0400,1589914835,41.37497742028161,-71.83041886339169,2.753587,0,81.74675750732422,3.479895740463778,4.659920886484114,-9999,6877.962257041667,0.247772216796875,0.5678558349609375,-0.4422760009765625,1,0.92
2020-05-19 15:00:35.569 -0400,1589914835,41.37497742028161,-71.83041886339169,2.753587,0,81.74675750732422,3.479895740463778,4.659920886484114,-9999,6878.012144041667,-0.3632659912109375,0.9277801513671875,-1.283676147460938,1,0.92
2020-05-19 15:00:35.619 -0400,1589914835,41.37497742028161,-71.83041886339169,2.753587,0,81.74675750732422,3.479895740463778,4.659920886484114,-9999,6878.062031041667,-0.0281219482421875,-0.3556671142578125,-0.5073699951171875,1,0.92
2020-05-19 15:00:35.669 -0400,1589914835,41.37497742028161,-71.83041886339169,2.753587,0,81.74675750732422,3.479895740463778,4.659920886484114,-9999,6878.111919041668,-0.3195037841796875,0.479644775390625,-1.078659057617188,1,0.92
2020-05-19 15:00:35.719 -0400,1589914835,41.37497742028161,-71.83041886339169,2.753587,0,81.74675750732422,3.479895740463778,4.659920886484114,-9999,6878.161807041667,-0.111175537109375,0.2146759033203125,-0.67327880859375,1,0.92
2020-05-19 15:00:35.778 -0400,1589914835,41.37497742028161,-71.83041886339169,2.753587,0,81.74675750732422,3.479895740463778,4.659920886484114,-9999,6878.211695041667,-0.125457763671875,0.596038818359375,-0.3470001220703125,1,0.92
2020-05-19 15:00:35.819 -0400,1589914835,41.37497742028161,-71.83041886339169,2.753587,0,81.74675750732422,3.479895740463778,4.659920886484114,-9999,6878.261586291667,-0.1948699951171875,0.6737060546875,0.07763671875,1,0.92
2020-05-19 15:00:35.868 -0400,1589914835,41.37497742028161,-71.83041886339169,2.753587,0,81.74675750732422,3.479895740463778,4.659920886484114,-9999,6878.311477291667,-0.1312408447265625,0.74359130859375,0.1062469482421875,1,0.92
2020-05-19 15:00:35.918 -0400,1589914835,41.37497742028161,-71.83041886339169,2.753587,0,81.74675750732422,3.479895740463778,4.659920886484114,-9999,6878.361365291667,-0.3202056884765625,1.2257080078125,0.7430267333984375,1,0.92
2020-05-19 15:00:35.968 -0400,1589914835,41.37497742028161,-71.83041886339169,2.753587,0,81.74675750732422,3.479895740463778,4.659920886484114,-9999,6878.411254291667,-0.6503448486328125,1.236648559570312,0.0735015869140625,1,0.92
2020-05-19 15:00:36.018 -0400,1589914835,41.37497742028161,-71.83041886339169,2.753587,0,81.74675750732422,3.479895740463778,4.659920886484114,-9999,6878.461144291667,-0.2569427490234375,1.684402465820312,-0.0473480224609375,1,0.92
2020-05-19 15:00:36.068 -0400,1589914835,41.37497742028161,-71.83041886339169,2.753587,0,81.74675750732422,3.479895740463778,4.659920886484114,-9999,6878.511037291667,0.058197021484375,1.042633056640625,-0.521270751953125,1,0.92
2020-05-19 15:00:36.118 -0400,1589914835,41.37497742028161,-71.83041886339169,2.753587,0,81.74675750732422,3.479895740463778,4.659920886484114,-9999,6878.560928291667,-0.4212493896484375,1.9500732421875,0.2706756591796875,1,0.92
2020-05-19 15:00:36.168 -0400,1589914835,41.37497742028161,-71.83041886339169,2.753587,0,81.74675750732422,3.479895740463778,4.659920886484114,-9999,6878.610820291667,-0.3997344970703125,2.736770629882812,1.023757934570312,1,0.92
2020-05-19 15:00:36.217 -0400,1589914835,41.37497742028161,-71.83041886339169,2.753587,0,81.74675750732422,3.479895740463778,4.659920886484114,-9999,6878.660711291667,-0.5067901611328125,2.32232666015625,0.40264892578125,1,0.92
2020-05-19 15:00:36.276 -0400,1589914836.000005,41.37497983678325,-71.83041533450549,2.794634,0,81.74675750732422,3.471039572217124,4.666521329737131,-9999,6878.710602291667,-0.782135009765625,1.241378784179688,-0.378387451171875,1,0.92
2020-05-19 15:00:36.317 -0400,1589914836.000005,41.37497983678325,-71.83041533450549,2.794634,0,81.74675750732422,3.471039572217124,4.666521329737131,-9999,6878.760495291667,-0.6965789794921875,0.2015380859375,-0.0193328857421875,1,0.92
2020-05-19 15:00:36.367 -0400,1589914836.000005,41.37497983678325,-71.83041533450549,2.794634,0,81.74675750732422,3.471039572217124,4.666521329737131,-9999,6878.810388291667,-0.7760772705078125,-0.53533935546875,-0.053863525390625,1,0.92
2020-05-19 15:00:36.417 -0400,1589914836.000005,41.37497983678325,-71.83041533450549,2.794634,0,81.74675750732422,3.471039572217124,4.666521329737131,-9999,6878.860279291667,-0.3672332763671875,-0.01806640625,0.0106658935546875,1,0.92
2020-05-19 15:00:36.467 -0400,1589914836.000005,41.37497983678325,-71.83041533450549,2.794634,0,81.74675750732422,3.471039572217124,4.666521329737131,-9999,6878.910174291667,0.0503692626953125,-0.02398681640625,-0.2703399658203125,1,0.92
2020-05-19 15:00:36.517 -0400,1589914836.000005,41.37497983678325,-71.83041533450549,2.794634,0,81.74675750732422,3.471039572217124,4.666521329737131,-9999,6878.960069291667,0.3368682861328125,-0.0318450927734375,-0.7089996337890625,1,0.92
2020-05-19 15:00:36.567 -0400,1589914836.000005,41.37497983678325,-71.83041533450549,2.794634,0,81.74675750732422,3.471039572217124,4.666521329737131,-9999,6879.009962291667,0.3629302978515625,-0.3726348876953125,-0.606048583984375,1,0.92
2020-05-19 15:00:36.617 -0400,1589914836.000005,41.37497983678325,-71.83041533450549,2.794634,0,81.74675750732422,3.471039572217124,4.666521329737131,-9999,6879.059856291668,0.426300048828125,0.2411651611328125,-0.326690673828125,1,0.92
2020-05-19 15:00:36.667 -0400,1589914836.000005,41.37497983678325,-71.83041533450549,2.794634,0,81.74675750732422,3.471039572217124,4.666521329737131,-9999,6879.109750291667,0.255218505859375,-0.3309173583984375,-0.119476318359375,1,0.92
2020-05-19 15:00:36.716 -0400,1589914836.000005,41.37497983678325,-71.83041533450549,2.794634,0,81.74675750732422,3.471039572217124,4.666521329737131,-9999,6879.159644291667,-0.6956787109375,1.591400146484375,-0.0071258544921875,1,0.92
2020-05-19 15:00:36.766 -0400,1589914836.000005,41.37497983678325,-71.83041533450549,2.794634,0,81.74675750732422,3.471039572217124,4.666521329737131,-9999,6879.209538291667,-0.4267578125,1.203659057617188,-0.054931640625,1,0.92
2020-05-19 15:00:36.816 -0400,1589914836.000005,41.37497983678325,-71.83041533450549,2.794634,0,81.74675750732422,3.471039572217124,4.666521329737131,-9999,6879.259429291667,-0.2824554443359375,1.171173095703125,0.077545166015625,1,0.92
2020-05-19 15:00:36.866 -0400,1589914836.000005,41.37497983678325,-71.83041533450549,2.794634,0,81.74675750732422,3.471039572217124,4.666521329737131,-9999,6879.309321875,-0.5804595947265625,1.201797485351562,0.065673828125,1,0.92
2020-05-19 15:00:36.916 -0400,1589914836.000005,41.37497983678325,-71.83041533450549,2.794634,0,81.74675750732422,3.471039572217124,4.666521329737131,-9999,6879.359215875001,-0.2913818359375,1.09674072265625,0.1968994140625,1,0.92
2020-05-19 15:00:36.966 -0400,1589914836.000005,41.37497983678325,-71.83041533450549,2.794634,0,81.74675750732422,3.471039572217124,4.666521329737131,-9999,6879.409107875001,-0.6089935302734375,1.4395751953125,0.438201904296875,1,0.92
2020-05-19 15:00:37.016 -0400,1589914836.000005,41.37497983678325,-71.83041533450549,2.794634,0,81.74675750732422,3.471039572217124,4.666521329737131,-9999,6879.459000875,-0.5065460205078125,1.449081420898438,0.5233917236328125,1,0.92
2020-05-19 15:00:37.066 -0400,1589914836.000005,41.37497983678325,-71.83041533450549,2.794634,0,81.74675750732422,3.471039572217124,4.666521329737131,-9999,6879.508892875,-0.146453857421875,1.13323974609375,0.34893798828125,1,0.92
2020-05-19 15:00:37.116 -0400,1589914836.000005,41.37497983678325,-71.83041533450549,2.794634,0,81.74675750732422,3.471039572217124,4.666521329737131,-9999,6879.558785875,0.085235595703125,1.216201782226562,0.3651123046875,1,0.92
2020-05-19 15:00:37.165 -0400,1589914836.000005,41.37497983678325,-71.83041533450549,2.794634,0,81.74675750732422,3.471039572217124,4.666521329737131,-9999,6879.608678875001,0.14581298828125,0.987640380859375,0.3130035400390625,1,0.92
2020-05-19 15:00:37.215 -0400,1589914836.000005,41.37497983678325,-71.83041533450549,2.794634,0,81.74675750732422,3.471039572217124,4.666521329737131,-9999,6879.658571875,0.13201904296875,1.114776611328125,0.47540283203125,1,0.92
2020-05-19 15:00:37.265 -0400,1589914836.000005,41.37497983678325,-71.83041533450549,2.794634,0,81.74675750732422,3.471039572217124,4.666521329737131,-9999,6879.708464875001,0.003936767578125,0.8664398193359375,0.523040771484375,1,0.92
2020-05-19 15:00:37.315 -0400,1589914837.00001,41.37498463025629,-71.83040681768381,2.736457,0,81.74675750732422,3.43100442745818,4.696035099054436,-9999,6879.758358875,0.00836181640625,0.8773345947265625,0.4549407958984375,1,0.92
2020-05-19 15:00:37.365 -0400,1589914837.00001,41.37498463025629,-71.83040681768381,2.736457,0,81.74675750732422,3.43100442745818,4.696035099054436,-9999,6879.808249875,-0.133544921875,0.9231414794921875,0.5521240234375,1,0.92
2020-05-19 15:00:37.415 -0400,1589914837.00001,41.37498463025629,-71.83040681768381,2.736457,0,81.74675750732422,3.43100442745818,4.696035099054436,-9999,6879.858144875,-0.1927032470703125,0.761138916015625,0.806396484375,1,0.92
2020-05-19 15:00:37.465 -0400,1589914837.00001,41.37498463025629,-71.83040681768381,2.736457,0,81.74675750732422,3.43100442745818,4.696035099054436,-9999,6879.908035875001,-0.06024169921875,0.64068603515625,0.526458740234375,1,0.92
2020-05-19 15:00:37.515 -0400,1589914837.00001,41.37498463025629,-71.83040681768381,2.736457,0,81.74675750732422,3.43100442745818,4.696035099054436,-9999,6879.957929875,-0.099945068359375,0.688446044921875,0.675933837890625,1,0.92
2020-05-19 15:00:37.565 -0400,1589914837.00001,41.37498463025629,-71.83040681768381,2.736457,0,81.74675750732422,3.43100442745818,4.696035099054436,-9999,6880.007823875,-0.05780029296875,0.8785552978515625,0.55712890625,1,0.92
2020-05-19 15:00:37.615 -0400,1589914837.00001,41.37498463025629,-71.83040681768381,2.736457,0,81.74675750732422,3.43100442745818,4.696035099054436,-9999,6880.057714875001,-0.104888916015625,0.8897552490234375,0.5006256103515625,1,0.92
2020-05-19 15:00:37.664 -0400,1589914837.00001,41.37498463025629,-71.83040681768381,2.736457,0,81.74675750732422,3.43100442745818,4.696035099054436,-9999,6880.107604875,-0.10504150390625,0.9306793212890625,0.6179962158203125,1,0.92
2020-05-19 15:00:37.714 -0400,1589914837.00001,41.37498463025629,-71.83040681768381,2.736457,0,81.74675750732422,3.43100442745818,4.696035099054436,-9999,6880.157496875,-0.073028564453125,0.903289794921875,0.405029296875,1,0.92
2020-05-19 15:00:37.764 -0400,1589914837.00001,41.37498463025629,-71.83040681768381,2.736457,0,81.74675750732422,3.43100442745818,4.696035099054436,-9999,6880.207390875001,-0.0287933349609375,0.929443359375,0.3483734130859375,1,0.92
2020-05-19 15:00:37.814 -0400,1589914837.00001,41.37498463025629,-71.83040681768381,2.736457,0,81.74675750732422,3.43100442745818,4.696035099054436,-9999,6880.257285875,-0.054840087890625,0.933563232421875,0.3486328125,1,0.92
2020-05-19 15:00:37.865 -0400,1589914837.00001,41.37498463025629,-71.83040681768381,2.736457,0,81.74675750732422,3.43100442745818,4.696035099054436,-9999,6880.307178916667,-0.107666015625,0.89422607421875,0.29364013671875,1,0.92
2020-05-19 15:00:37.914 -0400,1589914837.00001,41.37498463025629,-71.83040681768381,2.736457,0,81.74675750732422,3.43100442745818,4.696035099054436,-9999,6880.357073916667,-0.1464080810546875,1.031051635742188,0.3434906005859375,1,0.92
2020-05-19 15:00:37.964 -0400,1589914837.00001,41.37498463025629,-71.83040681768381,2.736457,0,81.74675750732422,3.43100442745818,4.696035099054436,-9999,6880.406971916667,-0.15277099609375,1.320907592773438,0.3289642333984375,1,0.92
2020-05-19 15:00:38.014 -0400,1589914837.00001,41.37498463025629,-71.83040681768381,2.736457,0,81.74675750732422,3.43100442745818,4.696035099054436,-9999,6880.456868916667,-0.3831939697265625,1.617538452148438,0.238861083984375,1,0.92
2020-05-19 15:00:38.064 -0400,1589914837.00001,41.37498463025629,-71.83040681768381,2.736457,0,81.74675750732422,3.43100442745818,4.696035099054436,-9999,6880.506765916667,-0.631500244140625,1.834365844726562,-0.267181396484375,1,0.92
2020-05-19 15:00:38.114 -0400,1589914837.00001,41.37498463025629,-71.83040681768381,2.736457,0,81.74675750732422,3.43100442745818,4.696035099054436,-9999,6880.556663916667,-0.7756805419921875,1.25689697265625,0.165435791015625,1,0.92
2020-05-19 15:00:38.163 -0400,1589914837.00001,41.37498463025629,-71.83040681768381,2.736457,0,81.74675750732422,3.43100442745818,4.696035099054436,-9999,6880.606559916667,-1.292510986328125,0.9786834716796875,1.163711547851562,1,0.92
2020-05-19 15:00:38.213 -0400,1589914837.00001,41.37498463025629,-71.83040681768381,2.736457,0,81.74675750732422,3.43100442745818,4.696035099054436,-9999,6880.656454916667,-0.1206817626953125,1.10821533203125,0.663970947265625,1,0.92
2020-05-19 15:00:38.263 -0400,1589914837.00001,41.37498463025629,-71.83040681768381,2.736457,0,81.74675750732422,3.43100442745818,4.696035099054436,-9999,6880.706352916667,0.2710113525390625,1.263565063476562,-0.0651702880859375,1,0.92
2020-05-19 15:00:38.313 -0400,1589914838.000015,41.3750004015784,-71.83038633993698,2.77912,2.417736,78.29044342041016,3.4111000283407,4.710513096196943,-9999,6880.756250916667,-0.287933349609375,0.456573486328125,0.1940765380859375,1,0.92
2020-05-19 15:00:38.363 -0400,1589914838.000015,41.3750004015784,-71.83038633993698,2.77912,2.417736,78.29044342041016,3.4111000283407,4.710513096196943,-9999,6880.806148916667,0.29425048828125,0.377899169921875,-0.048248291015625,1,0.92
2020-05-19 15:00:38.413 -0400,1589914838.000015,41.3750004015784,-71.83038633993698,2.77912,2.417736,78.29044342041016,3.4111000283407,4.710513096196943,-9999,6880.856049916667,0.1721038818359375,0.1082916259765625,-0.225738525390625,1,0.92
2020-05-19 15:00:38.463 -0400,1589914838.000015,41.3750004015784,-71.83038633993698,2.77912,2.417736,78.29044342041016,3.4111000283407,4.710513096196943,-9999,6880.905949916667,0.69378662109375,-0.2992706298828125,-0.4672393798828125,1,0.92
2020-05-19 15:00:38.513 -0400,1589914838.000015,41.3750004015784,-71.83038633993698,2.77912,2.417736,78.29044342041016,3.4111000283407,4.710513096196943,-9999,6880.955847916667,0.9951629638671875,-1.061691284179688,-0.3378448486328125,1,0.92
2020-05-19 15:00:38.563 -0400,1589914838.000015,41.3750004015784,-71.83038633993698,2.77912,2.417736,78.29044342041016,3.4111000283407,4.710513096196943,-9999,6881.005746916667,0.6004486083984375,-1.193954467773438,-0.5214996337890625,1,0.92
2020-05-19 15:00:38.613 -0400,1589914838.000015,41.3750004015784,-71.83038633993698,2.77912,2.417736,78.29044342041016,3.4111000283407,4.710513096196943,-9999,6881.055644916667,0.896881103515625,-1.2286376953125,-0.7872314453125,1,0.92
2020-05-19 15:00:38.662 -0400,1589914838.000015,41.3750004015784,-71.83038633993698,2.77912,2.417736,78.29044342041016,3.4111000283407,4.710513096196943,-9999,6881.105542916667,0.64617919921875,-0.787384033203125,-1.235153198242188,1,0.92
2020-05-19 15:00:38.712 -0400,1589914838.000015,41.3750004015784,-71.83038633993698,2.77912,2.417736,78.29044342041016,3.4111000283407,4.710513096196943,-9999,6881.155441916667,0.1894073486328125,-0.8734130859375,-1.1304931640625,1,0.92
2020-05-19 15:00:38.762 -0400,1589914838.000015,41.3750004015784,-71.83038633993698,2.77912,2.417736,78.29044342041016,3.4111000283407,4.710513096196943,-9999,6881.205337916667,-0.5554962158203125,0.3829345703125,-1.073211669921875,1,0.92
2020-05-19 15:00:38.812 -0400,1589914838.000015,41.3750004015784,-71.83038633993698,2.77912,2.417736,78.29044342041016,3.4111000283407,4.710513096196943,-9999,6881.255231916667,-1.212875366210938,1.713729858398438,-0.4495849609375,1,0.92
2020-05-19 15:00:38.862 -0400,1589914838.000015,41.3750004015784,-71.83038633993698,2.77912,2.417736,78.29044342041016,3.4111000283407,4.710513096196943,-9999,6881.305127750001,-1.685592651367188,2.552261352539062,-0.008026123046875,1,0.92
2020-05-19 15:00:38.912 -0400,1589914838.000015,41.3750004015784,-71.83038633993698,2.77912,2.417736,78.29044342041016,3.4111000283407,4.710513096196943,-9999,6881.355019750001,-1.5047607421875,1.28570556640625,-0.5045318603515625,1,0.92
2020-05-19 15:00:38.962 -0400,1589914838.000015,41.3750004015784,-71.83038633993698,2.77912,2.417736,78.29044342041016,3.4111000283407,4.710513096196943,-9999,6881.40491275,-0.5434417724609375,1.24658203125,0.24102783203125,1,0.92
2020-05-19 15:00:39.012 -0400,1589914838.000015,41.3750004015784,-71.83038633993698,2.77912,2.417736,78.29044342041016,3.4111000283407,4.710513096196943,-9999,6881.45480675,0.240447998046875,1.244796752929688,0.3082275390625,1,0.92
2020-05-19 15:00:39.062 -0400,1589914838.000015,41.3750004015784,-71.83038633993698,2.77912,2.417736,78.29044342041016,3.4111000283407,4.710513096196943,-9999,6881.504700750001,-0.0863494873046875,1.0518798828125,0.1797637939453125,1,0.92
2020-05-19 15:00:39.111 -0400,1589914838.000015,41.3750004015784,-71.83038633993698,2.77912,2.417736,78.29044342041016,3.4111000283407,4.710513096196943,-9999,6881.55459875,0.0940399169921875,0.3935394287109375,-0.286224365234375,1,0.92
2020-05-19 15:00:39.162 -0400,1589914838.000015,41.3750004015784,-71.83038633993698,2.77912,2.417736,78.29044342041016,3.4111000283407,4.710513096196943,-9999,6881.604495750001,0.1440277099609375,0.345306396484375,-0.24609375,1,0.92
2020-05-19 15:00:39.211 -0400,1589914838.000015,41.3750004015784,-71.83038633993698,2.77912,2.417736,78.29044342041016,3.4111000283407,4.710513096196943,-9999,6881.65439175,-0.1434783935546875,-0.072662353515625,-0.5396881103515625,1,0.92
2020-05-19 15:00:39.261 -0400,1589914838.000015,41.3750004015784,-71.83038633993698,2.77912,2.417736,78.29044342041016,3.4111000283407,4.710513096196943,-9999,6881.70428675,0.1070404052734375,-0.3713531494140625,-0.8537445068359375,1,0.92
2020-05-19 15:00:39.311 -0400,1589914838.000015,41.3750004015784,-71.83038633993698,2.77912,2.417736,78.29044342041016,3.4111000283407,4.710513096196943,-9999,6881.75418175,-0.095245361328125,-0.3870697021484375,-0.7762451171875,1,0.92
2020-05-19 15:00:39.361 -0400,1589914838.000015,41.3750004015784,-71.83038633993698,2.77912,2.417736,78.29044342041016,3.4111000283407,4.710513096196943,-9999,6881.80407775,-0.1707916259765625,-0.4220428466796875,-0.9844512939453125,1,0.92
2020-05-19 15:00:39.413 -0400,1589914839.000021,41.3750196702816,-71.83036958466698,3.090917,3.031843,42.95100743130345,3.374857511523286,4.736546612216932,-9999,6881.85397075,-0.3120269775390625,-0.393707275390625,-1.163070678710938,1,0.92
2020-05-19 15:00:39.461 -0400,1589914839.000021,41.3750196702816,-71.83036958466698,3.090917,3.031843,42.95100743130345,3.374857511523286,4.736546612216932,-9999,6881.90386475,-0.19000244140625,-0.5270538330078125,-1.071044921875,1,0.92
2020-05-19 15:00:39.511 -0400,1589914839.000021,41.3750196702816,-71.83036958466698,3.090917,3.031843,42.95100743130345,3.374857511523286,4.736546612216932,-9999,6881.95375675,-0.2249603271484375,-0.348297119140625,-0.9863433837890625,1,0.92
2020-05-19 15:00:39.561 -0400,1589914839.000021,41.3750196702816,-71.83036958466698,3.090917,3.031843,42.95100743130345,3.374857511523286,4.736546612216932,-9999,6882.00364975,-0.29461669921875,-0.2960052490234375,-0.969757080078125,1,0.92
2020-05-19 15:00:39.611 -0400,1589914839.000021,41.3750196702816,-71.83036958466698,3.090917,3.031843,42.95100743130345,3.374857511523286,4.736546612216932,-9999,6882.05354375,-0.213104248046875,-0.41796875,-1.0819091796875,1,0.92
2020-05-19 15:00:39.660 -0400,1589914839.000021,41.3750196702816,-71.83036958466698,3.090917,3.031843,42.95100743130345,3.374857511523286,4.736546612216932,-9999,6882.103436750001,-0.252685546875,-0.2537994384765625,-0.985076904296875,1,0.92
2020-05-19 15:00:39.710 -0400,1589914839.000021,41.3750196702816,-71.83036958466698,3.090917,3.031843,42.95100743130345,3.374857511523286,4.736546612216932,-9999,6882.153328750001,-0.0690765380859375,-0.07733154296875,-0.9493255615234375,1,0.92
2020-05-19 15:00:39.760 -0400,1589914839.000021,41.3750196702816,-71.83036958466698,3.090917,3.031843,42.95100743130345,3.374857511523286,4.736546612216932,-9999,6882.203218750001,-0.3138275146484375,-0.3444976806640625,-0.9113922119140625,1,0.92
2020-05-19 15:00:39.810 -0400,1589914839.000021,41.3750196702816,-71.83036958466698,3.090917,3.031843,42.95100743130345,3.374857511523286,4.736546612216932,-9999,6882.25311175,-0.3179168701171875,0.0611114501953125,-0.8777313232421875,1,0.92
2020-05-19 15:00:39.860 -0400,1589914839.000021,41.3750196702816,-71.83036958466698,3.090917,3.031843,42.95100743130345,3.374857511523286,4.736546612216932,-9999,6882.303005875,-0.2964935302734375,-0.10455322265625,-0.8141021728515625,1,0.92
2020-05-19 15:00:39.910 -0400,1589914839.000021,41.3750196702816,-71.83036958466698,3.090917,3.031843,42.95100743130345,3.374857511523286,4.736546612216932,-9999,6882.352898875,-0.46331787109375,0.267852783203125,-0.867919921875,1,0.92
2020-05-19 15:00:39.960 -0400,1589914839.000021,41.3750196702816,-71.83036958466698,3.090917,3.031843,42.95100743130345,3.374857511523286,4.736546612216932,-9999,6882.402794875001,-0.4594268798828125,0.1682891845703125,-0.8707733154296875,1,0.92
2020-05-19 15:00:40.010 -0400,1589914839.000021,41.3750196702816,-71.83036958466698,3.090917,3.031843,42.95100743130345,3.374857511523286,4.736546612216932,-9999,6882.452685875,-0.42193603515625,0.1708984375,-0.9296112060546875,1,0.92
2020-05-19 15:00:40.060 -0400,1589914839.000021,41.3750196702816,-71.83036958466698,3.090917,3.031843,42.95100743130345,3.374857511523286,4.736546612216932,-9999,6882.502574875,-0.45355224609375,-0.0359954833984375,-0.8808746337890625,1,0.92
2020-05-19 15:00:40.109 -0400,1589914839.000021,41.3750196702816,-71.83036958466698,3.090917,3.031843,42.95100743130345,3.374857511523286,4.736546612216932,-9999,6882.552462875001,-0.4209442138671875,0.0900726318359375,-0.87603759765625,1,0.92
2020-05-19 15:00:40.159 -0400,1589914839.000021,41.3750196702816,-71.83036958466698,3.090917,3.031843,42.95100743130345,3.374857511523286,4.736546612216932,-9999,6882.602351875001,-0.3623199462890625,-0.0020294189453125,-0.920440673828125,1,0.92
2020-05-19 15:00:40.209 -0400,1589914839.000021,41.3750196702816,-71.83036958466698,3.090917,3.031843,42.95100743130345,3.374857511523286,4.736546612216932,-9999,6882.652238875,-0.3195343017578125,-0.0244140625,-0.9729156494140625,1,0.92
2020-05-19 15:00:40.259 -0400,1589914839.000021,41.3750196702816,-71.83036958466698,3.090917,3.031843,42.95100743130345,3.374857511523286,4.736546612216932,-9999,6882.702129875001,-0.3493804931640625,-0.1648406982421875,-0.959808349609375,1,0.92
2020-05-19 15:00:40.309 -0400,1589914839.000021,41.3750196702816,-71.83036958466698,3.090917,3.031843,42.95100743130345,3.374857511523286,4.736546612216932,-9999,6882.752020875,-0.326629638671875,-0.2000885009765625,-0.9089813232421875,1,0.92
2020-05-19 15:00:40.359 -0400,1589914839.000021,41.3750196702816,-71.83036958466698,3.090917,3.031843,42.95100743130345,3.374857511523286,4.736546612216932,-9999,6882.801911875001,-0.30657958984375,0.0624847412109375,-0.91278076171875,1,0.92
2020-05-19 15:00:40.409 -0400,1589914840.000026,41.37504092987261,-71.83033957296948,3.250522,3.709196,45.73023043162517,3.332002244289948,4.766791171934804,-9999,6882.851803875001,-0.3355712890625,0.195159912109375,-0.9012908935546875,1,0.92
2020-05-19 15:00:40.459 -0400,1589914840.000026,41.37504092987261,-71.83033957296948,3.250522,3.709196,45.73023043162517,3.332002244289948,4.766791171934804,-9999,6882.901697875001,-0.3462982177734375,0.1661376953125,-0.9310760498046875,1,0.92
2020-05-19 15:00:40.508 -0400,1589914840.000026,41.37504092987261,-71.83033957296948,3.250522,3.709196,45.73023043162517,3.332002244289948,4.766791171934804,-9999,6882.951589875001,-0.211944580078125,0.1004486083984375,-1.044357299804688,1,0.92
2020-05-19 15:00:40.558 -0400,1589914840.000026,41.37504092987261,-71.83033957296948,3.250522,3.709196,45.73023043162517,3.332002244289948,4.766791171934804,-9999,6883.001481875001,-0.05731201171875,-0.0329742431640625,-1.010208129882812,1,0.92
2020-05-19 15:00:40.608 -0400,1589914840.000026,41.37504092987261,-71.83033957296948,3.250522,3.709196,45.73023043162517,3.332002244289948,4.766791171934804,-9999,6883.051373875001,-0.0792388916015625,0.2105560302734375,-0.568511962890625,1,0.92
2020-05-19 15:00:40.658 -0400,1589914840.000026,41.37504092987261,-71.83033957296948,3.250522,3.709196,45.73023043162517,3.332002244289948,4.766791171934804,-9999,6883.101266875,-0.0630340576171875,0.1397857666015625,-0.784271240234375,1,0.92
2020-05-19 15:00:40.708 -0400,1589914840.000026,41.37504092987261,-71.83033957296948,3.250522,3.709196,45.73023043162517,3.332002244289948,4.766791171934804,-9999,6883.151162875,-0.3720855712890625,0.439971923828125,-0.6100616455078125,1,0.92
2020-05-19 15:00:40.758 -0400,1589914840.000026,41.37504092987261,-71.83033957296948,3.250522,3.709196,45.73023043162517,3.332002244289948,4.766791171934804,-9999,6883.201059875,-0.4678497314453125,0.6827392578125,-0.5716705322265625,1,0.92
2020-05-19 15:00:40.808 -0400,1589914840.000026,41.37504092987261,-71.83033957296948,3.250522,3.709196,45.73023043162517,3.332002244289948,4.766791171934804,-9999,6883.250955875001,-0.6918487548828125,1.193069458007812,-0.18902587890625,1,0.92
2020-05-19 15:00:40.859 -0400,1589914840.000026,41.37504092987261,-71.83033957296948,3.250522,3.709196,45.73023043162517,3.332002244289948,4.766791171934804,-9999,6883.300853625001,-0.63970947265625,1.352935791015625,0.358001708984375,1,0.92
2020-05-19 15:00:40.908 -0400,1589914840.000026,41.37504092987261,-71.83033957296948,3.250522,3.709196,45.73023043162517,3.332002244289948,4.766791171934804,-9999,6883.350747625001,-0.5698699951171875,1.414291381835938,0.24835205078125,1,0.92
2020-05-19 15:00:40.958 -0400,1589914840.000026,41.37504092987261,-71.83033957296948,3.250522,3.709196,45.73023043162517,3.332002244289948,4.766791171934804,-9999,6883.400638625,-0.3443450927734375,1.632339477539062,0.0122528076171875,1,0.92
2020-05-19 15:00:41.008 -0400,1589914840.000026,41.37504092987261,-71.83033957296948,3.250522,3.709196,45.73023043162517,3.332002244289948,4.766791171934804,-9999,6883.450530625,-0.1844940185546875,1.057693481445312,-0.208526611328125,1,0.92
2020-05-19 15:00:41.057 -0400,1589914840.000026,41.37504092987261,-71.83033957296948,3.250522,3.709196,45.73023043162517,3.332002244289948,4.766791171934804,-9999,6883.500425625,-0.16314697265625,0.892608642578125,-0.09619140625,1,0.92
2020-05-19 15:00:41.107 -0400,1589914840.000026,41.37504092987261,-71.83033957296948,3.250522,3.709196,45.73023043162517,3.332002244289948,4.766791171934804,-9999,6883.550319625,-0.199951171875,1.109832763671875,-0.087890625,1,0.92
2020-05-19 15:00:41.157 -0400,1589914840.000026,41.37504092987261,-71.83033957296948,3.250522,3.709196,45.73023043162517,3.332002244289948,4.766791171934804,-9999,6883.600213625001,-0.3327789306640625,0.2932281494140625,-0.1492919921875,1,0.92
2020-05-19 15:00:41.207 -0400,1589914840.000026,41.37504092987261,-71.83033957296948,3.250522,3.709196,45.73023043162517,3.332002244289948,4.766791171934804,-9999,6883.650106625,-0.3313446044921875,0.7909393310546875,-0.0778350830078125,1,0.92
2020-05-19 15:00:41.257 -0400,1589914840.000026,41.37504092987261,-71.83033957296948,3.250522,3.709196,45.73023043162517,3.332002244289948,4.766791171934804,-9999,6883.699999625001,-0.29150390625,1.1259765625,-0.109771728515625,1,0.92
2020-05-19 15:00:41.307 -0400,1589914840.000026,41.37504092987261,-71.83033957296948,3.250522,3.709196,45.73023043162517,3.332002244289948,4.766791171934804,-9999,6883.749891625001,-0.349090576171875,1.034561157226562,-0.1077728271484375,1,0.92
2020-05-19 15:00:41.357 -0400,1589914841.000031,41.37505215950026,-71.83029640546465,3.492602,4.165715,78.29044342041016,3.267164418262965,4.811462739835491,-9999,6883.799783625001,-0.3631744384765625,0.8287353515625,-0.322723388671875,1,0.92
2020-05-19 15:00:41.407 -0400,1589914841.000031,41.37505215950026,-71.83029640546465,3.492602,4.165715,78.29044342041016,3.267164418262965,4.811462739835491,-9999,6883.849675625001,-0.4176788330078125,0.93328857421875,-0.3539276123046875,1,0.92
2020-05-19 15:00:41.457 -0400,1589914841.000031,41.37505215950026,-71.83029640546465,3.492602,4.165715,78.29044342041016,3.267164418262965,4.811462739835491,-9999,6883.899565625001,-0.495513916015625,1.014205932617188,-0.2776641845703125,1,0.92
2020-05-19 15:00:41.506 -0400,1589914841.000031,41.37505215950026,-71.83029640546465,3.492602,4.165715,78.29044342041016,3.267164418262965,4.811462739835491,-9999,6883.949453625,-0.6387939453125,0.9340057373046875,-1.061126708984375,1,0.92
2020-05-19 15:00:41.556 -0400,1589914841.000031,41.37505215950026,-71.83029640546465,3.492602,4.165715,78.29044342041016,3.267164418262965,4.811462739835491,-9999,6883.999343625001,-0.2969512939453125,1.3817138671875,-0.8198394775390625,1,0.92
2020-05-19 15:00:41.606 -0400,1589914841.000031,41.37505215950026,-71.83029640546465,3.492602,4.165715,78.29044342041016,3.267164418262965,4.811462739835491,-9999,6884.049234625,-0.2538909912109375,0.7924957275390625,-0.5656890869140625,1,0.92
2020-05-19 15:00:41.656 -0400,1589914841.000031,41.37505215950026,-71.83029640546465,3.492602,4.165715,78.29044342041016,3.267164418262965,4.811462739835491,-9999,6884.099125625001,-0.1545562744140625,0.3043060302734375,-0.597198486328125,1,0.92
2020-05-19 15:00:41.706 -0400,1589914841.000031,41.37505215950026,-71.83029640546465,3.492602,4.165715,78.29044342041016,3.267164418262965,4.811462739835491,-9999,6884.149014625001,-0.093170166015625,0.1623992919921875,-0.719024658203125,1,0.92
2020-05-19 15:00:41.756 -0400,1589914841.000031,41.37505215950026,-71.83029640546465,3.492602,4.165715,78.29044342041016,3.267164418262965,4.811462739835491,-9999,6884.198904625,-0.147796630859375,-0.08270263671875,-0.6788330078125,1,0.92
2020-05-19 15:00:41.806 -0400,1589914841.000031,41.37505215950026,-71.83029640546465,3.492602,4.165715,78.29044342041016,3.267164418262965,4.811462739835491,-9999,6884.248797625,-0.2469482421875,0.082122802734375,-0.7966461181640625,1,0.92
2020-05-19 15:00:41.856 -0400,1589914841.000031,41.37505215950026,-71.83029640546465,3.492602,4.165715,78.29044342041016,3.267164418262965,4.811462739835491,-9999,6884.298685375001,-0.1656036376953125,-0.1320648193359375,-0.828948974609375,1,0.92
2020-05-19 15:00:41.915 -0400,1589914841.000031,41.37505215950026,-71.83029640546465,3.492602,4.165715,78.29044342041016,3.267164418262965,4.811462739835491,-9999,6884.348572375,-0.1425933837890625,-0.0912017822265625,-0.855987548828125,1,0.92
2020-05-19 15:00:41.956 -0400,1589914841.000031,41.37505215950026,-71.83029640546465,3.492602,4.165715,78.29044342041016,3.267164418262965,4.811462739835491,-9999,6884.398463375001,-0.0762176513671875,-0.1567840576171875,-0.9098052978515625,1,0.92
2020-05-19 15:00:42.005 -0400,1589914841.000031,41.37505215950026,-71.83029640546465,3.492602,4.165715,78.29044342041016,3.267164418262965,4.811462739835491,-9999,6884.448355375001,0.0119171142578125,-0.38446044921875,-0.9336700439453125,1,0.92
2020-05-19 15:00:42.055 -0400,1589914841.000031,41.37505215950026,-71.83029640546465,3.492602,4.165715,78.29044342041016,3.267164418262965,4.811462739835491,-9999,6884.498246375,0.0966796875,-0.523193359375,-1.112899780273438,1,0.92
2020-05-19 15:00:42.105 -0400,1589914841.000031,41.37505215950026,-71.83029640546465,3.492602,4.165715,78.29044342041016,3.267164418262965,4.811462739835491,-9999,6884.548133375,-0.056488037109375,-0.49395751953125,-1.097885131835938,1,0.92
2020-05-19 15:00:42.155 -0400,1589914841.000031,41.37505215950026,-71.83029640546465,3.492602,4.165715,78.29044342041016,3.267164418262965,4.811462739835491,-9999,6884.598023375001,0.1123809814453125,-0.5377349853515625,-0.9070892333984375,1,0.92
2020-05-19 15:00:42.205 -0400,1589914841.000031,41.37505215950026,-71.83029640546465,3.492602,4.165715,78.29044342041016,3.267164418262965,4.811462739835491,-9999,6884.647914375,0.42236328125,-0.702880859375,-1.027847290039062,1,0.92
2020-05-19 15:00:42.255 -0400,1589914841.000031,41.37505215950026,-71.83029640546465,3.492602,4.165715,78.29044342041016,3.267164418262965,4.811462739835491,-9999,6884.697805375001,0.97607421875,-0.4347381591796875,-0.670867919921875,1,0.92
2020-05-19 15:00:42.305 -0400,1589914842.000037,41.37505018659336,-71.83025258293932,3.554464,3.636079,78.29044342041016,3.207337402405648,4.851548600181042,-9999,6884.747695375,0.37286376953125,-0.1924591064453125,-1.037872314453125,1,0.92
2020-05-19 15:00:42.354 -0400,1589914842.000037,41.37505018659336,-71.83025258293932,3.554464,3.636079,78.29044342041016,3.207337402405648,4.851548600181042,-9999,6884.797585375,-0.0433502197265625,0.02008056640625,-0.6703643798828125,1,0.92
2020-05-19 15:00:42.404 -0400,1589914842.000037,41.37505018659336,-71.83025258293932,3.554464,3.636079,78.29044342041016,3.207337402405648,4.851548600181042,-9999,6884.847474375,-0.4810943603515625,0.26361083984375,-0.60528564453125,1,0.92
2020-05-19 15:00:42.454 -0400,1589914842.000037,41.37505018659336,-71.83025258293932,3.554464,3.636079,78.29044342041016,3.207337402405648,4.851548600181042,-9999,6884.897362375001,-0.61651611328125,1.212646484375,-0.794525146484375,1,0.92
2020-05-19 15:00:42.504 -0400,1589914842.000037,41.37505018659336,-71.83025258293932,3.554464,3.636079,78.29044342041016,3.207337402405648,4.851548600181042,-9999,6884.947247375,-1.161087036132812,1.249679565429688,-0.459136962890625,1,0.92
2020-05-19 15:00:42.554 -0400,1589914842.000037,41.37505018659336,-71.83025258293932,3.554464,3.636079,78.29044342041016,3.207337402405648,4.851548600181042,-9999,6884.997134375,-0.6933746337890625,1.364303588867188,-0.6507568359375,1,0.92
2020-05-19 15:00:42.604 -0400,1589914842.000037,41.37505018659336,-71.83025258293932,3.554464,3.636079,78.29044342041016,3.207337402405648,4.851548600181042,-9999,6885.047021375,-0.32305908203125,0.765289306640625,-1.210494995117188,1,0.92
2020-05-19 15:00:42.654 -0400,1589914842.000037,41.37505018659336,-71.83025258293932,3.554464,3.636079,78.29044342041016,3.207337402405648,4.851548600181042,-9999,6885.096911375001,0.034210205078125,0.78753662109375,-1.402297973632812,1,0.92
2020-05-19 15:00:42.704 -0400,1589914842.000037,41.37505018659336,-71.83025258293932,3.554464,3.636079,78.29044342041016,3.207337402405648,4.851548600181042,-9999,6885.146802375,0.1868438720703125,0.3930511474609375,-1.102981567382812,1,0.92
2020-05-19 15:00:42.754 -0400,1589914842.000037,41.37505018659336,-71.83025258293932,3.554464,3.636079,78.29044342041016,3.207337402405648,4.851548600181042,-9999,6885.196691375,0.313934326171875,0.1568756103515625,-0.7998046875,1,0.92
2020-05-19 15:00:42.804 -0400,1589914842.000037,41.37505018659336,-71.83025258293932,3.554464,3.636079,78.29044342041016,3.207337402405648,4.851548600181042,-9999,6885.246580375,0.253509521484375,0.2179412841796875,-1.041168212890625,1,0.92
2020-05-19 15:00:42.853 -0400,1589914842.000037,41.37505018659336,-71.83025258293932,3.554464,3.636079,78.29044342041016,3.207337402405648,4.851548600181042,-9999,6885.296468375001,-0.1278076171875,0.1895904541015625,-0.9082794189453125,1,0.92
2020-05-19 15:00:42.904 -0400,1589914842.000037,41.37505018659336,-71.83025258293932,3.554464,3.636079,78.29044342041016,3.207337402405648,4.851548600181042,-9999,6885.346357375,-0.0135955810546875,0.08514404296875,-1.045806884765625,1,0.92
2020-05-19 15:00:42.953 -0400,1589914842.000037,41.37505018659336,-71.83025258293932,3.554464,3.636079,78.29044342041016,3.207337402405648,4.851548600181042,-9999,6885.396246375,0.1527862548828125,0.048187255859375,-0.89556884765625,1,0.92
2020-05-19 15:00:43.003 -0400,1589914842.000037,41.37505018659336,-71.83025258293932,3.554464,3.636079,78.29044342041016,3.207337402405648,4.851548600181042,-9999,6885.446137375,0.307830810546875,0.0294952392578125,-0.9352569580078125,1,0.92
2020-05-19 15:00:43.053 -0400,1589914842.000037,41.37505018659336,-71.83025258293932,3.554464,3.636079,78.29044342041016,3.207337402405648,4.851548600181042,-9999,6885.496026375001,0.06280517578125,0.09222412109375,-0.981170654296875,1,0.92
2020-05-19 15:00:43.103 -0400,1589914842.000037,41.37505018659336,-71.83025258293932,3.554464,3.636079,78.29044342041016,3.207337402405648,4.851548600181042,-9999,6885.545918375001,0.001800537109375,0.065185546875,-0.9641571044921875,1,0.92
2020-05-19 15:00:43.153 -0400,1589914842.000037,41.37505018659336,-71.83025258293932,3.554464,3.636079,78.29044342041016,3.207337402405648,4.851548600181042,-9999,6885.595811375,0.0280914306640625,0.0030670166015625,-1.02154541015625,1,0.92
2020-05-19 15:00:43.203 -0400,1589914842.000037,41.37505018659336,-71.83025258293932,3.554464,3.636079,78.29044342041016,3.207337402405648,4.851548600181042,-9999,6885.645702375001,0.0803375244140625,0.042205810546875,-1.031875610351562,1,0.92
2020-05-19 15:00:43.253 -0400,1589914842.000037,41.37505018659336,-71.83025258293932,3.554464,3.636079,78.29044342041016,3.207337402405648,4.851548600181042,-9999,6885.695594375001,0.1283721923828125,0.0892181396484375,-0.983917236328125,1,0.92
2020-05-19 15:00:43.302 -0400,1589914843.000042,41.37503944732983,-71.83022406127579,3.336369,2.842055,78.29044342041016,3.137875452832311,4.896761651877825,-9999,6885.745487375,0.0806121826171875,0.04052734375,-0.9664306640625,1,0.92
2020-05-19 15:00:43.352 -0400,1589914843.000042,41.37503944732983,-71.83022406127579,3.336369,2.842055,78.29044342041016,3.137875452832311,4.896761651877825,-9999,6885.795378375001,0.0949554443359375,0.0621795654296875,-0.9405059814453125,1,0.92
2020-05-19 15:00:43.402 -0400,1589914843.000042,41.37503944732983,-71.83022406127579,3.336369,2.842055,78.29044342041016,3.137875452832311,4.896761651877825,-9999,6885.845272375001,0.119964599609375,0.158355712890625,-0.9705047607421875,1,0.92
2020-05-19 15:00:43.453 -0400,1589914843.000042,41.37503944732983,-71.83022406127579,3.336369,2.842055,78.29044342041016,3.137875452832311,4.896761651877825,-9999,6885.895165375,0.07464599609375,0.1241455078125,-1.026229858398438,1,0.92
2020-05-19 15:00:43.502 -0400,1589914843.000042,41.37503944732983,-71.83022406127579,3.336369,2.842055,78.29044342041016,3.137875452832311,4.896761651877825,-9999,6885.945057375,0.07867431640625,0.0583953857421875,-1.021743774414062,1,0.92
2020-05-19 15:00:43.552 -0400,1589914843.000042,41.37503944732983,-71.83022406127579,3.336369,2.842055,78.29044342041016,3.137875452832311,4.896761651877825,-9999,6885.994949375,0.0792999267578125,0.11285400390625,-1.035873413085938,1,0.92
2020-05-19 15:00:43.602 -0400,1589914843.000042,41.37503944732983,-71.83022406127579,3.336369,2.842055,78.29044342041016,3.137875452832311,4.896761651877825,-9999,6886.044842375,0.0142822265625,0.1695709228515625,-1.002670288085938,1,0.92
2020-05-19 15:00:43.652 -0400,1589914843.000042,41.37503944732983,-71.83022406127579,3.336369,2.842055,78.29044342041016,3.137875452832311,4.896761651877825,-9999,6886.094732375001,-0.011688232421875,0.1062164306640625,-1.017471313476562,1,0.92
2020-05-19 15:00:43.702 -0400,1589914843.000042,41.37503944732983,-71.83022406127579,3.336369,2.842055,78.29044342041016,3.137875452832311,4.896761651877825,-9999,6886.144620375,0.099884033203125,0.0874481201171875,-0.9596405029296875,1,0.92
2020-05-19 15:00:43.751 -0400,1589914843.000042,41.37503944732983,-71.83022406127579,3.336369,2.842055,78.29044342041016,3.137875452832311,4.896761651877825,-9999,6886.194509375,0.08837890625,0.1176605224609375,-0.955352783203125,1,0.92
2020-05-19 15:00:43.801 -0400,1589914843.000042,41.37503944732983,-71.83022406127579,3.336369,2.842055,78.29044342041016,3.137875452832311,4.896761651877825,-9999,6886.244400375001,0.0322418212890625,0.1516876220703125,-1.00469970703125,1,0.92
2020-05-19 15:00:43.851 -0400,1589914843.000042,41.37503944732983,-71.83022406127579,3.336369,2.842055,78.29044342041016,3.137875452832311,4.896761651877825,-9999,6886.294292500001,0.0029449462890625,0.1254119873046875,-1.02899169921875,1,0.92
2020-05-19 15:00:43.901 -0400,1589914843.000042,41.37503944732983,-71.83022406127579,3.336369,2.842055,78.29044342041016,3.137875452832311,4.896761651877825,-9999,6886.3441855,0.0635223388671875,0.0983428955078125,-1.008819580078125,1,0.92
2020-05-19 15:00:43.953 -0400,1589914843.000042,41.37503944732983,-71.83022406127579,3.336369,2.842055,78.29044342041016,3.137875452832311,4.896761651877825,-9999,6886.3940775,0.084197998046875,0.166839599609375,-0.9405364990234375,1,0.92
2020-05-19 15:00:44.001 -0400,1589914843.000042,41.37503944732983,-71.83022406127579,3.336369,2.842055,78.29044342041016,3.137875452832311,4.896761651877825,-9999,6886.443971500001,0.074859619140625,0.1594390869140625,-0.9365081787109375,1,0.92
2020-05-19 15:00:44.051 -0400,1589914843.000042,41.37503944732983,-71.83022406127579,3.336369,2.842055,78.29044342041016,3.137875452832311,4.896761651877825,-9999,6886.4938625,0.089752197265625,0.1204376220703125,-1.017684936523438,1,0.92
2020-05-19 15:00:44.101 -0400,1589914843.000042,41.37503944732983,-71.83022406127579,3.336369,2.842055,78.29044342041016,3.137875452832311,4.896761651877825,-9999,6886.5437535,0.04461669921875,0.08843994140625,-1.035186767578125,1,0.92
2020-05-19 15:00:44.151 -0400,1589914843.000042,41.37503944732983,-71.83022406127579,3.336369,2.842055,78.29044342041016,3.137875452832311,4.896761651877825,-9999,6886.593641500001,0.00115966796875,0.0971221923828125,-0.992889404296875,1,0.92
2020-05-19 15:00:44.200 -0400,1589914843.000042,41.37503944732983,-71.83022406127579,3.336369,2.842055,78.29044342041016,3.137875452832311,4.896761651877825,-9999,6886.6435325,0.087554931640625,0.1455841064453125,-0.9427337646484375,1,0.92
2020-05-19 15:00:44.251 -0400,1589914843.000042,41.37503944732983,-71.83022406127579,3.336369,2.842055,78.29044342041016,3.137875452832311,4.896761651877825,-9999,6886.6934225,0.136962890625,0.108489990234375,-0.9769287109375,1,0.92
2020-05-19 15:00:44.300 -0400,1589914844.000049,41.37502177203855,-71.83020123981512,3.228546,2.406665,78.29044342041016,3.104795398398343,4.917802615688568,-9999,6886.7433115,0.068603515625,0.046875,-1.006759643554688,1,0.92
2020-05-19 15:00:44.350 -0400,1589914844.000049,41.37502177203855,-71.83020123981512,3.228546,2.406665,78.29044342041016,3.104795398398343,4.917802615688568,-9999,6886.7932005,0.0714263916015625,0.09259033203125,-0.982208251953125,1,0.92
2020-05-19 15:00:44.400 -0400,1589914844.000049,41.37502177203855,-71.83020123981512,3.228546,2.406665,78.29044342041016,3.104795398398343,4.917802615688568,-9999,6886.843088500001,0.2333984375,0.1825103759765625,-1.001434326171875,1,0.92
2020-05-19 15:00:44.450 -0400,1589914844.000049,41.37502177203855,-71.83020123981512,3.228546,2.406665,78.29044342041016,3.104795398398343,4.917802615688568,-9999,6886.892977500001,0.2063751220703125,0.2364959716796875,-0.9907073974609375,1,0.92
2020-05-19 15:00:44.500 -0400,1589914844.000049,41.37502177203855,-71.83020123981512,3.228546,2.406665,78.29044342041016,3.104795398398343,4.917802615688568,-9999,6886.9428665,0.0353546142578125,0.1403961181640625,-1.072372436523438,1,0.92
2020-05-19 15:00:44.550 -0400,1589914844.000049,41.37502177203855,-71.83020123981512,3.228546,2.406665,78.29044342041016,3.104795398398343,4.917802615688568,-9999,6886.9927555,-0.05975341796875,0.2135772705078125,-1.09747314453125,1,0.92
2020-05-19 15:00:44.600 -0400,1589914844.000049,41.37502177203855,-71.83020123981512,3.228546,2.406665,78.29044342041016,3.104795398398343,4.917802615688568,-9999,6887.042642500001,0.0389862060546875,0.17584228515625,-1.005996704101562,1,0.92
2020-05-19 15:00:44.649 -0400,1589914844.000049,41.37502177203855,-71.83020123981512,3.228546,2.406665,78.29044342041016,3.104795398398343,4.917802615688568,-9999,6887.092532500001,0.0913848876953125,0.13037109375,-0.948211669921875,1,0.92
2020-05-19 15:00:44.699 -0400,1589914844.000049,41.37502177203855,-71.83020123981512,3.228546,2.406665,78.29044342041016,3.104795398398343,4.917802615688568,-9999,6887.142421500001,0.0924835205078125,0.0780181884765625,-0.9334869384765625,1,0.92
2020-05-19 15:00:44.749 -0400,1589914844.000049,41.37502177203855,-71.83020123981512,3.228546,2.406665,78.29044342041016,3.104795398398343,4.917802615688568,-9999,6887.1923145,0.0173187255859375,0.132568359375,-1.011215209960938,1,0.92
2020-05-19 15:00:44.799 -0400,1589914844.000049,41.37502177203855,-71.83020123981512,3.228546,2.406665,78.29044342041016,3.104795398398343,4.917802615688568,-9999,6887.242205500001,-0.11395263671875,0.12054443359375,-1.1136474609375,1,0.92
2020-05-19 15:00:44.849 -0400,1589914844.000049,41.37502177203855,-71.83020123981512,3.228546,2.406665,78.29044342041016,3.104795398398343,4.917802615688568,-9999,6887.292097,-0.1846771240234375,0.07196044921875,-0.921844482421875,1,0.92
2020-05-19 15:00:44.899 -0400,1589914844.000049,41.37502177203855,-71.83020123981512,3.228546,2.406665,78.29044342041016,3.104795398398343,4.917802615688568,-9999,6887.341987000001,-0.074615478515625,-0.0038604736328125,-0.8517608642578125,1,0.92
2020-05-19 15:00:44.952 -0400,1589914844.000049,41.37502177203855,-71.83020123981512,3.228546,2.406665,78.29044342041016,3.104795398398343,4.917802615688568,-9999,6887.391875,0.0623016357421875,0.055267333984375,-0.99127197265625,1,0.92
2020-05-19 15:00:44.999 -0400,1589914844.000049,41.37502177203855,-71.83020123981512,3.228546,2.406665,78.29044342041016,3.104795398398343,4.917802615688568,-9999,6887.441766000001,0.080230712890625,0.2246551513671875,-1.2222900390625,1,0.92
2020-05-19 15:00:45.049 -0400,1589914844.000049,41.37502177203855,-71.83020123981512,3.228546,2.406665,78.29044342041016,3.104795398398343,4.917802615688568,-9999,6887.491656,0.2056427001953125,1.068710327148438,-1.234527587890625,1,0.92
2020-05-19 15:00:45.099 -0400,1589914844.000049,41.37502177203855,-71.83020123981512,3.228546,2.406665,78.29044342041016,3.104795398398343,4.917802615688568,-9999,6887.541548,-0.520294189453125,0.2454681396484375,-0.8466033935546875,1,0.92
2020-05-19 15:00:45.148 -0400,1589914844.000049,41.37502177203855,-71.83020123981512,3.228546,2.406665,78.29044342041016,3.104795398398343,4.917802615688568,-9999,6887.591439000001,-0.8469085693359375,1.344146728515625,-1.11181640625,1,0.92
2020-05-19 15:00:45.198 -0400,1589914844.000049,41.37502177203855,-71.83020123981512,3.228546,2.406665,78.29044342041016,3.104795398398343,4.917802615688568,-9999,6887.641327,-1.163467407226562,0.6346588134765625,-0.8795318603515625,1,0.92
2020-05-19 15:00:45.248 -0400,1589914844.000049,41.37502177203855,-71.83020123981512,3.228546,2.406665,78.29044342041016,3.104795398398343,4.917802615688568,-9999,6887.691217000001,-0.8875732421875,0.226531982421875,-0.725250244140625,1,0.92
2020-05-19 15:00:45.298 -0400,1589914844.000049,41.37502177203855,-71.83020123981512,3.228546,2.406665,78.29044342041016,3.104795398398343,4.917802615688568,-9999,6887.741106,-0.06060791015625,0.0959930419921875,-0.741912841796875,1,0.92
2020-05-19 15:00:45.348 -0400,1589914844.000049,41.37502177203855,-71.83020123981512,3.228546,2.406665,78.29044342041016,3.104795398398343,4.917802615688568,-9999,6887.790996000001,0.693603515625,-0.18182373046875,-0.447723388671875,1,0.92
2020-05-19 15:00:45.398 -0400,1589914845.000054,41.3749946484201,-71.83017602325307,3.29238,2.558774,125.2517622335165,3.085080308228918,4.93019436985673,-9999,6887.840886000001,1.0753173828125,0.7166290283203125,0.0647125244140625,1,0.92
2020-05-19 15:00:45.451 -0400,1589914845.000054,41.3749946484201,-71.83017602325307,3.29238,2.558774,125.2517622335165,3.085080308228918,4.93019436985673,-9999,6887.890777000001,0.7246856689453125,-1.520751953125,-0.6219329833984375,1,0.92
2020-05-19 15:00:45.498 -0400,1589914845.000054,41.3749946484201,-71.83017602325307,3.29238,2.558774,125.2517622335165,3.085080308228918,4.93019436985673,-9999,6887.940665,-1.061660766601562,1.1959228515625,-0.478363037109375,1,0.92
2020-05-19 15:00:45.548 -0400,1589914845.000054,41.3749946484201,-71.83017602325307,3.29238,2.558774,125.2517622335165,3.085080308228918,4.93019436985673,-9999,6887.990553000001,0.2315826416015625,1.00482177734375,0.0869293212890625,1,0.92
2020-05-19 15:00:45.598 -0400,1589914845.000054,41.3749946484201,-71.83017602325307,3.29238,2.558774,125.2517622335165,3.085080308228918,4.93019436985673,-9999,6888.040443000001,-0.20166015625,1.206588745117188,0.288482666015625,1,0.92
2020-05-19 15:00:45.651 -0400,1589914845.000054,41.3749946484201,-71.83017602325307,3.29238,2.558774,125.2517622335165,3.085080308228918,4.93019436985673,-9999,6888.090331,-0.3749237060546875,1.100555419921875,0.393768310546875,1,0.92
2020-05-19 15:00:45.697 -0400,1589914845.000054,41.3749946484201,-71.83017602325307,3.29238,2.558774,125.2517622335165,3.085080308228918,4.93019436985673,-9999,6888.140219000001,-0.2761077880859375,1.985382080078125,0.1908721923828125,1,0.92
2020-05-19 15:00:45.758 -0400,1589914845.000054,41.3749946484201,-71.83017602325307,3.29238,2.558774,125.2517622335165,3.085080308228918,4.93019436985673,-9999,6888.190108000001,-0.74981689453125,1.885009765625,0.1670684814453125,1,0.92
2020-05-19 15:00:45.797 -0400,1589914845.000054,41.3749946484201,-71.83017602325307,3.29238,2.558774,125.2517622335165,3.085080308228918,4.93019436985673,-9999,6888.239996,-0.964263916015625,3.191390991210938,1.14605712890625,1,0.92
2020-05-19 15:00:45.847 -0400,1589914845.000054,41.3749946484201,-71.83017602325307,3.29238,2.558774,125.2517622335165,3.085080308228918,4.93019436985673,-9999,6888.28988725,-0.3197479248046875,1.426589965820312,-0.7931671142578125,1,0.92
2020-05-19 15:00:45.897 -0400,1589914845.000054,41.3749946484201,-71.83017602325307,3.29238,2.558774,125.2517622335165,3.085080308228918,4.93019436985673,-9999,6888.33977725,-0.476409912109375,0.579620361328125,-0.5350494384765625,1,0.92
2020-05-19 15:00:45.947 -0400,1589914845.000054,41.3749946484201,-71.83017602325307,3.29238,2.558774,125.2517622335165,3.085080308228918,4.93019436985673,-9999,6888.38966925,-0.6110687255859375,0.0565185546875,-0.214080810546875,1,0.92
2020-05-19 15:00:45.996 -0400,1589914845.000054,41.3749946484201,-71.83017602325307,3.29238,2.558774,125.2517622335165,3.085080308228918,4.93019436985673,-9999,6888.439560250001,-0.5514678955078125,0.06060791015625,-0.1157684326171875,1,0.92
2020-05-19 15:00:46.046 -0400,1589914845.000054,41.3749946484201,-71.83017602325307,3.29238,2.558774,125.2517622335165,3.085080308228918,4.93019436985673,-9999,6888.48945325,-0.195892333984375,0.18170166015625,-0.268829345703125,1,0.92
2020-05-19 15:00:46.096 -0400,1589914845.000054,41.3749946484201,-71.83017602325307,3.29238,2.558774,125.2517622335165,3.085080308228918,4.93019436985673,-9999,6888.539346250001,0.2139434814453125,0.185943603515625,-0.5296478271484375,1,0.92
2020-05-19 15:00:46.146 -0400,1589914845.000054,41.3749946484201,-71.83017602325307,3.29238,2.558774,125.2517622335165,3.085080308228918,4.93019436985673,-9999,6888.58924025,0.614715576171875,-0.290283203125,-0.671661376953125,1,0.92
2020-05-19 15:00:46.196 -0400,1589914845.000054,41.3749946484201,-71.83017602325307,3.29238,2.558774,125.2517622335165,3.085080308228918,4.93019436985673,-9999,6888.63913525,0.5647430419921875,0.36614990234375,-0.227630615234375,1,0.92
2020-05-19 15:00:46.246 -0400,1589914845.000054,41.3749946484201,-71.83017602325307,3.29238,2.558774,125.2517622335165,3.085080308228918,4.93019436985673,-9999,6888.689028250001,0.11285400390625,-0.2873382568359375,-0.8791961669921875,1,0.92
2020-05-19 15:00:46.296 -0400,1589914846.000059,41.37495784096868,-71.8301643541138,3.102523,2.649523,144.0863291736346,3.043732073369661,4.955828094105935,-9999,6888.738922250001,-0.5843658447265625,0.9195709228515625,-1.058700561523438,1,0.92
2020-05-19 15:00:46.346 -0400,1589914846.000059,41.37495784096868,-71.8301643541138,3.102523,2.649523,144.0863291736346,3.043732073369661,4.955828094105935,-9999,6888.788812250001,-0.615142822265625,0.5799102783203125,-0.80804443359375,1,0.92
2020-05-19 15:00:46.396 -0400,1589914846.000059,41.37495784096868,-71.8301643541138,3.102523,2.649523,144.0863291736346,3.043732073369661,4.955828094105935,-9999,6888.83870025,-0.4637908935546875,0.619140625,-1.0736083984375,1,0.92
2020-05-19 15:00:46.445 -0400,1589914846.000059,41.37495784096868,-71.8301643541138,3.102523,2.649523,144.0863291736346,3.043732073369661,4.955828094105935,-9999,6888.888588250001,-0.558441162109375,0.5785675048828125,-1.0152587890625,1,0.92
2020-05-19 15:00:46.496 -0400,1589914846.000059,41.37495784096868,-71.8301643541138,3.102523,2.649523,144.0863291736346,3.043732073369661,4.955828094105935,-9999,6888.938477250001,-0.459625244140625,0.612579345703125,-0.702728271484375,1,0.92
2020-05-19 15:00:46.545 -0400,1589914846.000059,41.37495784096868,-71.8301643541138,3.102523,2.649523,144.0863291736346,3.043732073369661,4.955828094105935,-9999,6888.98836225,-0.5702056884765625,0.624847412109375,-0.977630615234375,1,0.92
2020-05-19 15:00:46.595 -0400,1589914846.000059,41.37495784096868,-71.8301643541138,3.102523,2.649523,144.0863291736346,3.043732073369661,4.955828094105935,-9999,6889.03824925,-0.445892333984375,-0.000457763671875,-0.5001373291015625,1,0.92
2020-05-19 15:00:46.645 -0400,1589914846.000059,41.37495784096868,-71.8301643541138,3.102523,2.649523,144.0863291736346,3.043732073369661,4.955828094105935,-9999,6889.088137250001,-0.430877685546875,0.4516143798828125,-0.891265869140625,1,0.92
2020-05-19 15:00:46.695 -0400,1589914846.000059,41.37495784096868,-71.8301643541138,3.102523,2.649523,144.0863291736346,3.043732073369661,4.955828094105935,-9999,6889.13802725,-0.221527099609375,0.4063720703125,-0.76849365234375,1,0.92
2020-05-19 15:00:46.745 -0400,1589914846.000059,41.37495784096868,-71.8301643541138,3.102523,2.649523,144.0863291736346,3.043732073369661,4.955828094105935,-9999,6889.18791725,-0.2935333251953125,0.2373199462890625,-1.016860961914062,1,0.92
2020-05-19 15:00:46.795 -0400,1589914846.000059,41.37495784096868,-71.8301643541138,3.102523,2.649523,144.0863291736346,3.043732073369661,4.955828094105935,-9999,6889.237805250001,-0.066009521484375,0.1542205810546875,-0.8533782958984375,1,0.92
2020-05-19 15:00:46.845 -0400,1589914846.000059,41.37495784096868,-71.8301643541138,3.102523,2.649523,144.0863291736346,3.043732073369661,4.955828094105935,-9999,6889.287692125001,-0.1518402099609375,-0.077911376953125,-0.7438507080078125,1,0.92
2020-05-19 15:00:46.895 -0400,1589914846.000059,41.37495784096868,-71.8301643541138,3.102523,2.649523,144.0863291736346,3.043732073369661,4.955828094105935,-9999,6889.337582125,-0.1295318603515625,-0.4129486083984375,-0.8903045654296875,1,0.92
2020-05-19 15:00:46.944 -0400,1589914846.000059,41.37495784096868,-71.8301643541138,3.102523,2.649523,144.0863291736346,3.043732073369661,4.955828094105935,-9999,6889.387474125,-0.04718017578125,-0.0447998046875,-0.842864990234375,1,0.92
2020-05-19 15:00:46.994 -0400,1589914846.000059,41.37495784096868,-71.8301643541138,3.102523,2.649523,144.0863291736346,3.043732073369661,4.955828094105935,-9999,6889.437368125001,-0.2059173583984375,0.493804931640625,-0.85247802734375,1,0.92
2020-05-19 15:00:47.044 -0400,1589914846.000059,41.37495784096868,-71.8301643541138,3.102523,2.649523,144.0863291736346,3.043732073369661,4.955828094105935,-9999,6889.487260125001,-0.359710693359375,0.4491119384765625,-0.76068115234375,1,0.92
2020-05-19 15:00:47.094 -0400,1589914846.000059,41.37495784096868,-71.8301643541138,3.102523,2.649523,144.0863291736346,3.043732073369661,4.955828094105935,-9999,6889.537153125,-0.3953857421875,0.4803314208984375,-0.8464813232421875,1,0.92
2020-05-19 15:00:47.144 -0400,1589914846.000059,41.37495784096868,-71.8301643541138,3.102523,2.649523,144.0863291736346,3.043732073369661,4.955828094105935,-9999,6889.587044125001,-0.442901611328125,0.8119659423828125,-0.7767486572265625,1,0.92
2020-05-19 15:00:47.194 -0400,1589914846.000059,41.37495784096868,-71.8301643541138,3.102523,2.649523,144.0863291736346,3.043732073369661,4.955828094105935,-9999,6889.636936125001,-0.41839599609375,0.596282958984375,-0.642242431640625,1,0.92
2020-05-19 15:00:47.244 -0400,1589914846.000059,41.37495784096868,-71.8301643541138,3.102523,2.649523,144.0863291736346,3.043732073369661,4.955828094105935,-9999,6889.686826125,-0.368682861328125,0.642852783203125,-0.653076171875,1,0.92
2020-05-19 15:00:47.303 -0400,1589914846.000059,41.37495784096868,-71.8301643541138,3.102523,2.649523,144.0863291736346,3.043732073369661,4.955828094105935,-9999,6889.736713125,-0.400848388671875,0.816802978515625,-0.7735137939453125,1,0.92
2020-05-19 15:00:47.344 -0400,1589914847.00007,41.374932919968,-71.83015192682711,3.094682,1.950292,145.4689411997286,3.011424723747747,4.975525918532596,-9999,6889.786601125001,-0.705322265625,1.09368896484375,-0.9705963134765625,1,0.92
2020-05-19 15:00:47.393 -0400,1589914847.00007,41.374932919968,-71.83015192682711,3.094682,1.950292,145.4689411997286,3.011424723747747,4.975525918532596,-9999,6889.836489125,-0.21337890625,0.554718017578125,-0.6084747314453125,1,0.92
2020-05-19 15:00:47.443 -0400,1589914847.00007,41.374932919968,-71.83015192682711,3.094682,1.950292,145.4689411997286,3.011424723747747,4.975525918532596,-9999,6889.886378125,-0.248504638671875,0.6072998046875,-0.8531341552734375,1,0.92
2020-05-19 15:00:47.493 -0400,1589914847.00007,41.374932919968,-71.83015192682711,3.094682,1.950292,145.4689411997286,3.011424723747747,4.975525918532596,-9999,6889.936268125,-0.2532958984375,0.534271240234375,-0.793701171875,1,0.92
2020-05-19 15:00:47.543 -0400,1589914847.00007,41.374932919968,-71.83015192682711,3.094682,1.950292,145.4689411997286,3.011424723747747,4.975525918532596,-9999,6889.986161125001,-0.2948760986328125,0.502349853515625,-0.8194580078125,1,0.92
2020-05-19 15:00:47.593 -0400,1589914847.00007,41.374932919968,-71.83015192682711,3.094682,1.950292,145.4689411997286,3.011424723747747,4.975525918532596,-9999,6890.036053125001,-0.220916748046875,0.447723388671875,-0.646942138671875,1,0.92
2020-05-19 15:00:47.643 -0400,1589914847.00007,41.374932919968,-71.83015192682711,3.094682,1.950292,145.4689411997286,3.011424723747747,4.975525918532596,-9999,6890.085945125001,-0.17791748046875,0.4319000244140625,-0.6870880126953125,1,0.92
2020-05-19 15:00:47.693 -0400,1589914847.00007,41.374932919968,-71.83015192682711,3.094682,1.950292,145.4689411997286,3.011424723747747,4.975525918532596,-9999,6890.135836125,-0.2808685302734375,0.532745361328125,-0.724365234375,1,0.92
2020-05-19 15:00:47.744 -0400,1589914847.00007,41.374932919968,-71.83015192682711,3.094682,1.950292,145.4689411997286,3.011424723747747,4.975525918532596,-9999,6890.185729125001,-0.1514434814453125,0.4922637939453125,-0.67547607421875,1,0.92
2020-05-19 15:00:47.793 -0400,1589914847.00007,41.374932919968,-71.83015192682711,3.094682,1.950292,145.4689411997286,3.011424723747747,4.975525918532596,-9999,6890.235620125,-0.1815338134765625,0.5611419677734375,-0.6003570556640625,1,0.92
2020-05-19 15:00:47.842 -0400,1589914847.00007,41.374932919968,-71.83015192682711,3.094682,1.950292,145.4689411997286,3.011424723747747,4.975525918532596,-9999,6890.285511875,-0.22406005859375,0.59686279296875,-0.477081298828125,1,0.92
2020-05-19 15:00:47.892 -0400,1589914847.00007,41.374932919968,-71.83015192682711,3.094682,1.950292,145.4689411997286,3.011424723747747,4.975525918532596,-9999,6890.335401875001,-0.159454345703125,0.695343017578125,-0.431243896484375,1,0.92
2020-05-19 15:00:47.942 -0400,1589914847.00007,41.374932919968,-71.83015192682711,3.094682,1.950292,145.4689411997286,3.011424723747747,4.975525918532596,-9999,6890.385287875,-0.245758056640625,0.7639923095703125,-0.2803497314453125,1,0.92
2020-05-19 15:00:47.992 -0400,1589914847.00007,41.374932919968,-71.83015192682711,3.094682,1.950292,145.4689411997286,3.011424723747747,4.975525918532596,-9999,6890.435176875,-0.319183349609375,0.9052886962890625,-0.139556884765625,1,0.92
2020-05-19 15:00:48.042 -0400,1589914847.00007,41.374932919968,-71.83015192682711,3.094682,1.950292,145.4689411997286,3.011424723747747,4.975525918532596,-9999,6890.485067875001,-0.404571533203125,0.7106475830078125,0.0387115478515625,1,0.92
2020-05-19 15:00:48.092 -0400,1589914847.00007,41.374932919968,-71.83015192682711,3.094682,1.950292,145.4689411997286,3.011424723747747,4.975525918532596,-9999,6890.534960875,-0.01141357421875,1.078048706054688,0.15570068359375,1,0.92
2020-05-19 15:00:48.142 -0400,1589914847.00007,41.374932919968,-71.83015192682711,3.094682,1.950292,145.4689411997286,3.011424723747747,4.975525918532596,-9999,6890.584850875,0.0438079833984375,1.185745239257812,0.273895263671875,1,0.92
2020-05-19 15:00:48.192 -0400,1589914847.00007,41.374932919968,-71.83015192682711,3.094682,1.950292,145.4689411997286,3.011424723747747,4.975525918532596,-9999,6890.634741875,-0.0812225341796875,1.262924194335938,0.14788818359375,1,0.92
2020-05-19 15:00:48.242 -0400,1589914847.00007,41.374932919968,-71.83015192682711,3.094682,1.950292,145.4689411997286,3.011424723747747,4.975525918532596,-9999,6890.684633875,-0.14837646484375,1.559539794921875,-0.001800537109375,1,0.92
2020-05-19 15:00:48.292 -0400,1589914847.00007,41.374932919968,-71.83015192682711,3.094682,1.950292,145.4689411997286,3.011424723747747,4.975525918532596,-9999,6890.734523875,-0.0108489990234375,1.770645141601562,-0.12213134765625,1,0.92
2020-05-19 15:00:48.341 -0400,1589914847.00007,41.374932919968,-71.83015192682711,3.094682,1.950292,145.4689411997286,3.011424723747747,4.975525918532596,-9999,6890.784414875,0.013946533203125,1.609664916992188,-0.416656494140625,1,0.92
2020-05-19 15:00:48.391 -0400,1589914847.00007,41.374932919968,-71.83015192682711,3.094682,1.950292,145.4689411997286,3.011424723747747,4.975525918532596,-9999,6890.834306875,0.332122802734375,2.380508422851562,0.70489501953125,1,0.92
2020-05-19 15:00:48.441 -0400,1589914848.000073,41.3749166182547,-71.83012436104245,3.277824,1.800199,123.7900727135527,2.950558964694462,5.011859817338268,-9999,6890.884195875001,-0.024505615234375,1.389541625976562,0.0411224365234375,1,0.92
2020-05-19 15:00:48.491 -0400,1589914848.000073,41.3749166182547,-71.83012436104245,3.277824,1.800199,123.7900727135527,2.950558964694462,5.011859817338268,-9999,6890.934084875001,-0.33392333984375,0.8946685791015625,0.1244354248046875,1,0.92
2020-05-19 15:00:48.541 -0400,1589914848.000073,41.3749166182547,-71.83012436104245,3.277824,1.800199,123.7900727135527,2.950558964694462,5.011859817338268,-9999,6890.983973875001,-0.8678131103515625,0.227203369140625,0.4034576416015625,1,0.92
2020-05-19 15:00:48.591 -0400,1589914848.000073,41.3749166182547,-71.83012436104245,3.277824,1.800199,123.7900727135527,2.950558964694462,5.011859817338268,-9999,6891.033861875,-1.090576171875,-0.185882568359375,0.141265869140625,1,0.92
2020-05-19 15:00:48.641 -0400,1589914848.000073,41.3749166182547,-71.83012436104245,3.277824,1.800199,123.7900727135527,2.950558964694462,5.011859817338268,-9999,6891.083751875,-0.6916046142578125,0.12255859375,0.00787353515625,1,0.92
2020-05-19 15:00:48.691 -0400,1589914848.000073,41.3749166182547,-71.83012436104245,3.277824,1.800199,123.7900727135527,2.950558964694462,5.011859817338268,-9999,6891.133637875,-0.5001983642578125,0.3915252685546875,-0.13946533203125,1,0.92
2020-05-19 15:00:48.740 -0400,1589914848.000073,41.3749166182547,-71.83012436104245,3.277824,1.800199,123.7900727135527,2.950558964694462,5.011859817338268,-9999,6891.183530875001,0.023193359375,0.430450439453125,-0.6569366455078125,1,0.92
2020-05-19 15:00:48.790 -0400,1589914848.000073,41.3749166182547,-71.83012436104245,3.277824,1.800199,123.7900727135527,2.950558964694462,5.011859817338268,-9999,6891.233422875001,0.184295654296875,0.082855224609375,-0.809661865234375,1,0.92
2020-05-19 15:00:48.840 -0400,1589914848.000073,41.3749166182547,-71.83012436104245,3.277824,1.800199,123.7900727135527,2.950558964694462,5.011859817338268,-9999,6891.283314291667,0.290618896484375,0.4458160400390625,-0.8887939453125,1,0.92
2020-05-19 15:00:48.890 -0400,1589914848.000073,41.3749166182547,-71.83012436104245,3.277824,1.800199,123.7900727135527,2.950558964694462,5.011859817338268,-9999,6891.333203291667,0.077178955078125,0.3330078125,-0.9071044921875,1,0.92
2020-05-19 15:00:48.940 -0400,1589914848.000073,41.3749166182547,-71.83012436104245,3.277824,1.800199,123.7900727135527,2.950558964694462,5.011859817338268,-9999,6891.383094291667,-0.2393035888671875,0.6051025390625,-1.043243408203125,1,0.92
2020-05-19 15:00:48.990 -0400,1589914848.000073,41.3749166182547,-71.83012436104245,3.277824,1.800199,123.7900727135527,2.950558964694462,5.011859817338268,-9999,6891.432985291667,-0.172149658203125,0.0469818115234375,-1.03094482421875,1,0.92
2020-05-19 15:00:49.040 -0400,1589914848.000073,41.3749166182547,-71.83012436104245,3.277824,1.800199,123.7900727135527,2.950558964694462,5.011859817338268,-9999,6891.482876291667,-0.0516815185546875,0.22247314453125,-0.8363800048828125,1,0.92
2020-05-19 15:00:49.090 -0400,1589914848.000073,41.3749166182547,-71.83012436104245,3.277824,1.800199,123.7900727135527,2.950558964694462,5.011859817338268,-9999,6891.532766291667,-0.232391357421875,0.5087738037109375,-0.900909423828125,1,0.92
2020-05-19 15:00:49.140 -0400,1589914848.000073,41.3749166182547,-71.83012436104245,3.277824,1.800199,123.7900727135527,2.950558964694462,5.011859817338268,-9999,6891.582654291667,-0.190277099609375,0.377777099609375,-0.856475830078125,1,0.92
2020-05-19 15:00:49.189 -0400,1589914848.000073,41.3749166182547,-71.83012436104245,3.277824,1.800199,123.7900727135527,2.950558964694462,5.011859817338268,-9999,6891.632544291667,-0.3076171875,0.599609375,-0.794952392578125,1,0.92
2020-05-19 15:00:49.239 -0400,1589914848.000073,41.3749166182547,-71.83012436104245,3.277824,1.800199,123.7900727135527,2.950558964694462,5.011859817338268,-9999,6891.682435291667,-0.317138671875,0.6195220947265625,-0.63323974609375,1,0.92
2020-05-19 15:00:49.289 -0400,1589914848.000073,41.3749166182547,-71.83012436104245,3.277824,1.800199,123.7900727135527,2.950558964694462,5.011859817338268,-9999,6891.732327291667,-0.3497467041015625,0.804534912109375,-0.985382080078125,1,0.92
2020-05-19 15:00:49.339 -0400,1589914848.000073,41.3749166182547,-71.83012436104245,3.277824,1.800199,123.7900727135527,2.950558964694462,5.011859817338268,-9999,6891.782220291667,-0.178955078125,0.5452423095703125,-0.7469940185546875,1,0.92
2020-05-19 15:00:49.389 -0400,1589914849.000075,41.37490606146523,-71.83008965450253,3.165442,1.702172,103.3867360985717,2.946857326895436,5.014037188505039,-9999,6891.832114291667,-0.14892578125,0.77850341796875,-0.805084228515625,1,0.92
2020-05-19 15:00:49.439 -0400,1589914849.000075,41.37490606146523,-71.83008965450253,3.165442,1.702172,103.3867360985717,2.946857326895436,5.014037188505039,-9999,6891.882006291667,-0.3921661376953125,0.818878173828125,-0.7587127685546875,1,0.92
2020-05-19 15:00:49.489 -0400,1589914849.000075,41.37490606146523,-71.83008965450253,3.165442,1.702172,103.3867360985717,2.946857326895436,5.014037188505039,-9999,6891.931899291667,-0.42694091796875,0.7066497802734375,-0.70489501953125,1,0.92
2020-05-19 15:00:49.539 -0400,1589914849.000075,41.37490606146523,-71.83008965450253,3.165442,1.702172,103.3867360985717,2.946857326895436,5.014037188505039,-9999,6891.981792291667,-0.469390869140625,0.86749267578125,-0.78302001953125,1,0.92
2020-05-19 15:00:49.589 -0400,1589914849.000075,41.37490606146523,-71.83008965450253,3.165442,1.702172,103.3867360985717,2.946857326895436,5.014037188505039,-9999,6892.031688291667,-0.2103424072265625,0.6018218994140625,-0.6980438232421875,1,0.92
2020-05-19 15:00:49.638 -0400,1589914849.000075,41.37490606146523,-71.83008965450253,3.165442,1.702172,103.3867360985717,2.946857326895436,5.014037188505039,-9999,6892.081580291667,-0.163665771484375,0.718170166015625,-0.7034149169921875,1,0.92
2020-05-19 15:00:49.688 -0400,1589914849.000075,41.37490606146523,-71.83008965450253,3.165442,1.702172,103.3867360985717,2.946857326895436,5.014037188505039,-9999,6892.131476291667,-0.3282318115234375,0.751068115234375,-0.626556396484375,1,0.92
2020-05-19 15:00:49.738 -0400,1589914849.000075,41.37490606146523,-71.83008965450253,3.165442,1.702172,103.3867360985717,2.946857326895436,5.014037188505039,-9999,6892.181372291667,-0.28961181640625,0.7324676513671875,-0.686798095703125,1,0.92
2020-05-19 15:00:49.788 -0400,1589914849.000075,41.37490606146523,-71.83008965450253,3.165442,1.702172,103.3867360985717,2.946857326895436,5.014037188505039,-9999,6892.231269291667,-0.2641754150390625,0.5841522216796875,-0.54876708984375,1,0.92
2020-05-19 15:00:49.838 -0400,1589914849.000075,41.37490606146523,-71.83008965450253,3.165442,1.702172,103.3867360985717,2.946857326895436,5.014037188505039,-9999,6892.281163916668,-0.2396087646484375,0.76641845703125,-0.6346435546875,1,0.92
2020-05-19 15:00:49.888 -0400,1589914849.000075,41.37490606146523,-71.83008965450253,3.165442,1.702172,103.3867360985717,2.946857326895436,5.014037188505039,-9999,6892.331061916667,-0.302215576171875,0.74468994140625,-0.6442718505859375,1,0.92
2020-05-19 15:00:49.938 -0400,1589914849.000075,41.37490606146523,-71.83008965450253,3.165442,1.702172,103.3867360985717,2.946857326895436,5.014037188505039,-9999,6892.380958916667,-0.23095703125,0.7049102783203125,-0.68963623046875,1,0.92
2020-05-19 15:00:49.988 -0400,1589914849.000075,41.37490606146523,-71.83008965450253,3.165442,1.702172,103.3867360985717,2.946857326895436,5.014037188505039,-9999,6892.430852916667,-0.2477569580078125,0.740997314453125,-0.660858154296875,1,0.92
2020-05-19 15:00:50.038 -0400,1589914849.000075,41.37490606146523,-71.83008965450253,3.165442,1.702172,103.3867360985717,2.946857326895436,5.014037188505039,-9999,6892.480748916667,-0.233306884765625,0.760650634765625,-0.6654205322265625,1,0.92
2020-05-19 15:00:50.088 -0400,1589914849.000075,41.37490606146523,-71.83008965450253,3.165442,1.702172,103.3867360985717,2.946857326895436,5.014037188505039,-9999,6892.530645916667,-0.2357330322265625,0.7320404052734375,-0.69305419921875,1,0.92
2020-05-19 15:00:50.137 -0400,1589914849.000075,41.37490606146523,-71.83008965450253,3.165442,1.702172,103.3867360985717,2.946857326895436,5.014037188505039,-9999,6892.580543916667,-0.19873046875,0.726104736328125,-0.6226806640625,1,0.92
2020-05-19 15:00:50.187 -0400,1589914849.000075,41.37490606146523,-71.83008965450253,3.165442,1.702172,103.3867360985717,2.946857326895436,5.014037188505039,-9999,6892.630443916667,-0.2540283203125,0.8626708984375,-0.671539306640625,1,0.92
2020-05-19 15:00:50.242 -0400,1589914850.000086,41.37493669418921,-71.83007020819521,3.096497,3.093637,9.085161131025558,2.840491157628878,5.075051429908961,-9999,6892.680341916667,-0.2925872802734375,0.804443359375,-0.789642333984375,1,0.92
2020-05-19 15:00:50.287 -0400,1589914850.000086,41.37493669418921,-71.83007020819521,3.096497,3.093637,9.085161131025558,2.840491157628878,5.075051429908961,-9999,6892.730240916667,-0.204376220703125,0.7833404541015625,-0.638946533203125,1,0.92
2020-05-19 15:00:50.337 -0400,1589914850.000086,41.37493669418921,-71.83007020819521,3.096497,3.093637,9.085161131025558,2.840491157628878,5.075051429908961,-9999,6892.780139916667,-0.0945892333984375,0.7996063232421875,-0.31689453125,1,0.92
2020-05-19 15:00:50.387 -0400,1589914850.000086,41.37493669418921,-71.83007020819521,3.096497,3.093637,9.085161131025558,2.840491157628878,5.075051429908961,-9999,6892.830035916667,-0.1720123291015625,0.9485321044921875,-0.6216583251953125,1,0.92
2020-05-19 15:00:50.437 -0400,1589914850.000086,41.37493669418921,-71.83007020819521,3.096497,3.093637,9.085161131025558,2.840491157628878,5.075051429908961,-9999,6892.879932916667,-0.17340087890625,0.8614501953125,-0.5884246826171875,1,0.92
2020-05-19 15:00:50.487 -0400,1589914850.000086,41.37493669418921,-71.83007020819521,3.096497,3.093637,9.085161131025558,2.840491157628878,5.075051429908961,-9999,6892.929831916667,-0.2025146484375,0.923797607421875,-0.4945068359375,1,0.92
2020-05-19 15:00:50.537 -0400,1589914850.000086,41.37493669418921,-71.83007020819521,3.096497,3.093637,9.085161131025558,2.840491157628878,5.075051429908961,-9999,6892.979728916667,-0.23114013671875,0.95367431640625,-0.5371856689453125,1,0.92
2020-05-19 15:00:50.587 -0400,1589914850.000086,41.37493669418921,-71.83007020819521,3.096497,3.093637,9.085161131025558,2.840491157628878,5.075051429908961,-9999,6893.029624916667,-0.2086181640625,0.8554840087890625,-0.4847564697265625,1,0.92
2020-05-19 15:00:50.636 -0400,1589914850.000086,41.37493669418921,-71.83007020819521,3.096497,3.093637,9.085161131025558,2.840491157628878,5.075051429908961,-9999,6893.079518916667,-0.246063232421875,0.7827911376953125,-0.45709228515625,1,0.92
2020-05-19 15:00:50.686 -0400,1589914850.000086,41.37493669418921,-71.83007020819521,3.096497,3.093637,9.085161131025558,2.840491157628878,5.075051429908961,-9999,6893.129416916667,-0.2505035400390625,0.7603302001953125,-0.6304931640625,1,0.92
2020-05-19 15:00:50.736 -0400,1589914850.000086,41.37493669418921,-71.83007020819521,3.096497,3.093637,9.085161131025558,2.840491157628878,5.075051429908961,-9999,6893.179314916667,-0.289337158203125,0.8033294677734375,-0.5051422119140625,1,0.92
2020-05-19 15:00:50.786 -0400,1589914850.000086,41.37493669418921,-71.83007020819521,3.096497,3.093637,9.085161131025558,2.840491157628878,5.075051429908961,-9999,6893.229210916667,-0.2723388671875,0.9997406005859375,-0.435577392578125,1,0.92
2020-05-19 15:00:50.837 -0400,1589914850.000086,41.37493669418921,-71.83007020819521,3.096497,3.093637,9.085161131025558,2.840491157628878,5.075051429908961,-9999,6893.279108125001,-0.2633209228515625,0.8112945556640625,-0.3449249267578125,1,0.92
2020-05-19 15:00:50.886 -0400,1589914850.000086,41.37493669418921,-71.83007020819521,3.096497,3.093637,9.085161131025558,2.840491157628878,5.075051429908961,-9999,6893.329006125,-0.20953369140625,0.8745574951171875,-0.3797760009765625,1,0.92
2020-05-19 15:00:50.936 -0400,1589914850.000086,41.37493669418921,-71.83007020819521,3.096497,3.093637,9.085161131025558,2.840491157628878,5.075051429908961,-9999,6893.378903125001,-0.2035064697265625,0.8175506591796875,-0.3230438232421875,1,0.92
2020-05-19 15:00:50.986 -0400,1589914850.000086,41.37493669418921,-71.83007020819521,3.096497,3.093637,9.085161131025558,2.840491157628878,5.075051429908961,-9999,6893.428798125001,-0.149322509765625,0.889312744140625,-0.3710784912109375,1,0.92
2020-05-19 15:00:51.036 -0400,1589914850.000086,41.37493669418921,-71.83007020819521,3.096497,3.093637,9.085161131025558,2.840491157628878,5.075051429908961,-9999,6893.478694125,-0.125457763671875,0.90740966796875,-0.349456787109375,1,0.92
2020-05-19 15:00:51.086 -0400,1589914850.000086,41.37493669418921,-71.83007020819521,3.096497,3.093637,9.085161131025558,2.840491157628878,5.075051429908961,-9999,6893.528591125,-0.104766845703125,0.96258544921875,-0.3814849853515625,1,0.92
2020-05-19 15:00:51.135 -0400,1589914850.000086,41.37493669418921,-71.83007020819521,3.096497,3.093637,9.085161131025558,2.840491157628878,5.075051429908961,-9999,6893.578485125,-0.103271484375,0.9438629150390625,-0.488494873046875,1,0.92
2020-05-19 15:00:51.185 -0400,1589914850.000086,41.37493669418921,-71.83007020819521,3.096497,3.093637,9.085161131025558,2.840491157628878,5.075051429908961,-9999,6893.628381125,-0.083160400390625,0.9212646484375,-0.431365966796875,1,0.92
2020-05-19 15:00:51.235 -0400,1589914850.000086,41.37493669418921,-71.83007020819521,3.096497,3.093637,9.085161131025558,2.840491157628878,5.075051429908961,-9999,6893.678277125,-0.0383453369140625,0.878387451171875,-0.3088531494140625,1,0.92
2020-05-19 15:00:51.285 -0400,1589914851.000092,41.37495342268076,-71.83006128946194,3.146526,2.238294,351.8833622110574,2.798815523792023,5.104175379502975,-9999,6893.728174125001,-0.05206298828125,0.9319305419921875,-0.2770843505859375,1,0.92
2020-05-19 15:00:51.335 -0400,1589914851.000092,41.37495342268076,-71.83006128946194,3.146526,2.238294,351.8833622110574,2.798815523792023,5.104175379502975,-9999,6893.778068125001,-0.09039306640625,0.977264404296875,-0.3596649169921875,1,0.92
2020-05-19 15:00:51.385 -0400,1589914851.000092,41.37495342268076,-71.83006128946194,3.146526,2.238294,351.8833622110574,2.798815523792023,5.104175379502975,-9999,6893.827963125001,-0.093017578125,1.042953491210938,-0.4322662353515625,1,0.92
2020-05-19 15:00:51.435 -0400,1589914851.000092,41.37495342268076,-71.83006128946194,3.146526,2.238294,351.8833622110574,2.798815523792023,5.104175379502975,-9999,6893.877855125001,-0.0806121826171875,1.10858154296875,-0.2612152099609375,1,0.92
2020-05-19 15:00:51.485 -0400,1589914851.000092,41.37495342268076,-71.83006128946194,3.146526,2.238294,351.8833622110574,2.798815523792023,5.104175379502975,-9999,6893.927746125,-0.032806396484375,0.966705322265625,-0.29669189453125,1,0.92
2020-05-19 15:00:51.534 -0400,1589914851.000092,41.37495342268076,-71.83006128946194,3.146526,2.238294,351.8833622110574,2.798815523792023,5.104175379502975,-9999,6893.977639125001,0.0038299560546875,0.967376708984375,-0.2458343505859375,1,0.92
2020-05-19 15:00:51.585 -0400,1589914851.000092,41.37495342268076,-71.83006128946194,3.146526,2.238294,351.8833622110574,2.798815523792023,5.104175379502975,-9999,6894.027531125001,-0.0488739013671875,1.222213745117188,-0.152130126953125,1,0.92
2020-05-19 15:00:51.634 -0400,1589914851.000092,41.37495342268076,-71.83006128946194,3.146526,2.238294,351.8833622110574,2.798815523792023,5.104175379502975,-9999,6894.077424125,-0.289581298828125,1.292465209960938,-0.0223541259765625,1,0.92
2020-05-19 15:00:51.684 -0400,1589914851.000092,41.37495342268076,-71.83006128946194,3.146526,2.238294,351.8833622110574,2.798815523792023,5.104175379502975,-9999,6894.127320125001,-0.133636474609375,0.8216705322265625,-0.1901702880859375,1,0.92
2020-05-19 15:00:51.734 -0400,1589914851.000092,41.37495342268076,-71.83006128946194,3.146526,2.238294,351.8833622110574,2.798815523792023,5.104175379502975,-9999,6894.177216125,-0.1441650390625,1.095626831054688,-0.305145263671875,1,0.92
2020-05-19 15:00:51.784 -0400,1589914851.000092,41.37495342268076,-71.83006128946194,3.146526,2.238294,351.8833622110574,2.798815523792023,5.104175379502975,-9999,6894.227112125001,-0.1057586669921875,0.9632568359375,-0.2662811279296875,1,0.92
2020-05-19 15:00:51.834 -0400,1589914851.000092,41.37495342268076,-71.83006128946194,3.146526,2.238294,351.8833622110574,2.798815523792023,5.104175379502975,-9999,6894.277007125001,-0.1679840087890625,0.99896240234375,-0.13861083984375,1,0.92
2020-05-19 15:00:51.884 -0400,1589914851.000092,41.37495342268076,-71.83006128946194,3.146526,2.238294,351.8833622110574,2.798815523792023,5.104175379502975,-9999,6894.326903166667,-0.1743927001953125,0.9024505615234375,-0.2192840576171875,1,0.92
2020-05-19 15:00:51.934 -0400,1589914851.000092,41.37495342268076,-71.83006128946194,3.146526,2.238294,351.8833622110574,2.798815523792023,5.104175379502975,-9999,6894.376797166668,-0.218780517578125,0.956878662109375,-0.212005615234375,1,0.92
2020-05-19 15:00:51.984 -0400,1589914851.000092,41.37495342268076,-71.83006128946194,3.146526,2.238294,351.8833622110574,2.798815523792023,5.104175379502975,-9999,6894.426691166667,-0.2158966064453125,0.952850341796875,-0.3078155517578125,1,0.92
2020-05-19 15:00:52.034 -0400,1589914851.000092,41.37495342268076,-71.83006128946194,3.146526,2.238294,351.8833622110574,2.798815523792023,5.104175379502975,-9999,6894.476587166667,-0.3139801025390625,0.8938751220703125,-0.19805908203125,1,0.92
2020-05-19 15:00:52.083 -0400,1589914851.000092,41.37495342268076,-71.83006128946194,3.146526,2.238294,351.8833622110574,2.798815523792023,5.104175379502975,-9999,6894.526483166667,-0.2784271240234375,0.920074462890625,-0.348663330078125,1,0.92
2020-05-19 15:00:52.133 -0400,1589914851.000092,41.37495342268076,-71.83006128946194,3.146526,2.238294,351.8833622110574,2.798815523792023,5.104175379502975,-9999,6894.576378166667,-0.2950439453125,0.9897613525390625,-0.3797149658203125,1,0.92
2020-05-19 15:00:52.183 -0400,1589914851.000092,41.37495342268076,-71.83006128946194,3.146526,2.238294,351.8833622110574,2.798815523792023,5.104175379502975,-9999,6894.626271166667,-0.330657958984375,0.88055419921875,-0.3800048828125,1,0.92
2020-05-19 15:00:52.233 -0400,1589914851.000092,41.37495342268076,-71.83006128946194,3.146526,2.238294,351.8833622110574,2.798815523792023,5.104175379502975,-9999,6894.676167166667,-0.3286590576171875,0.95050048828125,-0.3028106689453125,1,0.92
2020-05-19 15:00:52.283 -0400,1589914852.0001,41.37495986096049,-71.83005988383205,3.329331,0,330.0321833075199,2.724822852546041,5.138081106311158,-9999,6894.726064166667,-0.2313690185546875,0.8810882568359375,-0.37957763671875,1,0.92
2020-05-19 15:00:52.333 -0400,1589914852.0001,41.37495986096049,-71.83005988383205,3.329331,0,330.0321833075199,2.724822852546041,5.138081106311158,-9999,6894.775960166667,-0.24261474609375,0.89984130859375,-0.3174285888671875,1,0.92
2020-05-19 15:00:52.383 -0400,1589914852.0001,41.37495986096049,-71.83005988383205,3.329331,0,330.0321833075199,2.724822852546041,5.138081106311158,-9999,6894.825853166667,-0.168487548828125,0.8862762451171875,-0.3526153564453125,1,0.92
2020-05-19 15:00:52.433 -0400,1589914852.0001,41.37495986096049,-71.83005988383205,3.329331,0,330.0321833075199,2.724822852546041,5.138081106311158,-9999,6894.875744166667,-0.1213226318359375,0.8439483642578125,-0.4390106201171875,1,0.92
2020-05-19 15:00:52.483 -0400,1589914852.0001,41.37495986096049,-71.83005988383205,3.329331,0,330.0321833075199,2.724822852546041,5.138081106311158,-9999,6894.925637166667,-0.1816864013671875,0.834075927734375,-0.3950042724609375,1,0.92
2020-05-19 15:00:52.532 -0400,1589914852.0001,41.37495986096049,-71.83005988383205,3.329331,0,330.0321833075199,2.724822852546041,5.138081106311158,-9999,6894.975527166667,-0.2987823486328125,0.6226043701171875,-0.3787078857421875,1,0.92
2020-05-19 15:00:52.582 -0400,1589914852.0001,41.37495986096049,-71.83005988383205,3.329331,0,330.0321833075199,2.724822852546041,5.138081106311158,-9999,6895.025417166667,-0.237518310546875,1.334259033203125,-0.10296630859375,1,0.92
2020-05-19 15:00:52.632 -0400,1589914852.0001,41.37495986096049,-71.83005988383205,3.329331,0,330.0321833075199,2.724822852546041,5.138081106311158,-9999,6895.075307166667,-0.1630706787109375,1.05108642578125,-0.141082763671875,1,0.92
2020-05-19 15:00:52.682 -0400,1589914852.0001,41.37495986096049,-71.83005988383205,3.329331,0,330.0321833075199,2.724822852546041,5.138081106311158,-9999,6895.125198166667,-0.3401947021484375,1.122695922851562,-0.2033233642578125,1,0.92
2020-05-19 15:00:52.732 -0400,1589914852.0001,41.37495986096049,-71.83005988383205,3.329331,0,330.0321833075199,2.724822852546041,5.138081106311158,-9999,6895.175091166667,-0.3962860107421875,1.115646362304688,-0.1642303466796875,1,0.92
2020-05-19 15:00:52.782 -0400,1589914852.0001,41.37495986096049,-71.83005988383205,3.329331,0,330.0321833075199,2.724822852546041,5.138081106311158,-9999,6895.224981166667,-0.361602783203125,0.9761962890625,-0.3381195068359375,1,0.92
2020-05-19 15:00:52.832 -0400,1589914852.0001,41.37495986096049,-71.83005988383205,3.329331,0,330.0321833075199,2.724822852546041,5.138081106311158,-9999,6895.274868166667,-0.2422637939453125,0.8670501708984375,-0.490478515625,1,0.92
2020-05-19 15:00:52.882 -0400,1589914852.0001,41.37495986096049,-71.83005988383205,3.329331,0,330.0321833075199,2.724822852546041,5.138081106311158,-9999,6895.324756416667,-0.27423095703125,0.6803436279296875,-0.495880126953125,1,0.92
2020-05-19 15:00:52.932 -0400,1589914852.0001,41.37495986096049,-71.83005988383205,3.329331,0,330.0321833075199,2.724822852546041,5.138081106311158,-9999,6895.374641416667,-0.3165130615234375,0.5363006591796875,-0.37060546875,1,0.92
2020-05-19 15:00:52.981 -0400,1589914852.0001,41.37495986096049,-71.83005988383205,3.329331,0,330.0321833075199,2.724822852546041,5.138081106311158,-9999,6895.424529416667,-0.31402587890625,0.6934356689453125,-0.636322021484375,1,0.92
2020-05-19 15:00:53.032 -0400,1589914852.0001,41.37495986096049,-71.83005988383205,3.329331,0,330.0321833075199,2.724822852546041,5.138081106311158,-9999,6895.474417416667,-0.22039794921875,0.40850830078125,-0.5457763671875,1,0.92
2020-05-19 15:00:53.081 -0400,1589914852.0001,41.37495986096049,-71.83005988383205,3.329331,0,330.0321833075199,2.724822852546041,5.138081106311158,-9999,6895.524307416667,-0.168060302734375,0.5366363525390625,-1.039871215820312,1,0.92
2020-05-19 15:00:53.131 -0400,1589914852.0001,41.37495986096049,-71.83005988383205,3.329331,0,330.0321833075199,2.724822852546041,5.138081106311158,-9999,6895.574198416667,-0.2963409423828125,0.7158966064453125,-0.6826324462890625,1,0.92
2020-05-19 15:00:53.181 -0400,1589914852.0001,41.37495986096049,-71.83005988383205,3.329331,0,330.0321833075199,2.724822852546041,5.138081106311158,-9999,6895.624088416667,-0.39300537109375,0.781341552734375,-0.611419677734375,1,0.92
2020-05-19 15:00:53.231 -0400,1589914852.0001,41.37495986096049,-71.83005988383205,3.329331,0,330.0321833075199,2.724822852546041,5.138081106311158,-9999,6895.673977416667,-0.1221771240234375,0.613616943359375,-0.570709228515625,1,0.92
2020-05-19 15:00:53.281 -0400,1589914853.000101,41.3749644462893,-71.83005509366197,3.382174,0,330.0321862828291,2.730501139077396,5.135065779742834,-9999,6895.723868416667,-0.1021575927734375,0.370361328125,-0.669708251953125,1,0.92
2020-05-19 15:00:53.331 -0400,1589914853.000101,41.3749644462893,-71.83005509366197,3.382174,0,330.0321862828291,2.730501139077396,5.135065779742834,-9999,6895.773757416667,0.224212646484375,0.26348876953125,-0.76953125,1,0.92
2020-05-19 15:00:53.381 -0400,1589914853.000101,41.3749644462893,-71.83005509366197,3.382174,0,330.0321862828291,2.730501139077396,5.135065779742834,-9999,6895.823646416667,0.1410369873046875,0.6187286376953125,-0.559844970703125,1,0.92
2020-05-19 15:00:53.430 -0400,1589914853.000101,41.3749644462893,-71.83005509366197,3.382174,0,330.0321862828291,2.730501139077396,5.135065779742834,-9999,6895.873537416667,-0.4004669189453125,0.35894775390625,-0.5456085205078125,1,0.92
2020-05-19 15:00:53.480 -0400,1589914853.000101,41.3749644462893,-71.83005509366197,3.382174,0,330.0321862828291,2.730501139077396,5.135065779742834,-9999,6895.923426416667,-0.63604736328125,0.590179443359375,-0.7421112060546875,1,0.92
2020-05-19 15:00:53.530 -0400,1589914853.000101,41.3749644462893,-71.83005509366197,3.382174,0,330.0321862828291,2.730501139077396,5.135065779742834,-9999,6895.973317416667,-0.7741241455078125,0.623565673828125,-0.69110107421875,1,0.92
2020-05-19 15:00:53.580 -0400,1589914853.000101,41.3749644462893,-71.83005509366197,3.382174,0,330.0321862828291,2.730501139077396,5.135065779742834,-9999,6896.023207416667,-0.552215576171875,0.681060791015625,-0.69073486328125,1,0.92
2020-05-19 15:00:53.630 -0400,1589914853.000101,41.3749644462893,-71.83005509366197,3.382174,0,330.0321862828291,2.730501139077396,5.135065779742834,-9999,6896.073098416667,-0.2872314453125,0.7434844970703125,-0.798126220703125,1,0.92
2020-05-19 15:00:53.680 -0400,1589914853.000101,41.3749644462893,-71.83005509366197,3.382174,0,330.0321862828291,2.730501139077396,5.135065779742834,-9999,6896.122987416667,-0.2944793701171875,0.751495361328125,-0.767608642578125,1,0.92
2020-05-19 15:00:53.730 -0400,1589914853.000101,41.3749644462893,-71.83005509366197,3.382174,0,330.0321862828291,2.730501139077396,5.135065779742834,-9999,6896.172879416667,-0.4903564453125,0.9942626953125,-0.60760498046875,1,0.92
2020-05-19 15:00:53.780 -0400,1589914853.000101,41.3749644462893,-71.83005509366197,3.382174,0,330.0321862828291,2.730501139077396,5.135065779742834,-9999,6896.222769416667,-0.575653076171875,1.090835571289062,-0.626495361328125,1,0.92
2020-05-19 15:00:53.830 -0400,1589914853.000101,41.3749644462893,-71.83005509366197,3.382174,0,330.0321862828291,2.730501139077396,5.135065779742834,-9999,6896.272661416667,-0.4716644287109375,0.5963134765625,-0.55010986328125,1,0.92
2020-05-19 15:00:53.879 -0400,1589914853.000101,41.3749644462893,-71.83005509366197,3.382174,0,330.0321862828291,2.730501139077396,5.135065779742834,-9999,6896.322553625,-0.399627685546875,0.49542236328125,-0.442779541015625,1,0.92
2020-05-19 15:00:53.929 -0400,1589914853.000101,41.3749644462893,-71.83005509366197,3.382174,0,330.0321862828291,2.730501139077396,5.135065779742834,-9999,6896.372444625001,-0.192596435546875,0.7044830322265625,-0.95452880859375,1,0.92
2020-05-19 15:00:53.979 -0400,1589914853.000101,41.3749644462893,-71.83005509366197,3.382174,0,330.0321862828291,2.730501139077396,5.135065779742834,-9999,6896.422335625,-0.0665435791015625,0.5485992431640625,-1.0068359375,1,0.92
2020-05-19 15:00:54.029 -0400,1589914853.000101,41.3749644462893,-71.83005509366197,3.382174,0,330.0321862828291,2.730501139077396,5.135065779742834,-9999,6896.472229625,-0.0563812255859375,0.3901214599609375,-1.072158813476562,1,0.92
2020-05-19 15:00:54.079 -0400,1589914853.000101,41.3749644462893,-71.83005509366197,3.382174,0,330.0321862828291,2.730501139077396,5.135065779742834,-9999,6896.522120625001,-0.062896728515625,0.4600982666015625,-0.9197540283203125,1,0.92
2020-05-19 15:00:54.129 -0400,1589914853.000101,41.3749644462893,-71.83005509366197,3.382174,0,330.0321862828291,2.730501139077396,5.135065779742834,-9999,6896.572009625001,-0.111358642578125,0.4964447021484375,-0.8538818359375,1,0.92
2020-05-19 15:00:54.179 -0400,1589914853.000101,41.3749644462893,-71.83005509366197,3.382174,0,330.0321862828291,2.730501139077396,5.135065779742834,-9999,6896.621899625,-0.2217864990234375,0.5233612060546875,-0.6491851806640625,1,0.92
2020-05-19 15:00:54.229 -0400,1589914853.000101,41.3749644462893,-71.83005509366197,3.382174,0,330.0321862828291,2.730501139077396,5.135065779742834,-9999,6896.671791625,-0.4237518310546875,0.6365966796875,-0.5255889892578125,1,0.92
2020-05-19 15:00:54.279 -0400,1589914854.000113,41.37496109183452,-71.83005305081852,3.403414,0,330.032187645395,2.657194449794685,5.173379426329482,-9999,6896.721683625,-0.4667510986328125,0.67498779296875,-0.8189239501953125,1,0.92
2020-05-19 15:00:54.328 -0400,1589914854.000113,41.37496109183452,-71.83005305081852,3.403414,0,330.032187645395,2.657194449794685,5.173379426329482,-9999,6896.771571625,-0.3850250244140625,0.4471893310546875,-0.9527587890625,1,0.92
2020-05-19 15:00:54.379 -0400,1589914854.000113,41.37496109183452,-71.83005305081852,3.403414,0,330.032187645395,2.657194449794685,5.173379426329482,-9999,6896.821458625001,-0.3151702880859375,1.100234985351562,-0.7964019775390625,1,0.92
2020-05-19 15:00:54.431 -0400,1589914854.000113,41.37496109183452,-71.83005305081852,3.403414,0,330.032187645395,2.657194449794685,5.173379426329482,-9999,6896.871346625,-0.069610595703125,0.25115966796875,-1.20599365234375,1,0.92
2020-05-19 15:00:54.478 -0400,1589914854.000113,41.37496109183452,-71.83005305081852,3.403414,0,330.032187645395,2.657194449794685,5.173379426329482,-9999,6896.921237625001,0.0885009765625,0.324951171875,-1.211517333984375,1,0.92
2020-05-19 15:00:54.528 -0400,1589914854.000113,41.37496109183452,-71.83005305081852,3.403414,0,330.032187645395,2.657194449794685,5.173379426329482,-9999,6896.971129625001,0.496490478515625,-0.3381805419921875,-1.073944091796875,1,0.92
2020-05-19 15:00:54.578 -0400,1589914854.000113,41.37496109183452,-71.83005305081852,3.403414,0,330.032187645395,2.657194449794685,5.173379426329482,-9999,6897.021020625,0.1700439453125,-0.1891632080078125,-0.963409423828125,1,0.92
2020-05-19 15:00:54.628 -0400,1589914854.000113,41.37496109183452,-71.83005305081852,3.403414,0,330.032187645395,2.657194449794685,5.173379426329482,-9999,6897.070911625,-0.110076904296875,0.298828125,-0.8624114990234375,1,0.92
2020-05-19 15:00:54.678 -0400,1589914854.000113,41.37496109183452,-71.83005305081852,3.403414,0,330.032187645395,2.657194449794685,5.173379426329482,-9999,6897.120801625,-0.4692230224609375,-0.21588134765625,-0.409637451171875,1,0.92
2020-05-19 15:00:54.728 -0400,1589914854.000113,41.37496109183452,-71.83005305081852,3.403414,0,330.032187645395,2.657194449794685,5.173379426329482,-9999,6897.170691625,-0.431793212890625,-0.2722625732421875,-0.470062255859375,1,0.92
2020-05-19 15:00:54.778 -0400,1589914854.000113,41.37496109183452,-71.83005305081852,3.403414,0,330.032187645395,2.657194449794685,5.173379426329482,-9999,6897.220582625,-0.4232330322265625,-0.29815673828125,-0.70013427734375,1,0.92
2020-05-19 15:00:54.839 -0400,1589914854.000113,41.37496109183452,-71.83005305081852,3.403414,0,330.032187645395,2.657194449794685,5.173379426329482,-9999,6897.270471625,-0.2813568115234375,-0.3135223388671875,-0.8976287841796875,1,0.92
2020-05-19 15:00:54.877 -0400,1589914854.000113,41.37496109183452,-71.83005305081852,3.403414,0,330.032187645395,2.657194449794685,5.173379426329482,-9999,6897.320357875001,0.0097808837890625,-0.3802032470703125,-1.149856567382812,1,0.92
2020-05-19 15:00:54.928 -0400,1589914854.000113,41.37496109183452,-71.83005305081852,3.403414,0,330.032187645395,2.657194449794685,5.173379426329482,-9999,6897.370246875001,0.1043853759765625,-0.354400634765625,-1.02606201171875,1,0.92
2020-05-19 15:00:54.977 -0400,1589914854.000113,41.37496109183452,-71.83005305081852,3.403414,0,330.032187645395,2.657194449794685,5.173379426329482,-9999,6897.420133875001,0.1167144775390625,-0.3084716796875,-1.080230712890625,1,0.92
2020-05-19 15:00:55.027 -0400,1589914854.000113,41.37496109183452,-71.83005305081852,3.403414,0,330.032187645395,2.657194449794685,5.173379426329482,-9999,6897.470021875,0.046112060546875,-0.3706817626953125,-0.9563751220703125,1,0.92
2020-05-19 15:00:55.077 -0400,1589914854.000113,41.37496109183452,-71.83005305081852,3.403414,0,330.032187645395,2.657194449794685,5.173379426329482,-9999,6897.519911875001,0.04949951171875,-0.39599609375,-0.946258544921875,1,0.92
2020-05-19 15:00:55.127 -0400,1589914854.000113,41.37496109183452,-71.83005305081852,3.403414,0,330.032187645395,2.657194449794685,5.173379426329482,-9999,6897.569798875001,0.028076171875,-0.42864990234375,-0.8593292236328125,1,0.92
2020-05-19 15:00:55.177 -0400,1589914854.000113,41.37496109183452,-71.83005305081852,3.403414,0,330.032187645395,2.657194449794685,5.173379426329482,-9999,6897.619684875001,0.0325927734375,-0.3361358642578125,-0.928955078125,1,0.92
2020-05-19 15:00:55.227 -0400,1589914854.000113,41.37496109183452,-71.83005305081852,3.403414,0,330.032187645395,2.657194449794685,5.173379426329482,-9999,6897.669573875,-0.0194549560546875,-0.368133544921875,-0.907012939453125,1,0.92
2020-05-19 15:00:55.276 -0400,1589914855.000112,41.37496394103256,-71.83005194791106,3.326768,0,330.0321882987948,2.619365960795514,5.192635072505541,-9999,6897.719463875001,-0.005615234375,-0.3239288330078125,-0.975738525390625,1,0.92
2020-05-19 15:00:55.326 -0400,1589914855.000112,41.37496394103256,-71.83005194791106,3.326768,0,330.0321882987948,2.619365960795514,5.192635072505541,-9999,6897.769352875001,-0.025177001953125,-0.356353759765625,-0.949493408203125,1,0.92
2020-05-19 15:00:55.380 -0400,1589914855.000112,41.37496394103256,-71.83005194791106,3.326768,0,330.0321882987948,2.619365960795514,5.192635072505541,-9999,6897.819240875,-0.018218994140625,-0.3553009033203125,-0.9625244140625,1,0.92
2020-05-19 15:00:55.426 -0400,1589914855.000112,41.37496394103256,-71.83005194791106,3.326768,0,330.0321882987948,2.619365960795514,5.192635072505541,-9999,6897.869129875,0.02789306640625,-0.2931060791015625,-0.9965057373046875,1,0.92
2020-05-19 15:00:55.476 -0400,1589914855.000112,41.37496394103256,-71.83005194791106,3.326768,0,330.0321882987948,2.619365960795514,5.192635072505541,-9999,6897.919017875,0.0132598876953125,-0.326263427734375,-0.92974853515625,1,0.92
