loggingTime(txt),locationTimestamp_since1970(s),locationLatitude(WGS84),locationLongitude(WGS84),locationAltitude(m),locationSpeed(m/s),locationCourse(°),locationVerticalAccuracy(m),locationHorizontalAccuracy(m),locationFloor(Z),accelerometerTimestamp_sinceReboot(s),accelerometerAccelerationX(G),accelerometerAccelerationY(G),accelerometerAccelerationZ(G),batteryState,batteryLevel
2020-05-19 14:53:24.943 -0400,1589914404.458334,41.36020010452999,-71.80989891570417,14.47102,-1,-1,37.75470352172852,1414,-9999,6447.385607,-0.0777740478515625,-0.636138916015625,-0.766448974609375,1,0.93
2020-05-19 14:53:24.993 -0400,1589914404.458334,41.36020010452999,-71.80989891570417,14.47102,-1,-1,37.75470352172852,1414,-9999,6447.435496,-0.1046905517578125,-0.6305694580078125,-0.747222900390625,1,0.93
2020-05-19 14:53:25.043 -0400,1589914404.458334,41.36020010452999,-71.80989891570417,14.47102,-1,-1,37.75470352172852,1414,-9999,6447.485382000001,-0.086334228515625,-0.62689208984375,-0.770660400390625,1,0.93
2020-05-19 14:53:25.093 -0400,1589914404.458334,41.36020010452999,-71.80989891570417,14.47102,-1,-1,37.75470352172852,1414,-9999,6447.535267,-0.0565643310546875,-0.6787567138671875,-0.7803802490234375,1,0.93
2020-05-19 14:53:25.142 -0400,1589914404.458334,41.36020010452999,-71.80989891570417,14.47102,-1,-1,37.75470352172852,1414,-9999,6447.585152000001,-0.0535888671875,-0.675689697265625,-0.790283203125,1,0.93
2020-05-19 14:53:25.192 -0400,1589914404.458334,41.36020010452999,-71.80989891570417,14.47102,-1,-1,37.75470352172852,1414,-9999,6447.63504,-0.056121826171875,-0.6993865966796875,-0.7763824462890625,1,0.93
2020-05-19 14:53:25.242 -0400,1589914404.458334,41.36020010452999,-71.80989891570417,14.47102,-1,-1,37.75470352172852,1414,-9999,6447.684929,-0.013916015625,-0.6641387939453125,-0.74261474609375,1,0.93
2020-05-19 14:53:25.292 -0400,1589914404.458334,41.36020010452999,-71.80989891570417,14.47102,-1,-1,37.75470352172852,1414,-9999,6447.734817,-0.034027099609375,-0.6069183349609375,-0.7349853515625,1,0.93
2020-05-19 14:53:25.342 -0400,1589914404.458334,41.36020010452999,-71.80989891570417,14.47102,-1,-1,37.75470352172852,1414,-9999,6447.784703,0.00018310546875,-0.5389404296875,-0.7455596923828125,1,0.93
2020-05-19 14:53:25.392 -0400,1589914404.458334,41.36020010452999,-71.80989891570417,14.47102,-1,-1,37.75470352172852,1414,-9999,6447.83459175,-0.050628662109375,-0.435699462890625,-0.7424163818359375,1,0.93
2020-05-19 14:53:25.442 -0400,1589914404.458334,41.36020010452999,-71.80989891570417,14.47102,-1,-1,37.75470352172852,1414,-9999,6447.884479750001,-0.123199462890625,-0.2244873046875,-0.72906494140625,1,0.93
2020-05-19 14:53:25.492 -0400,1589914404.458334,41.36020010452999,-71.80989891570417,14.47102,-1,-1,37.75470352172852,1414,-9999,6447.93437075,-0.32745361328125,-0.134552001953125,-0.71673583984375,1,0.93
2020-05-19 14:53:25.542 -0400,1589914404.458334,41.36020010452999,-71.80989891570417,14.47102,-1,-1,37.75470352172852,1414,-9999,6447.984261750001,-0.395263671875,0.1478118896484375,-0.91412353515625,1,0.93
2020-05-19 14:53:25.592 -0400,1589914404.458334,41.36020010452999,-71.80989891570417,14.47102,-1,-1,37.75470352172852,1414,-9999,6448.034147750001,-0.45294189453125,0.0921783447265625,-0.8513031005859375,1,0.93
2020-05-19 14:53:25.642 -0400,1589914404.458334,41.36020010452999,-71.80989891570417,14.47102,-1,-1,37.75470352172852,1414,-9999,6448.084034750001,-0.4387054443359375,0.232574462890625,-0.840057373046875,1,0.93
2020-05-19 14:53:25.691 -0400,1589914404.458334,41.36020010452999,-71.80989891570417,14.47102,-1,-1,37.75470352172852,1414,-9999,6448.13392075,-0.46478271484375,0.3657989501953125,-0.7234039306640625,1,0.93
2020-05-19 14:53:25.742 -0400,1589914404.458334,41.36020010452999,-71.80989891570417,14.47102,-1,-1,37.75470352172852,1414,-9999,6448.183807750001,-0.582794189453125,0.5017242431640625,-0.600921630859375,1,0.93
2020-05-19 14:53:25.792 -0400,1589914404.458334,41.36020010452999,-71.80989891570417,14.47102,-1,-1,37.75470352172852,1414,-9999,6448.233691750001,-0.6239776611328125,0.7215118408203125,-0.717987060546875,1,0.93
2020-05-19 14:53:25.841 -0400,1589914404.458334,41.36020010452999,-71.80989891570417,14.47102,-1,-1,37.75470352172852,1414,-9999,6448.28357675,-0.6119384765625,0.9012298583984375,-0.5215606689453125,1,0.93
2020-05-19 14:53:25.891 -0400,1589914404.458334,41.36020010452999,-71.80989891570417,14.47102,-1,-1,37.75470352172852,1414,-9999,6448.33346075,-0.5584259033203125,0.9615631103515625,-0.334136962890625,1,0.93
2020-05-19 14:53:25.941 -0400,1589914404.458334,41.36020010452999,-71.80989891570417,14.47102,-1,-1,37.75470352172852,1414,-9999,6448.383348750001,-0.4696197509765625,1.0264892578125,-0.3285980224609375,1,0.93
2020-05-19 14:53:25.991 -0400,1589914404.458334,41.36020010452999,-71.80989891570417,14.47102,-1,-1,37.75470352172852,1414,-9999,6448.433238750001,-0.4160308837890625,0.9593505859375,-0.1367645263671875,1,0.93
2020-05-19 14:53:26.040 -0400,1589914404.458334,41.36020010452999,-71.80989891570417,14.47102,-1,-1,37.75470352172852,1414,-9999,6448.483127750001,-0.291015625,0.83544921875,-0.0184478759765625,1,0.93
2020-05-19 14:53:26.090 -0400,1589914404.458334,41.36020010452999,-71.80989891570417,14.47102,-1,-1,37.75470352172852,1414,-9999,6448.533016750001,-0.2308502197265625,0.8781280517578125,0.1997833251953125,1,0.93
2020-05-19 14:53:26.140 -0400,1589914404.458334,41.36020010452999,-71.80989891570417,14.47102,-1,-1,37.75470352172852,1414,-9999,6448.58290475,-0.1889190673828125,0.9892425537109375,0.292266845703125,1,0.93
2020-05-19 14:53:26.190 -0400,1589914404.458334,41.36020010452999,-71.80989891570417,14.47102,-1,-1,37.75470352172852,1414,-9999,6448.63279375,-0.3410186767578125,1.540191650390625,0.4769134521484375,1,0.93
2020-05-19 14:53:26.240 -0400,1589914404.458334,41.36020010452999,-71.80989891570417,14.47102,-1,-1,37.75470352172852,1414,-9999,6448.682684750001,-0.26129150390625,1.013046264648438,0.313507080078125,1,0.93
2020-05-19 14:53:26.290 -0400,1589914404.458334,41.36020010452999,-71.80989891570417,14.47102,-1,-1,37.75470352172852,1414,-9999,6448.732576750001,-0.1791839599609375,0.887939453125,0.24993896484375,1,0.93
2020-05-19 14:53:26.340 -0400,1589914404.458334,41.36020010452999,-71.80989891570417,14.47102,-1,-1,37.75470352172852,1414,-9999,6448.78246975,-0.177886962890625,0.951019287109375,0.4533233642578125,1,0.93
2020-05-19 14:53:26.390 -0400,1589914404.458334,41.36020010452999,-71.80989891570417,14.47102,-1,-1,37.75470352172852,1414,-9999,6448.83236225,-0.19110107421875,0.9011993408203125,0.3374176025390625,1,0.93
2020-05-19 14:53:26.440 -0400,1589914404.458334,41.36020010452999,-71.80989891570417,14.47102,-1,-1,37.75470352172852,1414,-9999,6448.882253250001,-0.1967010498046875,0.9344482421875,0.3425140380859375,1,0.93
2020-05-19 14:53:26.490 -0400,1589914404.458334,41.36020010452999,-71.80989891570417,14.47102,-1,-1,37.75470352172852,1414,-9999,6448.932142250001,-0.1901397705078125,0.9580078125,0.3414154052734375,1,0.93
2020-05-19 14:53:26.540 -0400,1589914404.458334,41.36020010452999,-71.80989891570417,14.47102,-1,-1,37.75470352172852,1414,-9999,6448.982031250001,-0.190460205078125,0.929931640625,0.2669219970703125,1,0.93
2020-05-19 14:53:26.590 -0400,1589914404.458334,41.36020010452999,-71.80989891570417,14.47102,-1,-1,37.75470352172852,1414,-9999,6449.031921250001,-0.165924072265625,0.9658203125,0.2833404541015625,1,0.93
2020-05-19 14:53:26.639 -0400,1589914404.458334,41.36020010452999,-71.80989891570417,14.47102,-1,-1,37.75470352172852,1414,-9999,6449.08181125,-0.1616668701171875,0.9316864013671875,0.28997802734375,1,0.93
2020-05-19 14:53:26.689 -0400,1589914404.458334,41.36020010452999,-71.80989891570417,14.47102,-1,-1,37.75470352172852,1414,-9999,6449.13170125,-0.1633453369140625,0.9473114013671875,0.331878662109375,1,0.93
2020-05-19 14:53:26.739 -0400,1589914404.458334,41.36020010452999,-71.80989891570417,14.47102,-1,-1,37.75470352172852,1414,-9999,6449.18159025,-0.1677398681640625,0.936126708984375,0.292633056640625,1,0.93
2020-05-19 14:53:26.789 -0400,1589914404.458334,41.36020010452999,-71.80989891570417,14.47102,-1,-1,37.75470352172852,1414,-9999,6449.231481250001,-0.1665191650390625,0.9522552490234375,0.2697296142578125,1,0.93
2020-05-19 14:53:26.839 -0400,1589914404.458334,41.36020010452999,-71.80989891570417,14.47102,-1,-1,37.75470352172852,1414,-9999,6449.281373250001,-0.163726806640625,0.9684600830078125,0.2573089599609375,1,0.93
2020-05-19 14:53:26.889 -0400,1589914404.458334,41.36020010452999,-71.80989891570417,14.47102,-1,-1,37.75470352172852,1414,-9999,6449.33126325,-0.1234130859375,0.9686431884765625,0.21820068359375,1,0.93
2020-05-19 14:53:26.939 -0400,1589914404.458334,41.36020010452999,-71.80989891570417,14.47102,-1,-1,37.75470352172852,1414,-9999,6449.38115025,-0.1171875,0.95782470703125,0.2054595947265625,1,0.93
2020-05-19 14:53:26.989 -0400,1589914404.458334,41.36020010452999,-71.80989891570417,14.47102,-1,-1,37.75470352172852,1414,-9999,6449.43104025,-0.1475677490234375,0.93499755859375,0.249786376953125,1,0.93
2020-05-19 14:53:27.038 -0400,1589914404.458334,41.36020010452999,-71.80989891570417,14.47102,-1,-1,37.75470352172852,1414,-9999,6449.48092825,-0.1469879150390625,0.9642791748046875,0.2821197509765625,1,0.93
2020-05-19 14:53:27.088 -0400,1589914404.458334,41.36020010452999,-71.80989891570417,14.47102,-1,-1,37.75470352172852,1414,-9999,6449.53081625,-0.1342620849609375,0.95501708984375,0.2648773193359375,1,0.93
2020-05-19 14:53:27.138 -0400,1589914404.458334,41.36020010452999,-71.80989891570417,14.47102,-1,-1,37.75470352172852,1414,-9999,6449.58070425,-0.1374359130859375,0.945526123046875,0.2401885986328125,1,0.93
2020-05-19 14:53:27.188 -0400,1589914404.458334,41.36020010452999,-71.80989891570417,14.47102,-1,-1,37.75470352172852,1414,-9999,6449.630592250001,-0.140228271484375,0.9552459716796875,0.232330322265625,1,0.93
2020-05-19 14:53:27.238 -0400,1589914404.458334,41.36020010452999,-71.80989891570417,14.47102,-1,-1,37.75470352172852,1414,-9999,6449.68047725,-0.1453094482421875,0.977752685546875,0.247344970703125,1,0.93
2020-05-19 14:53:27.288 -0400,1589914404.458334,41.36020010452999,-71.80989891570417,14.47102,-1,-1,37.75470352172852,1414,-9999,6449.730363250001,-0.16546630859375,0.970977783203125,0.2555389404296875,1,0.93
2020-05-19 14:53:27.338 -0400,1589914404.458334,41.36020010452999,-71.80989891570417,14.47102,-1,-1,37.75470352172852,1414,-9999,6449.78024925,-0.15069580078125,0.950927734375,0.2627410888671875,1,0.93
2020-05-19 14:53:27.388 -0400,1589914404.458334,41.36020010452999,-71.80989891570417,14.47102,-1,-1,37.75470352172852,1414,-9999,6449.83013775,-0.150970458984375,0.9524383544921875,0.256927490234375,1,0.93
2020-05-19 14:53:27.438 -0400,1589914404.458334,41.36020010452999,-71.80989891570417,14.47102,-1,-1,37.75470352172852,1414,-9999,6449.88002775,-0.1531219482421875,0.970703125,0.2500457763671875,1,0.93
2020-05-19 14:53:27.488 -0400,1589914404.458334,41.36020010452999,-71.80989891570417,14.47102,-1,-1,37.75470352172852,1414,-9999,6449.92991675,-0.146392822265625,0.9795074462890625,0.253204345703125,1,0.93
2020-05-19 14:53:27.537 -0400,1589914404.458334,41.36020010452999,-71.80989891570417,14.47102,-1,-1,37.75470352172852,1414,-9999,6449.979801750001,-0.1507110595703125,0.959991455078125,0.2338714599609375,1,0.93
2020-05-19 14:53:27.587 -0400,1589914404.458334,41.36020010452999,-71.80989891570417,14.47102,-1,-1,37.75470352172852,1414,-9999,6450.029688750001,-0.1448516845703125,0.9390869140625,0.224517822265625,1,0.93
2020-05-19 14:53:27.637 -0400,1589914404.458334,41.36020010452999,-71.80989891570417,14.47102,-1,-1,37.75470352172852,1414,-9999,6450.079572750001,-0.1409149169921875,0.9571685791015625,0.247100830078125,1,0.93
2020-05-19 14:53:27.687 -0400,1589914404.458334,41.36020010452999,-71.80989891570417,14.47102,-1,-1,37.75470352172852,1414,-9999,6450.12946275,-0.1358795166015625,0.9614715576171875,0.2468414306640625,1,0.93
2020-05-19 14:53:27.737 -0400,1589914404.458334,41.36020010452999,-71.80989891570417,14.47102,-1,-1,37.75470352172852,1414,-9999,6450.17934975,-0.132080078125,0.9631195068359375,0.2421875,1,0.93
2020-05-19 14:53:27.787 -0400,1589914404.458334,41.36020010452999,-71.80989891570417,14.47102,-1,-1,37.75470352172852,1414,-9999,6450.229237750001,-0.1330718994140625,0.946533203125,0.2209320068359375,1,0.93
2020-05-19 14:53:27.837 -0400,1589914404.458334,41.36020010452999,-71.80989891570417,14.47102,-1,-1,37.75470352172852,1414,-9999,6450.27912475,-0.137420654296875,0.9616241455078125,0.21234130859375,1,0.93
2020-05-19 14:53:27.887 -0400,1589914404.458334,41.36020010452999,-71.80989891570417,14.47102,-1,-1,37.75470352172852,1414,-9999,6450.329013750001,-0.1395111083984375,0.977813720703125,0.2099151611328125,1,0.93
2020-05-19 14:53:27.936 -0400,1589914404.458334,41.36020010452999,-71.80989891570417,14.47102,-1,-1,37.75470352172852,1414,-9999,6450.37890375,-0.147674560546875,0.97247314453125,0.206512451171875,1,0.93
2020-05-19 14:53:27.986 -0400,1589914404.458334,41.36020010452999,-71.80989891570417,14.47102,-1,-1,37.75470352172852,1414,-9999,6450.428789750001,-0.1475677490234375,0.9717254638671875,0.2394866943359375,1,0.93
2020-05-19 14:53:28.036 -0400,1589914404.458334,41.36020010452999,-71.80989891570417,14.47102,-1,-1,37.75470352172852,1414,-9999,6450.478675750001,-0.1486968994140625,0.955474853515625,0.2367706298828125,1,0.93
2020-05-19 14:53:28.086 -0400,1589914404.458334,41.36020010452999,-71.80989891570417,14.47102,-1,-1,37.75470352172852,1414,-9999,6450.52855875,-0.14776611328125,0.9647979736328125,0.224578857421875,1,0.93
2020-05-19 14:53:28.136 -0400,1589914404.458334,41.36020010452999,-71.80989891570417,14.47102,-1,-1,37.75470352172852,1414,-9999,6450.57844475,-0.1556854248046875,0.969940185546875,0.2176971435546875,1,0.93
2020-05-19 14:53:28.186 -0400,1589914404.458334,41.36020010452999,-71.80989891570417,14.47102,-1,-1,37.75470352172852,1414,-9999,6450.628330750001,-0.1569366455078125,0.96099853515625,0.2244415283203125,1,0.93
2020-05-19 14:53:28.236 -0400,1589914404.458334,41.36020010452999,-71.80989891570417,14.47102,-1,-1,37.75470352172852,1414,-9999,6450.678214750001,-0.1554107666015625,0.958099365234375,0.2180938720703125,1,0.93
2020-05-19 14:53:28.286 -0400,1589914404.458334,41.36020010452999,-71.80989891570417,14.47102,-1,-1,37.75470352172852,1414,-9999,6450.728100750001,-0.14825439453125,0.9609222412109375,0.236297607421875,1,0.93
2020-05-19 14:53:28.335 -0400,1589914404.458334,41.36020010452999,-71.80989891570417,14.47102,-1,-1,37.75470352172852,1414,-9999,6450.77798575,-0.15228271484375,0.9624176025390625,0.2223968505859375,1,0.93
2020-05-19 14:53:28.385 -0400,1589914404.458334,41.36020010452999,-71.80989891570417,14.47102,-1,-1,37.75470352172852,1414,-9999,6450.827871041667,-0.1589508056640625,0.982177734375,0.22332763671875,1,0.93
2020-05-19 14:53:28.435 -0400,1589914404.458334,41.36020010452999,-71.80989891570417,14.47102,-1,-1,37.75470352172852,1414,-9999,6450.877755041667,-0.1620941162109375,0.9524993896484375,0.22320556640625,1,0.93
2020-05-19 14:53:28.485 -0400,1589914404.458334,41.36020010452999,-71.80989891570417,14.47102,-1,-1,37.75470352172852,1414,-9999,6450.927643041667,-0.1537933349609375,0.9454193115234375,0.22137451171875,1,0.93
2020-05-19 14:53:28.535 -0400,1589914404.458334,41.36020010452999,-71.80989891570417,14.47102,-1,-1,37.75470352172852,1414,-9999,6450.977527041667,-0.1587371826171875,0.9623565673828125,0.224212646484375,1,0.93
2020-05-19 14:53:28.585 -0400,1589914404.458334,41.36020010452999,-71.80989891570417,14.47102,-1,-1,37.75470352172852,1414,-9999,6451.027414041667,-0.1595306396484375,0.9771728515625,0.2361602783203125,1,0.93
2020-05-19 14:53:28.635 -0400,1589914404.458334,41.36020010452999,-71.80989891570417,14.47102,-1,-1,37.75470352172852,1414,-9999,6451.077302041667,-0.160797119140625,0.9766693115234375,0.234954833984375,1,0.93
2020-05-19 14:53:28.685 -0400,1589914404.458334,41.36020010452999,-71.80989891570417,14.47102,-1,-1,37.75470352172852,1414,-9999,6451.127191041667,-0.1528472900390625,0.961456298828125,0.224334716796875,1,0.93
2020-05-19 14:53:28.735 -0400,1589914404.458334,41.36020010452999,-71.80989891570417,14.47102,-1,-1,37.75470352172852,1414,-9999,6451.177080041667,-0.1553497314453125,0.9618072509765625,0.2130584716796875,1,0.93
2020-05-19 14:53:28.785 -0400,1589914408.47338,41.35973753809519,-71.81073895552976,4.253251,0.5025707,325.2537357473926,93.21333261027888,117.0332327228863,-9999,6451.226968041667,-0.1598358154296875,0.9697723388671875,0.2125091552734375,1,0.93
2020-05-19 14:53:28.834 -0400,1589914408.47338,41.35973753809519,-71.81073895552976,4.253251,0.5025707,325.2537357473926,93.21333261027888,117.0332327228863,-9999,6451.276857041667,-0.1600189208984375,0.965179443359375,0.2230224609375,1,0.93
2020-05-19 14:53:28.884 -0400,1589914408.47338,41.35973753809519,-71.81073895552976,4.253251,0.5025707,325.2537357473926,93.21333261027888,117.0332327228863,-9999,6451.326746041667,-0.151519775390625,0.9510650634765625,0.2181243896484375,1,0.93
2020-05-19 14:53:28.934 -0400,1589914408.47338,41.35973753809519,-71.81073895552976,4.253251,0.5025707,325.2537357473926,93.21333261027888,117.0332327228863,-9999,6451.376632041667,-0.1463165283203125,0.94927978515625,0.22637939453125,1,0.93
2020-05-19 14:53:28.984 -0400,1589914408.47338,41.35973753809519,-71.81073895552976,4.253251,0.5025707,325.2537357473926,93.21333261027888,117.0332327228863,-9999,6451.426520041667,-0.151580810546875,0.962890625,0.2227325439453125,1,0.93
2020-05-19 14:53:29.034 -0400,1589914408.47338,41.35973753809519,-71.81073895552976,4.253251,0.5025707,325.2537357473926,93.21333261027888,117.0332327228863,-9999,6451.476407041667,-0.15472412109375,0.9775543212890625,0.2326812744140625,1,0.93
2020-05-19 14:53:29.084 -0400,1589914408.47338,41.35973753809519,-71.81073895552976,4.253251,0.5025707,325.2537357473926,93.21333261027888,117.0332327228863,-9999,6451.526297041667,-0.158203125,0.9541015625,0.2313690185546875,1,0.93
2020-05-19 14:53:29.134 -0400,1589914408.47338,41.35973753809519,-71.81073895552976,4.253251,0.5025707,325.2537357473926,93.21333261027888,117.0332327228863,-9999,6451.576182041667,-0.154998779296875,0.948699951171875,0.22161865234375,1,0.93
2020-05-19 14:53:29.184 -0400,1589914408.47338,41.35973753809519,-71.81073895552976,4.253251,0.5025707,325.2537357473926,93.21333261027888,117.0332327228863,-9999,6451.626068041667,-0.155792236328125,0.9588623046875,0.2271881103515625,1,0.93
2020-05-19 14:53:29.233 -0400,1589914408.47338,41.35973753809519,-71.81073895552976,4.253251,0.5025707,325.2537357473926,93.21333261027888,117.0332327228863,-9999,6451.675955041667,-0.1572418212890625,0.9786224365234375,0.2315826416015625,1,0.93
2020-05-19 14:53:29.283 -0400,1589914408.47338,41.35973753809519,-71.81073895552976,4.253251,0.5025707,325.2537357473926,93.21333261027888,117.0332327228863,-9999,6451.725843041667,-0.157073974609375,0.979156494140625,0.2296600341796875,1,0.93
2020-05-19 14:53:29.333 -0400,1589914408.47338,41.35973753809519,-71.81073895552976,4.253251,0.5025707,325.2537357473926,93.21333261027888,117.0332327228863,-9999,6451.775732041667,-0.1554412841796875,0.958099365234375,0.2118072509765625,1,0.93
2020-05-19 14:53:29.383 -0400,1589914408.47338,41.35973753809519,-71.81073895552976,4.253251,0.5025707,325.2537357473926,93.21333261027888,117.0332327228863,-9999,6451.825622291667,-0.155487060546875,0.949066162109375,0.2077789306640625,1,0.93
2020-05-19 14:53:29.433 -0400,1589914408.47338,41.35973753809519,-71.81073895552976,4.253251,0.5025707,325.2537357473926,93.21333261027888,117.0332327228863,-9999,6451.875513291667,-0.1556549072265625,0.957275390625,0.214202880859375,1,0.93
2020-05-19 14:53:29.483 -0400,1589914408.47338,41.35973753809519,-71.81073895552976,4.253251,0.5025707,325.2537357473926,93.21333261027888,117.0332327228863,-9999,6451.925404291667,-0.158447265625,0.9738616943359375,0.2230987548828125,1,0.93
2020-05-19 14:53:29.533 -0400,1589914408.47338,41.35973753809519,-71.81073895552976,4.253251,0.5025707,325.2537357473926,93.21333261027888,117.0332327228863,-9999,6451.975295291667,-0.143310546875,0.964874267578125,0.2306060791015625,1,0.93
2020-05-19 14:53:29.584 -0400,1589914408.47338,41.35973753809519,-71.81073895552976,4.253251,0.5025707,325.2537357473926,93.21333261027888,117.0332327228863,-9999,6452.025185291667,-0.145294189453125,0.951934814453125,0.2216796875,1,0.93
2020-05-19 14:53:29.633 -0400,1589914408.47338,41.35973753809519,-71.81073895552976,4.253251,0.5025707,325.2537357473926,93.21333261027888,117.0332327228863,-9999,6452.075073291667,-0.152984619140625,0.9588775634765625,0.2264862060546875,1,0.93
2020-05-19 14:53:29.689 -0400,1589914408.47338,41.35973753809519,-71.81073895552976,4.253251,0.5025707,325.2537357473926,93.21333261027888,117.0332327228863,-9999,6452.124960291667,-0.1484375,0.9665679931640625,0.2167510986328125,1,0.93
2020-05-19 14:53:29.732 -0400,1589914409.47339,41.35994211063638,-71.81070702222965,25.60079,0.6940476,342.6842064469936,13.74716045698868,45.04854581802966,-9999,6452.174848291667,-0.16009521484375,0.9789581298828125,0.2076416015625,1,0.93
2020-05-19 14:53:29.782 -0400,1589914409.47339,41.35994211063638,-71.81070702222965,25.60079,0.6940476,342.6842064469936,13.74716045698868,45.04854581802966,-9999,6452.224736291667,-0.1597747802734375,0.9693450927734375,0.2167816162109375,1,0.93
2020-05-19 14:53:29.832 -0400,1589914409.47339,41.35994211063638,-71.81070702222965,25.60079,0.6940476,342.6842064469936,13.74716045698868,45.04854581802966,-9999,6452.274623291667,-0.144500732421875,0.9583587646484375,0.219268798828125,1,0.93
2020-05-19 14:53:29.882 -0400,1589914409.47339,41.35994211063638,-71.81070702222965,25.60079,0.6940476,342.6842064469936,13.74716045698868,45.04854581802966,-9999,6452.324513291667,-0.1603546142578125,0.969024658203125,0.21783447265625,1,0.93
2020-05-19 14:53:29.932 -0400,1589914409.47339,41.35994211063638,-71.81070702222965,25.60079,0.6940476,342.6842064469936,13.74716045698868,45.04854581802966,-9999,6452.374401291667,-0.157958984375,0.976043701171875,0.21588134765625,1,0.93
2020-05-19 14:53:29.982 -0400,1589914409.47339,41.35994211063638,-71.81070702222965,25.60079,0.6940476,342.6842064469936,13.74716045698868,45.04854581802966,-9999,6452.424289291667,-0.1545867919921875,0.9602813720703125,0.2044525146484375,1,0.93
2020-05-19 14:53:30.032 -0400,1589914409.47339,41.35994211063638,-71.81070702222965,25.60079,0.6940476,342.6842064469936,13.74716045698868,45.04854581802966,-9999,6452.474179291667,-0.1512908935546875,0.9531097412109375,0.19390869140625,1,0.93
2020-05-19 14:53:30.082 -0400,1589914409.47339,41.35994211063638,-71.81070702222965,25.60079,0.6940476,342.6842064469936,13.74716045698868,45.04854581802966,-9999,6452.524069291667,-0.1539764404296875,0.96185302734375,0.2028656005859375,1,0.93
2020-05-19 14:53:30.132 -0400,1589914409.47339,41.35994211063638,-71.81070702222965,25.60079,0.6940476,342.6842064469936,13.74716045698868,45.04854581802966,-9999,6452.573965291667,-0.1513519287109375,0.9678802490234375,0.208892822265625,1,0.93
2020-05-19 14:53:30.182 -0400,1589914409.47339,41.35994211063638,-71.81070702222965,25.60079,0.6940476,342.6842064469936,13.74716045698868,45.04854581802966,-9999,6452.623859291667,-0.1505889892578125,0.973052978515625,0.225128173828125,1,0.93
2020-05-19 14:53:30.231 -0400,1589914409.47339,41.35994211063638,-71.81070702222965,25.60079,0.6940476,342.6842064469936,13.74716045698868,45.04854581802966,-9999,6452.673750291667,-0.154754638671875,0.946929931640625,0.2171173095703125,1,0.93
2020-05-19 14:53:30.281 -0400,1589914409.47339,41.35994211063638,-71.81070702222965,25.60079,0.6940476,342.6842064469936,13.74716045698868,45.04854581802966,-9999,6452.723643291667,-0.153350830078125,0.9530792236328125,0.2010498046875,1,0.93
2020-05-19 14:53:30.331 -0400,1589914409.47339,41.35994211063638,-71.81070702222965,25.60079,0.6940476,342.6842064469936,13.74716045698868,45.04854581802966,-9999,6452.773535291667,-0.15814208984375,0.9724273681640625,0.2074127197265625,1,0.93
2020-05-19 14:53:30.381 -0400,1589914409.47339,41.35994211063638,-71.81070702222965,25.60079,0.6940476,342.6842064469936,13.74716045698868,45.04854581802966,-9999,6452.823428041667,-0.15826416015625,0.9811553955078125,0.20953369140625,1,0.93
2020-05-19 14:53:30.431 -0400,1589914409.47339,41.35994211063638,-71.81070702222965,25.60079,0.6940476,342.6842064469936,13.74716045698868,45.04854581802966,-9999,6452.873322041667,-0.1558074951171875,0.977752685546875,0.220947265625,1,0.93
2020-05-19 14:53:30.481 -0400,1589914409.47339,41.35994211063638,-71.81070702222965,25.60079,0.6940476,342.6842064469936,13.74716045698868,45.04854581802966,-9999,6452.923216041667,-0.149749755859375,0.957672119140625,0.2131195068359375,1,0.93
2020-05-19 14:53:30.531 -0400,1589914409.47339,41.35994211063638,-71.81070702222965,25.60079,0.6940476,342.6842064469936,13.74716045698868,45.04854581802966,-9999,6452.973110041667,-0.1529083251953125,0.9583587646484375,0.1950225830078125,1,0.93
2020-05-19 14:53:30.581 -0400,1589914409.47339,41.35994211063638,-71.81070702222965,25.60079,0.6940476,342.6842064469936,13.74716045698868,45.04854581802966,-9999,6453.023003041667,-0.15228271484375,0.9721221923828125,0.196197509765625,1,0.93
2020-05-19 14:53:30.630 -0400,1589914409.47339,41.35994211063638,-71.81070702222965,25.60079,0.6940476,342.6842064469936,13.74716045698868,45.04854581802966,-9999,6453.072897041667,-0.157745361328125,0.970916748046875,0.20318603515625,1,0.93
2020-05-19 14:53:30.680 -0400,1589914409.47339,41.35994211063638,-71.81070702222965,25.60079,0.6940476,342.6842064469936,13.74716045698868,45.04854581802966,-9999,6453.122790041667,-0.1491546630859375,0.9586181640625,0.2068328857421875,1,0.93
2020-05-19 14:53:30.730 -0400,1589914409.47339,41.35994211063638,-71.81070702222965,25.60079,0.6940476,342.6842064469936,13.74716045698868,45.04854581802966,-9999,6453.172686041667,-0.1479949951171875,0.9537200927734375,0.2120513916015625,1,0.93
2020-05-19 14:53:30.780 -0400,1589914410.4734,41.35995977586159,-71.81073512929099,25.40837,0.2321808,328.1591180550714,12.98332089590206,25.44836337896815,-9999,6453.222581041667,-0.1536712646484375,0.9708251953125,0.2156219482421875,1,0.93
2020-05-19 14:53:30.830 -0400,1589914410.4734,41.35995977586159,-71.81073512929099,25.40837,0.2321808,328.1591180550714,12.98332089590206,25.44836337896815,-9999,6453.272478041667,-0.1537933349609375,0.98455810546875,0.2181396484375,1,0.93
2020-05-19 14:53:30.883 -0400,1589914410.4734,41.35995977586159,-71.81073512929099,25.40837,0.2321808,328.1591180550714,12.98332089590206,25.44836337896815,-9999,6453.322376041667,-0.1578369140625,0.9560394287109375,0.2088623046875,1,0.93
2020-05-19 14:53:30.930 -0400,1589914410.4734,41.35995977586159,-71.81073512929099,25.40837,0.2321808,328.1591180550714,12.98332089590206,25.44836337896815,-9999,6453.372271041667,-0.15057373046875,0.956451416015625,0.20562744140625,1,0.93
2020-05-19 14:53:30.980 -0400,1589914410.4734,41.35995977586159,-71.81073512929099,25.40837,0.2321808,328.1591180550714,12.98332089590206,25.44836337896815,-9999,6453.422164041667,-0.15533447265625,0.9677734375,0.213714599609375,1,0.93
2020-05-19 14:53:31.030 -0400,1589914410.4734,41.35995977586159,-71.81073512929099,25.40837,0.2321808,328.1591180550714,12.98332089590206,25.44836337896815,-9999,6453.472060041667,-0.155059814453125,0.981353759765625,0.2192230224609375,1,0.93
2020-05-19 14:53:31.080 -0400,1589914410.4734,41.35995977586159,-71.81073512929099,25.40837,0.2321808,328.1591180550714,12.98332089590206,25.44836337896815,-9999,6453.521957041667,-0.1544647216796875,0.9853363037109375,0.213531494140625,1,0.93
2020-05-19 14:53:31.129 -0400,1589914410.4734,41.35995977586159,-71.81073512929099,25.40837,0.2321808,328.1591180550714,12.98332089590206,25.44836337896815,-9999,6453.571855041667,-0.1531219482421875,0.9600067138671875,0.20281982421875,1,0.93
2020-05-19 14:53:31.179 -0400,1589914410.4734,41.35995977586159,-71.81073512929099,25.40837,0.2321808,328.1591180550714,12.98332089590206,25.44836337896815,-9999,6453.621754041667,-0.1463623046875,0.9498291015625,0.1981964111328125,1,0.93
2020-05-19 14:53:31.229 -0400,1589914410.4734,41.35995977586159,-71.81073512929099,25.40837,0.2321808,328.1591180550714,12.98332089590206,25.44836337896815,-9999,6453.671654041667,-0.150604248046875,0.96331787109375,0.2019195556640625,1,0.93
2020-05-19 14:53:31.279 -0400,1589914410.4734,41.35995977586159,-71.81073512929099,25.40837,0.2321808,328.1591180550714,12.98332089590206,25.44836337896815,-9999,6453.721553041667,-0.1514739990234375,0.9736175537109375,0.2117462158203125,1,0.93
2020-05-19 14:53:31.329 -0400,1589914410.4734,41.35995977586159,-71.81073512929099,25.40837,0.2321808,328.1591180550714,12.98332089590206,25.44836337896815,-9999,6453.771451041667,-0.1499481201171875,0.9717864990234375,0.2160186767578125,1,0.93
2020-05-19 14:53:31.379 -0400,1589914410.4734,41.35995977586159,-71.81073512929099,25.40837,0.2321808,328.1591180550714,12.98332089590206,25.44836337896815,-9999,6453.821345041667,-0.1472625732421875,0.954620361328125,0.2100677490234375,1,0.93
2020-05-19 14:53:31.429 -0400,1589914410.4734,41.35995977586159,-71.81073512929099,25.40837,0.2321808,328.1591180550714,12.98332089590206,25.44836337896815,-9999,6453.871241166667,-0.1473846435546875,0.9544830322265625,0.203369140625,1,0.93
2020-05-19 14:53:31.479 -0400,1589914410.4734,41.35995977586159,-71.81073512929099,25.40837,0.2321808,328.1591180550714,12.98332089590206,25.44836337896815,-9999,6453.921131166667,-0.1568603515625,0.982574462890625,0.2115020751953125,1,0.93
2020-05-19 14:53:31.529 -0400,1589914410.4734,41.35995977586159,-71.81073512929099,25.40837,0.2321808,328.1591180550714,12.98332089590206,25.44836337896815,-9999,6453.971025166667,-0.16302490234375,0.9690704345703125,0.214385986328125,1,0.93
2020-05-19 14:53:31.578 -0400,1589914410.4734,41.35995977586159,-71.81073512929099,25.40837,0.2321808,328.1591180550714,12.98332089590206,25.44836337896815,-9999,6454.020921166667,-0.1518707275390625,0.9663543701171875,0.222625732421875,1,0.93
2020-05-19 14:53:31.628 -0400,1589914410.4734,41.35995977586159,-71.81073512929099,25.40837,0.2321808,328.1591180550714,12.98332089590206,25.44836337896815,-9999,6454.070817166667,-0.152435302734375,0.9615631103515625,0.2111663818359375,1,0.93
2020-05-19 14:53:31.678 -0400,1589914410.4734,41.35995977586159,-71.81073512929099,25.40837,0.2321808,328.1591180550714,12.98332089590206,25.44836337896815,-9999,6454.120712166667,-0.14910888671875,0.9693450927734375,0.204315185546875,1,0.93
2020-05-19 14:53:31.728 -0400,1589914411.473409,41.35997636624692,-71.81074537000674,25.30244,0.1678318,55.4803887188023,12.9065108607086,14.72362151728362,-9999,6454.170608166667,-0.1588287353515625,0.973297119140625,0.1891021728515625,1,0.93
2020-05-19 14:53:31.778 -0400,1589914411.473409,41.35997636624692,-71.81074537000674,25.30244,0.1678318,55.4803887188023,12.9065108607086,14.72362151728362,-9999,6454.220508166667,-0.198760986328125,0.9592742919921875,0.19110107421875,1,0.93
2020-05-19 14:53:31.828 -0400,1589914411.473409,41.35997636624692,-71.81074537000674,25.30244,0.1678318,55.4803887188023,12.9065108607086,14.72362151728362,-9999,6454.270406166667,-0.2058868408203125,0.95184326171875,0.2047119140625,1,0.93
2020-05-19 14:53:31.880 -0400,1589914411.473409,41.35997636624692,-71.81074537000674,25.30244,0.1678318,55.4803887188023,12.9065108607086,14.72362151728362,-9999,6454.320302166667,-0.199249267578125,0.95343017578125,0.2108001708984375,1,0.93
2020-05-19 14:53:31.928 -0400,1589914411.473409,41.35997636624692,-71.81074537000674,25.30244,0.1678318,55.4803887188023,12.9065108607086,14.72362151728362,-9999,6454.370197166667,-0.198272705078125,0.949798583984375,0.203765869140625,1,0.93
2020-05-19 14:53:31.978 -0400,1589914411.473409,41.35997636624692,-71.81074537000674,25.30244,0.1678318,55.4803887188023,12.9065108607086,14.72362151728362,-9999,6454.420092166667,-0.20355224609375,0.9759063720703125,0.225006103515625,1,0.93
2020-05-19 14:53:32.027 -0400,1589914411.473409,41.35997636624692,-71.81074537000674,25.30244,0.1678318,55.4803887188023,12.9065108607086,14.72362151728362,-9999,6454.469986166667,-0.2151336669921875,0.9430694580078125,0.2237396240234375,1,0.93
2020-05-19 14:53:32.077 -0400,1589914411.473409,41.35997636624692,-71.81074537000674,25.30244,0.1678318,55.4803887188023,12.9065108607086,14.72362151728362,-9999,6454.519881166667,-0.201202392578125,0.96026611328125,0.225799560546875,1,0.93
2020-05-19 14:53:32.127 -0400,1589914411.473409,41.35997636624692,-71.81074537000674,25.30244,0.1678318,55.4803887188023,12.9065108607086,14.72362151728362,-9999,6454.569778166667,-0.211669921875,0.9459075927734375,0.2053680419921875,1,0.93
2020-05-19 14:53:32.177 -0400,1589914411.473409,41.35997636624692,-71.81074537000674,25.30244,0.1678318,55.4803887188023,12.9065108607086,14.72362151728362,-9999,6454.619676166667,-0.219146728515625,0.9602203369140625,0.2240447998046875,1,0.93
2020-05-19 14:53:32.227 -0400,1589914411.473409,41.35997636624692,-71.81074537000674,25.30244,0.1678318,55.4803887188023,12.9065108607086,14.72362151728362,-9999,6454.669572166667,-0.2177581787109375,0.9626312255859375,0.2298736572265625,1,0.93
2020-05-19 14:53:32.277 -0400,1589914411.473409,41.35997636624692,-71.81074537000674,25.30244,0.1678318,55.4803887188023,12.9065108607086,14.72362151728362,-9999,6454.719466166667,-0.2160797119140625,0.9454345703125,0.230804443359375,1,0.93
2020-05-19 14:53:32.327 -0400,1589914411.473409,41.35997636624692,-71.81074537000674,25.30244,0.1678318,55.4803887188023,12.9065108607086,14.72362151728362,-9999,6454.769359166667,-0.214019775390625,0.9572296142578125,0.221435546875,1,0.93
2020-05-19 14:53:32.377 -0400,1589914411.473409,41.35997636624692,-71.81074537000674,25.30244,0.1678318,55.4803887188023,12.9065108607086,14.72362151728362,-9999,6454.819253166667,-0.2196502685546875,0.967437744140625,0.222869873046875,1,0.93
2020-05-19 14:53:32.427 -0400,1589914411.473409,41.35997636624692,-71.81074537000674,25.30244,0.1678318,55.4803887188023,12.9065108607086,14.72362151728362,-9999,6454.86914625,-0.2345428466796875,0.9300689697265625,0.2040863037109375,1,0.93
2020-05-19 14:53:32.477 -0400,1589914411.473409,41.35997636624692,-71.81074537000674,25.30244,0.1678318,55.4803887188023,12.9065108607086,14.72362151728362,-9999,6454.91903925,-0.261993408203125,0.9481201171875,0.2204742431640625,1,0.93
2020-05-19 14:53:32.527 -0400,1589914411.473409,41.35997636624692,-71.81074537000674,25.30244,0.1678318,55.4803887188023,12.9065108607086,14.72362151728362,-9999,6454.96893125,-0.2884063720703125,0.951202392578125,0.226287841796875,1,0.93
2020-05-19 14:53:32.577 -0400,1589914411.473409,41.35997636624692,-71.81074537000674,25.30244,0.1678318,55.4803887188023,12.9065108607086,14.72362151728362,-9999,6455.018824250001,-0.3043975830078125,0.93878173828125,0.22650146484375,1,0.93
2020-05-19 14:53:32.626 -0400,1589914411.473409,41.35997636624692,-71.81074537000674,25.30244,0.1678318,55.4803887188023,12.9065108607086,14.72362151728362,-9999,6455.06871525,-0.3361968994140625,0.9180755615234375,0.20184326171875,1,0.93
2020-05-19 14:53:32.676 -0400,1589914412.423418,41.35997051296881,-71.8107473934067,25.00212,0.1278487,351.8012828400292,11.68163014343823,11.22000490231271,-9999,6455.11860925,-0.38232421875,0.9551849365234375,0.2173919677734375,1,0.93
2020-05-19 14:53:32.726 -0400,1589914412.423418,41.35997051296881,-71.8107473934067,25.00212,0.1278487,351.8012828400292,11.68163014343823,11.22000490231271,-9999,6455.168502250001,-0.40948486328125,0.8298187255859375,0.1547393798828125,1,0.93
2020-05-19 14:53:32.776 -0400,1589914412.423418,41.35997051296881,-71.8107473934067,25.00212,0.1278487,351.8012828400292,11.68163014343823,11.22000490231271,-9999,6455.21839825,-0.388031005859375,0.963043212890625,0.2724456787109375,1,0.93
2020-05-19 14:53:32.826 -0400,1589914412.423418,41.35997051296881,-71.8107473934067,25.00212,0.1278487,351.8012828400292,11.68163014343823,11.22000490231271,-9999,6455.268297250001,-0.4275665283203125,0.8968048095703125,0.2301483154296875,1,0.93
2020-05-19 14:53:32.884 -0400,1589914412.423418,41.35997051296881,-71.8107473934067,25.00212,0.1278487,351.8012828400292,11.68163014343823,11.22000490231271,-9999,6455.318195250001,-0.4466705322265625,0.926788330078125,0.2524871826171875,1,0.93
2020-05-19 14:53:32.926 -0400,1589914412.423418,41.35997051296881,-71.8107473934067,25.00212,0.1278487,351.8012828400292,11.68163014343823,11.22000490231271,-9999,6455.368092250001,-0.4399871826171875,0.92523193359375,0.196258544921875,1,0.93
2020-05-19 14:53:32.976 -0400,1589914412.423418,41.35997051296881,-71.8107473934067,25.00212,0.1278487,351.8012828400292,11.68163014343823,11.22000490231271,-9999,6455.417987250001,-0.466033935546875,0.90814208984375,0.2112884521484375,1,0.93
2020-05-19 14:53:33.025 -0400,1589914412.423418,41.35997051296881,-71.8107473934067,25.00212,0.1278487,351.8012828400292,11.68163014343823,11.22000490231271,-9999,6455.46788225,-0.4474029541015625,0.885101318359375,0.1713104248046875,1,0.93
2020-05-19 14:53:33.075 -0400,1589914412.423418,41.35997051296881,-71.8107473934067,25.00212,0.1278487,351.8012828400292,11.68163014343823,11.22000490231271,-9999,6455.517776250001,-0.47210693359375,0.9003753662109375,0.1858978271484375,1,0.93
2020-05-19 14:53:33.125 -0400,1589914412.423418,41.35997051296881,-71.8107473934067,25.00212,0.1278487,351.8012828400292,11.68163014343823,11.22000490231271,-9999,6455.56766925,-0.4482879638671875,0.8938140869140625,0.1858673095703125,1,0.93
2020-05-19 14:53:33.175 -0400,1589914412.423418,41.35997051296881,-71.8107473934067,25.00212,0.1278487,351.8012828400292,11.68163014343823,11.22000490231271,-9999,6455.617563250001,-0.4427490234375,0.8910369873046875,0.188385009765625,1,0.93
2020-05-19 14:53:33.225 -0400,1589914412.423418,41.35997051296881,-71.8107473934067,25.00212,0.1278487,351.8012828400292,11.68163014343823,11.22000490231271,-9999,6455.667455250001,-0.4377593994140625,0.88983154296875,0.1640472412109375,1,0.93
2020-05-19 14:53:33.275 -0400,1589914412.423418,41.35997051296881,-71.8107473934067,25.00212,0.1278487,351.8012828400292,11.68163014343823,11.22000490231271,-9999,6455.717349250001,-0.447601318359375,0.8971099853515625,0.181793212890625,1,0.93
2020-05-19 14:53:33.325 -0400,1589914412.423418,41.35997051296881,-71.8107473934067,25.00212,0.1278487,351.8012828400292,11.68163014343823,11.22000490231271,-9999,6455.767241250001,-0.459381103515625,0.9223480224609375,0.1887359619140625,1,0.93
2020-05-19 14:53:33.375 -0400,1589914412.423418,41.35997051296881,-71.8107473934067,25.00212,0.1278487,351.8012828400292,11.68163014343823,11.22000490231271,-9999,6455.817128250001,-0.50067138671875,0.9354095458984375,0.203887939453125,1,0.93
2020-05-19 14:53:33.424 -0400,1589914412.423418,41.35997051296881,-71.8107473934067,25.00212,0.1278487,351.8012828400292,11.68163014343823,11.22000490231271,-9999,6455.867014500001,-0.4853515625,0.84259033203125,0.2201690673828125,1,0.93
2020-05-19 14:53:33.474 -0400,1589914412.423418,41.35997051296881,-71.8107473934067,25.00212,0.1278487,351.8012828400292,11.68163014343823,11.22000490231271,-9999,6455.9169035,-0.481231689453125,0.9146270751953125,0.2768707275390625,1,0.93
2020-05-19 14:53:33.524 -0400,1589914412.423418,41.35997051296881,-71.8107473934067,25.00212,0.1278487,351.8012828400292,11.68163014343823,11.22000490231271,-9999,6455.9667915,-0.4428863525390625,0.8216400146484375,0.181243896484375,1,0.93
2020-05-19 14:53:33.574 -0400,1589914412.423418,41.35997051296881,-71.8107473934067,25.00212,0.1278487,351.8012828400292,11.68163014343823,11.22000490231271,-9999,6456.0166815,-0.518341064453125,0.873992919921875,0.296966552734375,1,0.93
2020-05-19 14:53:33.624 -0400,1589914412.423418,41.35997051296881,-71.8107473934067,25.00212,0.1278487,351.8012828400292,11.68163014343823,11.22000490231271,-9999,6456.0665675,-0.5026397705078125,0.9275970458984375,0.1645660400390625,1,0.93
2020-05-19 14:53:33.674 -0400,1589914413.373426,41.35997053556437,-71.81074339879031,24.95937,0.5785468,1.097404417408679,11.07266685792903,9.990425339114744,-9999,6456.1164545,-0.4696502685546875,0.9298553466796875,0.176177978515625,1,0.93
2020-05-19 14:53:33.724 -0400,1589914413.373426,41.35997053556437,-71.81074339879031,24.95937,0.5785468,1.097404417408679,11.07266685792903,9.990425339114744,-9999,6456.166340500001,-0.482574462890625,0.882049560546875,0.169769287109375,1,0.93
2020-05-19 14:53:33.774 -0400,1589914413.373426,41.35997053556437,-71.81074339879031,24.95937,0.5785468,1.097404417408679,11.07266685792903,9.990425339114744,-9999,6456.2162285,-0.4583740234375,0.901397705078125,0.094146728515625,1,0.93
2020-05-19 14:53:33.824 -0400,1589914413.373426,41.35997053556437,-71.81074339879031,24.95937,0.5785468,1.097404417408679,11.07266685792903,9.990425339114744,-9999,6456.266118500001,-0.480010986328125,0.8771820068359375,0.1220550537109375,1,0.93
2020-05-19 14:53:33.884 -0400,1589914413.373426,41.35997053556437,-71.81074339879031,24.95937,0.5785468,1.097404417408679,11.07266685792903,9.990425339114744,-9999,6456.316010500001,-0.4059906005859375,0.898681640625,0.228790283203125,1,0.93
2020-05-19 14:53:33.924 -0400,1589914413.373426,41.35997053556437,-71.81074339879031,24.95937,0.5785468,1.097404417408679,11.07266685792903,9.990425339114744,-9999,6456.365899500001,-0.461181640625,0.843536376953125,0.0917816162109375,1,0.93
2020-05-19 14:53:33.973 -0400,1589914413.373426,41.35997053556437,-71.81074339879031,24.95937,0.5785468,1.097404417408679,11.07266685792903,9.990425339114744,-9999,6456.4157885,-0.4171142578125,0.8922576904296875,0.15924072265625,1,0.93
2020-05-19 14:53:34.023 -0400,1589914413.373426,41.35997053556437,-71.81074339879031,24.95937,0.5785468,1.097404417408679,11.07266685792903,9.990425339114744,-9999,6456.465681500001,-0.49224853515625,0.9199676513671875,0.171539306640625,1,0.93
2020-05-19 14:53:34.073 -0400,1589914413.373426,41.35997053556437,-71.81074339879031,24.95937,0.5785468,1.097404417408679,11.07266685792903,9.990425339114744,-9999,6456.515570500001,-0.527801513671875,0.7866973876953125,0.1023101806640625,1,0.93
2020-05-19 14:53:34.123 -0400,1589914413.373426,41.35997053556437,-71.81074339879031,24.95937,0.5785468,1.097404417408679,11.07266685792903,9.990425339114744,-9999,6456.565459500001,-0.4998321533203125,0.91436767578125,0.1874542236328125,1,0.93
2020-05-19 14:53:34.173 -0400,1589914413.373426,41.35997053556437,-71.81074339879031,24.95937,0.5785468,1.097404417408679,11.07266685792903,9.990425339114744,-9999,6456.6153485,-0.49993896484375,0.8431549072265625,0.1283416748046875,1,0.93
2020-05-19 14:53:34.223 -0400,1589914413.373426,41.35997053556437,-71.81074339879031,24.95937,0.5785468,1.097404417408679,11.07266685792903,9.990425339114744,-9999,6456.665238500001,-0.541259765625,0.88470458984375,0.15655517578125,1,0.93
2020-05-19 14:53:34.273 -0400,1589914413.373426,41.35997053556437,-71.81074339879031,24.95937,0.5785468,1.097404417408679,11.07266685792903,9.990425339114744,-9999,6456.7151265,-0.557220458984375,0.8703765869140625,0.1675262451171875,1,0.93
2020-05-19 14:53:34.322 -0400,1589914413.373426,41.35997053556437,-71.81074339879031,24.95937,0.5785468,1.097404417408679,11.07266685792903,9.990425339114744,-9999,6456.7650135,-0.5357666015625,0.8742523193359375,0.132781982421875,1,0.93
2020-05-19 14:53:34.372 -0400,1589914413.373426,41.35997053556437,-71.81074339879031,24.95937,0.5785468,1.097404417408679,11.07266685792903,9.990425339114744,-9999,6456.8149025,-0.5201873779296875,0.8809051513671875,0.1513519287109375,1,0.93
2020-05-19 14:53:34.422 -0400,1589914413.373426,41.35997053556437,-71.81074339879031,24.95937,0.5785468,1.097404417408679,11.07266685792903,9.990425339114744,-9999,6456.864792416667,-0.5338897705078125,0.93524169921875,0.119049072265625,1,0.93
2020-05-19 14:53:34.472 -0400,1589914413.373426,41.35997053556437,-71.81074339879031,24.95937,0.5785468,1.097404417408679,11.07266685792903,9.990425339114744,-9999,6456.914680416667,-0.5151824951171875,0.87774658203125,0.0971527099609375,1,0.93
2020-05-19 14:53:34.522 -0400,1589914413.373426,41.35997053556437,-71.81074339879031,24.95937,0.5785468,1.097404417408679,11.07266685792903,9.990425339114744,-9999,6456.964566416667,-0.5166015625,0.887939453125,0.1514739990234375,1,0.93
2020-05-19 14:53:34.572 -0400,1589914413.373426,41.35997053556437,-71.81074339879031,24.95937,0.5785468,1.097404417408679,11.07266685792903,9.990425339114744,-9999,6457.014452416667,-0.485870361328125,0.8534698486328125,0.1224517822265625,1,0.93
2020-05-19 14:53:34.622 -0400,1589914414.323114,41.35999569735593,-71.81075115725247,24.69844,1.733773,330.9508602862359,10.58566356486839,9.060137741087606,-9999,6457.064339416667,-0.5073089599609375,0.87799072265625,0.147003173828125,1,0.93
2020-05-19 14:53:34.672 -0400,1589914414.323114,41.35999569735593,-71.81075115725247,24.69844,1.733773,330.9508602862359,10.58566356486839,9.060137741087606,-9999,6457.114222416667,-0.50238037109375,0.933135986328125,0.1362762451171875,1,0.93
2020-05-19 14:53:34.721 -0400,1589914414.323114,41.35999569735593,-71.81075115725247,24.69844,1.733773,330.9508602862359,10.58566356486839,9.060137741087606,-9999,6457.164109416667,-0.494476318359375,0.9346466064453125,0.1805877685546875,1,0.93
2020-05-19 14:53:34.772 -0400,1589914414.323114,41.35999569735593,-71.81075115725247,24.69844,1.733773,330.9508602862359,10.58566356486839,9.060137741087606,-9999,6457.213995416667,-0.4945068359375,0.8882904052734375,0.160125732421875,1,0.93
2020-05-19 14:53:34.821 -0400,1589914414.323114,41.35999569735593,-71.81075115725247,24.69844,1.733773,330.9508602862359,10.58566356486839,9.060137741087606,-9999,6457.263884416667,-0.5032196044921875,0.87115478515625,0.246307373046875,1,0.93
2020-05-19 14:53:34.871 -0400,1589914414.323114,41.35999569735593,-71.81075115725247,24.69844,1.733773,330.9508602862359,10.58566356486839,9.060137741087606,-9999,6457.313774416667,-0.47125244140625,0.827850341796875,0.17474365234375,1,0.93
2020-05-19 14:53:34.921 -0400,1589914414.323114,41.35999569735593,-71.81075115725247,24.69844,1.733773,330.9508602862359,10.58566356486839,9.060137741087606,-9999,6457.363662416667,-0.4676971435546875,0.86273193359375,0.2465057373046875,1,0.93
2020-05-19 14:53:34.971 -0400,1589914414.323114,41.35999569735593,-71.81075115725247,24.69844,1.733773,330.9508602862359,10.58566356486839,9.060137741087606,-9999,6457.413551416667,-0.5154266357421875,0.9574737548828125,0.1750946044921875,1,0.93
2020-05-19 14:53:35.021 -0400,1589914414.323114,41.35999569735593,-71.81075115725247,24.69844,1.733773,330.9508602862359,10.58566356486839,9.060137741087606,-9999,6457.463438416667,-0.508087158203125,0.93084716796875,0.166229248046875,1,0.93
2020-05-19 14:53:35.071 -0400,1589914414.323114,41.35999569735593,-71.81075115725247,24.69844,1.733773,330.9508602862359,10.58566356486839,9.060137741087606,-9999,6457.513327416667,-0.4564056396484375,0.8028411865234375,0.02777099609375,1,0.93
2020-05-19 14:53:35.121 -0400,1589914414.323114,41.35999569735593,-71.81075115725247,24.69844,1.733773,330.9508602862359,10.58566356486839,9.060137741087606,-9999,6457.563214416668,-0.430267333984375,0.8871917724609375,0.145233154296875,1,0.93
2020-05-19 14:53:35.171 -0400,1589914414.323114,41.35999569735593,-71.81075115725247,24.69844,1.733773,330.9508602862359,10.58566356486839,9.060137741087606,-9999,6457.613101416667,-0.4891204833984375,0.8948974609375,0.17779541015625,1,0.93
2020-05-19 14:53:35.220 -0400,1589914414.323114,41.35999569735593,-71.81075115725247,24.69844,1.733773,330.9508602862359,10.58566356486839,9.060137741087606,-9999,6457.662984416667,-0.4987335205078125,0.90283203125,0.1879119873046875,1,0.93
2020-05-19 14:53:35.270 -0400,1589914414.323114,41.35999569735593,-71.81075115725247,24.69844,1.733773,330.9508602862359,10.58566356486839,9.060137741087606,-9999,6457.712870416667,-0.476898193359375,0.8950958251953125,0.1727142333984375,1,0.93
2020-05-19 14:53:35.320 -0400,1589914414.323114,41.35999569735593,-71.81075115725247,24.69844,1.733773,330.9508602862359,10.58566356486839,9.060137741087606,-9999,6457.762758416667,-0.4882049560546875,0.8494720458984375,0.148834228515625,1,0.93
2020-05-19 14:53:35.370 -0400,1589914414.323114,41.35999569735593,-71.81075115725247,24.69844,1.733773,330.9508602862359,10.58566356486839,9.060137741087606,-9999,6457.812648416667,-0.4720611572265625,0.9673004150390625,0.1874847412109375,1,0.93
2020-05-19 14:53:35.420 -0400,1589914414.323114,41.35999569735593,-71.81075115725247,24.69844,1.733773,330.9508602862359,10.58566356486839,9.060137741087606,-9999,6457.862538791667,-0.46026611328125,0.9694061279296875,0.159271240234375,1,0.93
2020-05-19 14:53:35.470 -0400,1589914414.323114,41.35999569735593,-71.81075115725247,24.69844,1.733773,330.9508602862359,10.58566356486839,9.060137741087606,-9999,6457.912428791667,-0.4848175048828125,0.8408660888671875,0.0981597900390625,1,0.93
2020-05-19 14:53:35.520 -0400,1589914414.323114,41.35999569735593,-71.81075115725247,24.69844,1.733773,330.9508602862359,10.58566356486839,9.060137741087606,-9999,6457.962315791667,-0.4404754638671875,0.947296142578125,0.1580352783203125,1,0.93
2020-05-19 14:53:35.570 -0400,1589914415.273125,41.36003693473228,-71.81076622981956,24.53506,1.733773,329.6364118970615,10.71393290633603,8.534820799862956,-9999,6458.012201791667,-0.446868896484375,0.897369384765625,0.1287384033203125,1,0.93
2020-05-19 14:53:35.620 -0400,1589914415.273125,41.36003693473228,-71.81076622981956,24.53506,1.733773,329.6364118970615,10.71393290633603,8.534820799862956,-9999,6458.062090791667,-0.4835205078125,0.8423309326171875,0.1222381591796875,1,0.93
2020-05-19 14:53:35.670 -0400,1589914415.273125,41.36003693473228,-71.81076622981956,24.53506,1.733773,329.6364118970615,10.71393290633603,8.534820799862956,-9999,6458.111978791667,-0.44451904296875,0.9925537109375,0.1699066162109375,1,0.93
2020-05-19 14:53:35.719 -0400,1589914415.273125,41.36003693473228,-71.81076622981956,24.53506,1.733773,329.6364118970615,10.71393290633603,8.534820799862956,-9999,6458.161866791667,-0.45599365234375,0.8375091552734375,0.1058349609375,1,0.93
2020-05-19 14:53:35.769 -0400,1589914415.273125,41.36003693473228,-71.81076622981956,24.53506,1.733773,329.6364118970615,10.71393290633603,8.534820799862956,-9999,6458.211752791667,-0.41064453125,0.9498291015625,0.1304473876953125,1,0.93
2020-05-19 14:53:35.819 -0400,1589914415.273125,41.36003693473228,-71.81076622981956,24.53506,1.733773,329.6364118970615,10.71393290633603,8.534820799862956,-9999,6458.261643791667,-0.403411865234375,0.92578125,0.152740478515625,1,0.93
2020-05-19 14:53:35.869 -0400,1589914415.273125,41.36003693473228,-71.81076622981956,24.53506,1.733773,329.6364118970615,10.71393290633603,8.534820799862956,-9999,6458.311534791667,-0.383544921875,0.9480133056640625,0.1852874755859375,1,0.93
2020-05-19 14:53:35.919 -0400,1589914415.273125,41.36003693473228,-71.81076622981956,24.53506,1.733773,329.6364118970615,10.71393290633603,8.534820799862956,-9999,6458.361424791667,-0.3605804443359375,0.84149169921875,0.0993804931640625,1,0.93
2020-05-19 14:53:35.969 -0400,1589914415.273125,41.36003693473228,-71.81076622981956,24.53506,1.733773,329.6364118970615,10.71393290633603,8.534820799862956,-9999,6458.411316791667,-0.3674163818359375,0.935516357421875,0.1800079345703125,1,0.93
2020-05-19 14:53:36.019 -0400,1589914415.273125,41.36003693473228,-71.81076622981956,24.53506,1.733773,329.6364118970615,10.71393290633603,8.534820799862956,-9999,6458.461208791667,-0.3640594482421875,0.963104248046875,0.147125244140625,1,0.93
2020-05-19 14:53:36.069 -0400,1589914415.273125,41.36003693473228,-71.81076622981956,24.53506,1.733773,329.6364118970615,10.71393290633603,8.534820799862956,-9999,6458.511098791667,-0.33990478515625,0.860015869140625,0.1382598876953125,1,0.93
2020-05-19 14:53:36.119 -0400,1589914415.273125,41.36003693473228,-71.81076622981956,24.53506,1.733773,329.6364118970615,10.71393290633603,8.534820799862956,-9999,6458.560992791667,-0.3785858154296875,1.016448974609375,0.1124725341796875,1,0.93
2020-05-19 14:53:36.168 -0400,1589914415.273125,41.36003693473228,-71.81076622981956,24.53506,1.733773,329.6364118970615,10.71393290633603,8.534820799862956,-9999,6458.610885791667,-0.3663330078125,0.8945159912109375,0.101654052734375,1,0.93
2020-05-19 14:53:36.218 -0400,1589914415.273125,41.36003693473228,-71.81076622981956,24.53506,1.733773,329.6364118970615,10.71393290633603,8.534820799862956,-9999,6458.660777791667,-0.3267059326171875,0.8631134033203125,0.0416259765625,1,0.93
2020-05-19 14:53:36.268 -0400,1589914415.273125,41.36003693473228,-71.81076622981956,24.53506,1.733773,329.6364118970615,10.71393290633603,8.534820799862956,-9999,6458.710667791667,-0.372589111328125,0.97882080078125,0.09149169921875,1,0.93
2020-05-19 14:53:36.318 -0400,1589914415.273125,41.36003693473228,-71.81076622981956,24.53506,1.733773,329.6364118970615,10.71393290633603,8.534820799862956,-9999,6458.760556791667,-0.369659423828125,0.9919586181640625,0.030029296875,1,0.93
2020-05-19 14:53:36.368 -0400,1589914415.273125,41.36003693473228,-71.81076622981956,24.53506,1.733773,329.6364118970615,10.71393290633603,8.534820799862956,-9999,6458.810442791667,-0.3534698486328125,0.953765869140625,0.114776611328125,1,0.93
2020-05-19 14:53:36.418 -0400,1589914415.273125,41.36003693473228,-71.81076622981956,24.53506,1.733773,329.6364118970615,10.71393290633603,8.534820799862956,-9999,6458.860333000001,-0.305419921875,0.9506072998046875,0.0488128662109375,1,0.93
2020-05-19 14:53:36.468 -0400,1589914415.273125,41.36003693473228,-71.81076622981956,24.53506,1.733773,329.6364118970615,10.71393290633603,8.534820799862956,-9999,6458.910223000001,-0.355682373046875,0.9066925048828125,0.0601348876953125,1,0.93
2020-05-19 14:53:36.526 -0400,1589914415.273125,41.36003693473228,-71.81076622981956,24.53506,1.733773,329.6364118970615,10.71393290633603,8.534820799862956,-9999,6458.960114,-0.3571319580078125,0.952545166015625,0.0648193359375,1,0.93
2020-05-19 14:53:36.568 -0400,1589914416.223114,41.36008387432802,-71.81079811784883,24.34681,3.844399,327.8401363230506,10.65524250996467,7.791356040589515,-9999,6459.010005,-0.31884765625,0.9097137451171875,0.04022216796875,1,0.93
2020-05-19 14:53:36.617 -0400,1589914416.223114,41.36008387432802,-71.81079811784883,24.34681,3.844399,327.8401363230506,10.65524250996467,7.791356040589515,-9999,6459.059897,-0.4268646240234375,0.963897705078125,0.084014892578125,1,0.93
2020-05-19 14:53:36.667 -0400,1589914416.223114,41.36008387432802,-71.81079811784883,24.34681,3.844399,327.8401363230506,10.65524250996467,7.791356040589515,-9999,6459.10979,-0.32720947265625,0.9940643310546875,0.08294677734375,1,0.93
2020-05-19 14:53:36.717 -0400,1589914416.223114,41.36008387432802,-71.81079811784883,24.34681,3.844399,327.8401363230506,10.65524250996467,7.791356040589515,-9999,6459.159685000001,-0.344573974609375,0.91796875,0.069366455078125,1,0.93
2020-05-19 14:53:36.767 -0400,1589914416.223114,41.36008387432802,-71.81079811784883,24.34681,3.844399,327.8401363230506,10.65524250996467,7.791356040589515,-9999,6459.209580000001,-0.40032958984375,0.9335479736328125,0.0904693603515625,1,0.93
2020-05-19 14:53:36.817 -0400,1589914416.223114,41.36008387432802,-71.81079811784883,24.34681,3.844399,327.8401363230506,10.65524250996467,7.791356040589515,-9999,6459.259473,-0.3608245849609375,0.878936767578125,0.0462799072265625,1,0.93
2020-05-19 14:53:36.867 -0400,1589914416.223114,41.36008387432802,-71.81079811784883,24.34681,3.844399,327.8401363230506,10.65524250996467,7.791356040589515,-9999,6459.309364000001,-0.303009033203125,0.9503936767578125,0.09228515625,1,0.93
2020-05-19 14:53:36.917 -0400,1589914416.223114,41.36008387432802,-71.81079811784883,24.34681,3.844399,327.8401363230506,10.65524250996467,7.791356040589515,-9999,6459.359254,-0.3049774169921875,0.9775238037109375,0.1045379638671875,1,0.93
2020-05-19 14:53:36.967 -0400,1589914416.223114,41.36008387432802,-71.81079811784883,24.34681,3.844399,327.8401363230506,10.65524250996467,7.791356040589515,-9999,6459.409144,-0.3031768798828125,0.878631591796875,0.0724334716796875,1,0.93
2020-05-19 14:53:37.017 -0400,1589914416.223114,41.36008387432802,-71.81079811784883,24.34681,3.844399,327.8401363230506,10.65524250996467,7.791356040589515,-9999,6459.459034,-0.2267303466796875,0.9313812255859375,0.1109771728515625,1,0.93
2020-05-19 14:53:37.067 -0400,1589914416.223114,41.36008387432802,-71.81079811784883,24.34681,3.844399,327.8401363230506,10.65524250996467,7.791356040589515,-9999,6459.508926,-0.2438812255859375,0.90850830078125,0.0649261474609375,1,0.93
2020-05-19 14:53:37.116 -0400,1589914416.223114,41.36008387432802,-71.81079811784883,24.34681,3.844399,327.8401363230506,10.65524250996467,7.791356040589515,-9999,6459.558816000001,-0.2419586181640625,1.03302001953125,0.0905914306640625,1,0.93
2020-05-19 14:53:37.166 -0400,1589914416.223114,41.36008387432802,-71.81079811784883,24.34681,3.844399,327.8401363230506,10.65524250996467,7.791356040589515,-9999,6459.608707,-0.24053955078125,0.971832275390625,0.122222900390625,1,0.93
2020-05-19 14:53:37.216 -0400,1589914416.223114,41.36008387432802,-71.81079811784883,24.34681,3.844399,327.8401363230506,10.65524250996467,7.791356040589515,-9999,6459.658597000001,-0.232177734375,0.8578948974609375,0.095245361328125,1,0.93
2020-05-19 14:53:37.266 -0400,1589914416.223114,41.36008387432802,-71.81079811784883,24.34681,3.844399,327.8401363230506,10.65524250996467,7.791356040589515,-9999,6459.708485,-0.2624053955078125,0.973785400390625,0.08648681640625,1,0.93
2020-05-19 14:53:37.316 -0400,1589914416.223114,41.36008387432802,-71.81079811784883,24.34681,3.844399,327.8401363230506,10.65524250996467,7.791356040589515,-9999,6459.758374,-0.2400665283203125,0.9104156494140625,0.0781402587890625,1,0.93
2020-05-19 14:53:37.366 -0400,1589914416.223114,41.36008387432802,-71.81079811784883,24.34681,3.844399,327.8401363230506,10.65524250996467,7.791356040589515,-9999,6459.808267,-0.2403717041015625,0.9821014404296875,0.098236083984375,1,0.93
2020-05-19 14:53:37.416 -0400,1589914416.223114,41.36008387432802,-71.81079811784883,24.34681,3.844399,327.8401363230506,10.65524250996467,7.791356040589515,-9999,6459.858158916667,-0.2722015380859375,1.000244140625,0.115997314453125,1,0.93
2020-05-19 14:53:37.466 -0400,1589914416.223114,41.36008387432802,-71.81079811784883,24.34681,3.844399,327.8401363230506,10.65524250996467,7.791356040589515,-9999,6459.908048916667,-0.2602081298828125,0.9235687255859375,0.095245361328125,1,0.93
2020-05-19 14:53:37.515 -0400,1589914416.223114,41.36008387432802,-71.81079811784883,24.34681,3.844399,327.8401363230506,10.65524250996467,7.791356040589515,-9999,6459.957939916667,-0.2378997802734375,0.98785400390625,0.130828857421875,1,0.93
2020-05-19 14:53:37.565 -0400,1589914417.17312,41.36014756819716,-71.81084388623992,24.19693,7.142962,327.0205564345636,12.79011337139898,8.975948341966152,-9999,6460.007830916667,-0.2271881103515625,0.94403076171875,0.084136962890625,1,0.93
2020-05-19 14:53:37.615 -0400,1589914417.17312,41.36014756819716,-71.81084388623992,24.19693,7.142962,327.0205564345636,12.79011337139898,8.975948341966152,-9999,6460.057720916667,-0.230560302734375,0.94842529296875,0.0993499755859375,1,0.93
2020-05-19 14:53:37.665 -0400,1589914417.17312,41.36014756819716,-71.81084388623992,24.19693,7.142962,327.0205564345636,12.79011337139898,8.975948341966152,-9999,6460.107612916667,-0.206268310546875,0.9488067626953125,0.0794219970703125,1,0.93
2020-05-19 14:53:37.715 -0400,1589914417.17312,41.36014756819716,-71.81084388623992,24.19693,7.142962,327.0205564345636,12.79011337139898,8.975948341966152,-9999,6460.157504916667,-0.24365234375,1.06365966796875,0.103912353515625,1,0.93
2020-05-19 14:53:37.765 -0400,1589914417.17312,41.36014756819716,-71.81084388623992,24.19693,7.142962,327.0205564345636,12.79011337139898,8.975948341966152,-9999,6460.207397916667,-0.216064453125,0.9593048095703125,0.0624237060546875,1,0.93
2020-05-19 14:53:37.815 -0400,1589914417.17312,41.36014756819716,-71.81084388623992,24.19693,7.142962,327.0205564345636,12.79011337139898,8.975948341966152,-9999,6460.257289916667,-0.2670440673828125,0.973907470703125,0.0908355712890625,1,0.93
2020-05-19 14:53:37.865 -0400,1589914417.17312,41.36014756819716,-71.81084388623992,24.19693,7.142962,327.0205564345636,12.79011337139898,8.975948341966152,-9999,6460.307180916667,-0.237213134765625,0.962738037109375,0.0899200439453125,1,0.93
2020-05-19 14:53:37.914 -0400,1589914417.17312,41.36014756819716,-71.81084388623992,24.19693,7.142962,327.0205564345636,12.79011337139898,8.975948341966152,-9999,6460.357069916667,-0.244842529296875,0.99169921875,0.1181488037109375,1,0.93
2020-05-19 14:53:37.964 -0400,1589914417.17312,41.36014756819716,-71.81084388623992,24.19693,7.142962,327.0205564345636,12.79011337139898,8.975948341966152,-9999,6460.406960916667,-0.2889251708984375,0.90667724609375,0.0823516845703125,1,0.93
2020-05-19 14:53:38.014 -0400,1589914417.17312,41.36014756819716,-71.81084388623992,24.19693,7.142962,327.0205564345636,12.79011337139898,8.975948341966152,-9999,6460.456850916667,-0.2698974609375,0.97845458984375,0.0354156494140625,1,0.93
2020-05-19 14:53:38.064 -0400,1589914417.17312,41.36014756819716,-71.81084388623992,24.19693,7.142962,327.0205564345636,12.79011337139898,8.975948341966152,-9999,6460.506737916667,-0.289703369140625,0.9529876708984375,-0.0182037353515625,1,0.93
2020-05-19 14:53:38.114 -0400,1589914417.17312,41.36014756819716,-71.81084388623992,24.19693,7.142962,327.0205564345636,12.79011337139898,8.975948341966152,-9999,6460.556626916667,-0.2659149169921875,0.9463958740234375,0.0179595947265625,1,0.93
2020-05-19 14:53:38.164 -0400,1589914417.17312,41.36014756819716,-71.81084388623992,24.19693,7.142962,327.0205564345636,12.79011337139898,8.975948341966152,-9999,6460.606516916667,-0.2855987548828125,1.020828247070312,0.0426788330078125,1,0.93
2020-05-19 14:53:38.214 -0400,1589914417.17312,41.36014756819716,-71.81084388623992,24.19693,7.142962,327.0205564345636,12.79011337139898,8.975948341966152,-9999,6460.656404916667,-0.2603759765625,0.958099365234375,0.0789337158203125,1,0.93
2020-05-19 14:53:38.264 -0400,1589914417.17312,41.36014756819716,-71.81084388623992,24.19693,7.142962,327.0205564345636,12.79011337139898,8.975948341966152,-9999,6460.706295916667,-0.2750701904296875,1.002166748046875,0.0198211669921875,1,0.93
2020-05-19 14:53:38.313 -0400,1589914417.17312,41.36014756819716,-71.81084388623992,24.19693,7.142962,327.0205564345636,12.79011337139898,8.975948341966152,-9999,6460.756185916667,-0.268157958984375,1.038253784179688,0.0529022216796875,1,0.93
2020-05-19 14:53:38.364 -0400,1589914418.123114,41.36021174757791,-71.81089532211753,24.13144,8.341641,326.9106175365844,13.29004753780599,8.766193872969646,-9999,6460.806072916667,-0.2489776611328125,0.923370361328125,0.0104522705078125,1,0.93
2020-05-19 14:53:38.413 -0400,1589914418.123114,41.36021174757791,-71.81089532211753,24.13144,8.341641,326.9106175365844,13.29004753780599,8.766193872969646,-9999,6460.855959875001,-0.2726593017578125,0.885711669921875,0.0341644287109375,1,0.93
2020-05-19 14:53:38.463 -0400,1589914418.123114,41.36021174757791,-71.81089532211753,24.13144,8.341641,326.9106175365844,13.29004753780599,8.766193872969646,-9999,6460.905848875001,-0.2525634765625,1.021926879882812,0.0490570068359375,1,0.93
2020-05-19 14:53:38.513 -0400,1589914418.123114,41.36021174757791,-71.81089532211753,24.13144,8.341641,326.9106175365844,13.29004753780599,8.766193872969646,-9999,6460.955737875001,-0.3109588623046875,0.993255615234375,0.0812530517578125,1,0.93
2020-05-19 14:53:38.563 -0400,1589914418.123114,41.36021174757791,-71.81089532211753,24.13144,8.341641,326.9106175365844,13.29004753780599,8.766193872969646,-9999,6461.005627875001,-0.3006439208984375,0.9003753662109375,0.069488525390625,1,0.93
2020-05-19 14:53:38.613 -0400,1589914418.123114,41.36021174757791,-71.81089532211753,24.13144,8.341641,326.9106175365844,13.29004753780599,8.766193872969646,-9999,6461.055518875,-0.2870330810546875,0.98065185546875,0.0804901123046875,1,0.93
2020-05-19 14:53:38.663 -0400,1589914418.123114,41.36021174757791,-71.81089532211753,24.13144,8.341641,326.9106175365844,13.29004753780599,8.766193872969646,-9999,6461.105407875,-0.3148956298828125,1.034088134765625,0.101654052734375,1,0.93
2020-05-19 14:53:38.713 -0400,1589914418.123114,41.36021174757791,-71.81089532211753,24.13144,8.341641,326.9106175365844,13.29004753780599,8.766193872969646,-9999,6461.155299875,-0.286102294921875,0.9397125244140625,0.08612060546875,1,0.93
2020-05-19 14:53:38.763 -0400,1589914418.123114,41.36021174757791,-71.81089532211753,24.13144,8.341641,326.9106175365844,13.29004753780599,8.766193872969646,-9999,6461.205187875001,-0.2649078369140625,0.882537841796875,0.094146728515625,1,0.93
2020-05-19 14:53:38.812 -0400,1589914418.123114,41.36021174757791,-71.81089532211753,24.13144,8.341641,326.9106175365844,13.29004753780599,8.766193872969646,-9999,6461.255076875001,-0.3109130859375,0.912811279296875,0.0814208984375,1,0.93
2020-05-19 14:53:38.862 -0400,1589914418.123114,41.36021174757791,-71.81089532211753,24.13144,8.341641,326.9106175365844,13.29004753780599,8.766193872969646,-9999,6461.304966875,-0.325286865234375,1.061859130859375,0.1162261962890625,1,0.93
2020-05-19 14:53:38.913 -0400,1589914418.123114,41.36021174757791,-71.81089532211753,24.13144,8.341641,326.9106175365844,13.29004753780599,8.766193872969646,-9999,6461.354858875,-0.193603515625,0.8109588623046875,0.042449951171875,1,0.93
2020-05-19 14:53:38.962 -0400,1589914418.123114,41.36021174757791,-71.81089532211753,24.13144,8.341641,326.9106175365844,13.29004753780599,8.766193872969646,-9999,6461.404751875,-0.2923583984375,1.025177001953125,0.15924072265625,1,0.93
2020-05-19 14:53:39.012 -0400,1589914418.123114,41.36021174757791,-71.81089532211753,24.13144,8.341641,326.9106175365844,13.29004753780599,8.766193872969646,-9999,6461.454645875,-0.30120849609375,0.9819183349609375,0.0227203369140625,1,0.93
2020-05-19 14:53:39.062 -0400,1589914418.123114,41.36021174757791,-71.81089532211753,24.13144,8.341641,326.9106175365844,13.29004753780599,8.766193872969646,-9999,6461.504539875001,-0.32916259765625,0.980682373046875,0.022369384765625,1,0.93
2020-05-19 14:53:39.112 -0400,1589914418.123114,41.36021174757791,-71.81089532211753,24.13144,8.341641,326.9106175365844,13.29004753780599,8.766193872969646,-9999,6461.554432875,-0.2564697265625,0.8497772216796875,0.051544189453125,1,0.93
2020-05-19 14:53:39.162 -0400,1589914418.123114,41.36021174757791,-71.81089532211753,24.13144,8.341641,326.9106175365844,13.29004753780599,8.766193872969646,-9999,6461.604327875,-0.2473907470703125,1.003631591796875,0.083892822265625,1,0.93
2020-05-19 14:53:39.212 -0400,1589914418.123114,41.36021174757791,-71.81089532211753,24.13144,8.341641,326.9106175365844,13.29004753780599,8.766193872969646,-9999,6461.654219875,-0.305755615234375,0.88177490234375,0.1324005126953125,1,0.93
2020-05-19 14:53:39.262 -0400,1589914418.123114,41.36021174757791,-71.81089532211753,24.13144,8.341641,326.9106175365844,13.29004753780599,8.766193872969646,-9999,6461.704113875,-0.2709808349609375,1.092803955078125,0.0890045166015625,1,0.93
2020-05-19 14:53:39.311 -0400,1589914418.123114,41.36021174757791,-71.81089532211753,24.13144,8.341641,326.9106175365844,13.29004753780599,8.766193872969646,-9999,6461.754005875,-0.3429107666015625,0.9548797607421875,0.0977935791015625,1,0.93
2020-05-19 14:53:39.362 -0400,1589914418.123114,41.36021174757791,-71.81089532211753,24.13144,8.341641,326.9106175365844,13.29004753780599,8.766193872969646,-9999,6461.803895875,-0.2778167724609375,1.03387451171875,0.048736572265625,1,0.93
2020-05-19 14:53:39.411 -0400,1589914419.073118,41.36027974784653,-71.81094743201226,23.91703,8.341641,327.1427917480469,10.12238655052449,6.512746721138581,-9999,6461.85379075,-0.3007354736328125,0.896697998046875,0.0336151123046875,1,0.93
2020-05-19 14:53:39.461 -0400,1589914419.073118,41.36027974784653,-71.81094743201226,23.91703,8.341641,327.1427917480469,10.12238655052449,6.512746721138581,-9999,6461.90368175,-0.249542236328125,0.9456024169921875,0.0587158203125,1,0.93
2020-05-19 14:53:39.511 -0400,1589914419.073118,41.36027974784653,-71.81094743201226,23.91703,8.341641,327.1427917480469,10.12238655052449,6.512746721138581,-9999,6461.95357475,-0.2650909423828125,0.9888916015625,0.141632080078125,1,0.93
2020-05-19 14:53:39.561 -0400,1589914419.073118,41.36027974784653,-71.81094743201226,23.91703,8.341641,327.1427917480469,10.12238655052449,6.512746721138581,-9999,6462.00346575,-0.30523681640625,1.000320434570312,0.0308380126953125,1,0.93
2020-05-19 14:53:39.611 -0400,1589914419.073118,41.36027974784653,-71.81094743201226,23.91703,8.341641,327.1427917480469,10.12238655052449,6.512746721138581,-9999,6462.05335575,-0.2774658203125,0.9246826171875,0.0187835693359375,1,0.93
2020-05-19 14:53:39.661 -0400,1589914419.073118,41.36027974784653,-71.81094743201226,23.91703,8.341641,327.1427917480469,10.12238655052449,6.512746721138581,-9999,6462.10324575,-0.2686920166015625,0.95538330078125,0.0611724853515625,1,0.93
2020-05-19 14:53:39.711 -0400,1589914419.073118,41.36027974784653,-71.81094743201226,23.91703,8.341641,327.1427917480469,10.12238655052449,6.512746721138581,-9999,6462.153138750001,-0.269287109375,0.916473388671875,0.0460662841796875,1,0.93
2020-05-19 14:53:39.761 -0400,1589914419.073118,41.36027974784653,-71.81094743201226,23.91703,8.341641,327.1427917480469,10.12238655052449,6.512746721138581,-9999,6462.203032750001,-0.24908447265625,0.9716949462890625,0.053009033203125,1,0.93
2020-05-19 14:53:39.810 -0400,1589914419.073118,41.36027974784653,-71.81094743201226,23.91703,8.341641,327.1427917480469,10.12238655052449,6.512746721138581,-9999,6462.252924750001,-0.2877349853515625,0.887054443359375,0.070556640625,1,0.93
2020-05-19 14:53:39.861 -0400,1589914419.073118,41.36027974784653,-71.81094743201226,23.91703,8.341641,327.1427917480469,10.12238655052449,6.512746721138581,-9999,6462.30281275,-0.2713165283203125,0.9422760009765625,-0.0202789306640625,1,0.93
2020-05-19 14:53:39.910 -0400,1589914419.073118,41.36027974784653,-71.81094743201226,23.91703,8.341641,327.1427917480469,10.12238655052449,6.512746721138581,-9999,6462.35270275,-0.253875732421875,0.9415283203125,0.0372772216796875,1,0.93
2020-05-19 14:53:39.960 -0400,1589914419.073118,41.36027974784653,-71.81094743201226,23.91703,8.341641,327.1427917480469,10.12238655052449,6.512746721138581,-9999,6462.40259375,-0.251495361328125,0.98419189453125,-0.0838623046875,1,0.93
2020-05-19 14:53:40.010 -0400,1589914419.073118,41.36027974784653,-71.81094743201226,23.91703,8.341641,327.1427917480469,10.12238655052449,6.512746721138581,-9999,6462.45248575,-0.2936859130859375,0.985931396484375,0.0193939208984375,1,0.93
2020-05-19 14:53:40.060 -0400,1589914419.073118,41.36027974784653,-71.81094743201226,23.91703,8.341641,327.1427917480469,10.12238655052449,6.512746721138581,-9999,6462.50237575,-0.257232666015625,0.9266204833984375,-0.0633544921875,1,0.93
2020-05-19 14:53:40.110 -0400,1589914419.073118,41.36027974784653,-71.81094743201226,23.91703,8.341641,327.1427917480469,10.12238655052449,6.512746721138581,-9999,6462.55226475,-0.3223876953125,1.050216674804688,-0.0269622802734375,1,0.93
2020-05-19 14:53:40.160 -0400,1589914419.073118,41.36027974784653,-71.81094743201226,23.91703,8.341641,327.1427917480469,10.12238655052449,6.512746721138581,-9999,6462.60215475,-0.2649688720703125,0.9398040771484375,-0.035736083984375,1,0.93
2020-05-19 14:53:40.210 -0400,1589914419.073118,41.36027974784653,-71.81094743201226,23.91703,8.341641,327.1427917480469,10.12238655052449,6.512746721138581,-9999,6462.65204275,-0.2112274169921875,0.8442230224609375,-0.013671875,1,0.93
2020-05-19 14:53:40.260 -0400,1589914419.073118,41.36027974784653,-71.81094743201226,23.91703,8.341641,327.1427917480469,10.12238655052449,6.512746721138581,-9999,6462.701933750001,-0.2170257568359375,0.987091064453125,-0.111602783203125,1,0.93
2020-05-19 14:53:40.309 -0400,1589914419.073118,41.36027974784653,-71.81094743201226,23.91703,8.341641,327.1427917480469,10.12238655052449,6.512746721138581,-9999,6462.751823750001,-0.2592620849609375,1.071029663085938,-0.0608673095703125,1,0.93
2020-05-19 14:53:40.359 -0400,1589914420.023108,41.36034411430351,-71.81100232003023,23.83556,8.341641,325.8792724609375,12.16883608530505,7.612211011719008,-9999,6462.80171375,-0.256591796875,1.044143676757812,-0.0900726318359375,1,0.93
2020-05-19 14:53:40.409 -0400,1589914420.023108,41.36034411430351,-71.81100232003023,23.83556,8.341641,325.8792724609375,12.16883608530505,7.612211011719008,-9999,6462.851603666667,-0.2197113037109375,0.9718170166015625,-0.095489501953125,1,0.93
2020-05-19 14:53:40.459 -0400,1589914420.023108,41.36034411430351,-71.81100232003023,23.83556,8.341641,325.8792724609375,12.16883608530505,7.612211011719008,-9999,6462.901495666667,-0.218658447265625,0.9367828369140625,-0.048614501953125,1,0.93
2020-05-19 14:53:40.509 -0400,1589914420.023108,41.36034411430351,-71.81100232003023,23.83556,8.341641,325.8792724609375,12.16883608530505,7.612211011719008,-9999,6462.951387666667,-0.23382568359375,0.9521484375,-0.0475921630859375,1,0.93
2020-05-19 14:53:40.559 -0400,1589914420.023108,41.36034411430351,-71.81100232003023,23.83556,8.341641,325.8792724609375,12.16883608530505,7.612211011719008,-9999,6463.001278666667,-0.21856689453125,0.987396240234375,-0.0388031005859375,1,0.93
2020-05-19 14:53:40.609 -0400,1589914420.023108,41.36034411430351,-71.81100232003023,23.83556,8.341641,325.8792724609375,12.16883608530505,7.612211011719008,-9999,6463.051166666667,-0.2335052490234375,1.020462036132812,-0.0615234375,1,0.93
2020-05-19 14:53:40.659 -0400,1589914420.023108,41.36034411430351,-71.81100232003023,23.83556,8.341641,325.8792724609375,12.16883608530505,7.612211011719008,-9999,6463.101054666667,-0.2587127685546875,0.98114013671875,-0.0743560791015625,1,0.93
2020-05-19 14:53:40.708 -0400,1589914420.023108,41.36034411430351,-71.81100232003023,23.83556,8.341641,325.8792724609375,12.16883608530505,7.612211011719008,-9999,6463.150944666667,-0.2167510986328125,0.9310760498046875,-0.0587158203125,1,0.93
2020-05-19 14:53:40.758 -0400,1589914420.023108,41.36034411430351,-71.81100232003023,23.83556,8.341641,325.8792724609375,12.16883608530505,7.612211011719008,-9999,6463.200834666667,-0.2158050537109375,0.966949462890625,0.0203399658203125,1,0.93
2020-05-19 14:53:40.808 -0400,1589914420.023108,41.36034411430351,-71.81100232003023,23.83556,8.341641,325.8792724609375,12.16883608530505,7.612211011719008,-9999,6463.250727666667,-0.203521728515625,0.98126220703125,0.0014190673828125,1,0.93
2020-05-19 14:53:40.858 -0400,1589914420.023108,41.36034411430351,-71.81100232003023,23.83556,8.341641,325.8792724609375,12.16883608530505,7.612211011719008,-9999,6463.300619666667,-0.23345947265625,0.97283935546875,-0.0021514892578125,1,0.93
2020-05-19 14:53:40.908 -0400,1589914420.023108,41.36034411430351,-71.81100232003023,23.83556,8.341641,325.8792724609375,12.16883608530505,7.612211011719008,-9999,6463.350514666667,-0.2223663330078125,1.04327392578125,0.04278564453125,1,0.93
2020-05-19 14:53:40.958 -0400,1589914420.023108,41.36034411430351,-71.81100232003023,23.83556,8.341641,325.8792724609375,12.16883608530505,7.612211011719008,-9999,6463.400405666667,-0.2242431640625,0.8858489990234375,0.03936767578125,1,0.93
2020-05-19 14:53:41.011 -0400,1589914420.023108,41.36034411430351,-71.81100232003023,23.83556,8.341641,325.8792724609375,12.16883608530505,7.612211011719008,-9999,6463.450296666667,-0.2426605224609375,0.99188232421875,0.060272216796875,1,0.93
2020-05-19 14:53:41.058 -0400,1589914420.023108,41.36034411430351,-71.81100232003023,23.83556,8.341641,325.8792724609375,12.16883608530505,7.612211011719008,-9999,6463.500190666667,-0.252044677734375,0.972076416015625,0.0406036376953125,1,0.93
2020-05-19 14:53:41.108 -0400,1589914420.023108,41.36034411430351,-71.81100232003023,23.83556,8.341641,325.8792724609375,12.16883608530505,7.612211011719008,-9999,6463.550084666667,-0.222198486328125,1.013412475585938,0.0630035400390625,1,0.93
2020-05-19 14:53:41.158 -0400,1589914420.023108,41.36034411430351,-71.81100232003023,23.83556,8.341641,325.8792724609375,12.16883608530505,7.612211011719008,-9999,6463.599975666667,-0.203216552734375,1.007659912109375,0.0797271728515625,1,0.93
2020-05-19 14:53:41.207 -0400,1589914420.023108,41.36034411430351,-71.81100232003023,23.83556,8.341641,325.8792724609375,12.16883608530505,7.612211011719008,-9999,6463.649869666667,-0.236785888671875,0.9205780029296875,0.0037841796875,1,0.93
2020-05-19 14:53:41.257 -0400,1589914420.023108,41.36034411430351,-71.81100232003023,23.83556,8.341641,325.8792724609375,12.16883608530505,7.612211011719008,-9999,6463.699761666667,-0.240081787109375,0.9853515625,-0.0484161376953125,1,0.93
2020-05-19 14:53:41.307 -0400,1589914420.023108,41.36034411430351,-71.81100232003023,23.83556,8.341641,325.8792724609375,12.16883608530505,7.612211011719008,-9999,6463.749654666667,-0.2093963623046875,0.945831298828125,-0.031097412109375,1,0.93
2020-05-19 14:53:41.357 -0400,1589914421.000109,41.3604049275047,-71.81105682841022,23.83556,8.341641,326.532958984375,12.16883608529704,7.61221101173181,-9999,6463.799546666667,-0.241058349609375,0.98199462890625,-0.0377044677734375,1,0.93
2020-05-19 14:53:41.407 -0400,1589914421.000109,41.3604049275047,-71.81105682841022,23.83556,8.341641,326.532958984375,12.16883608529704,7.61221101173181,-9999,6463.84943775,-0.249359130859375,0.9904937744140625,-0.0355987548828125,1,0.93
2020-05-19 14:53:41.457 -0400,1589914421.000109,41.3604049275047,-71.81105682841022,23.83556,8.341641,326.532958984375,12.16883608529704,7.61221101173181,-9999,6463.89932675,-0.2473297119140625,1.03155517578125,0.00604248046875,1,0.93
2020-05-19 14:53:41.507 -0400,1589914421.000109,41.3604049275047,-71.81105682841022,23.83556,8.341641,326.532958984375,12.16883608529704,7.61221101173181,-9999,6463.949217750001,-0.2345428466796875,0.9871978759765625,0.009490966796875,1,0.93
2020-05-19 14:53:41.557 -0400,1589914421.000109,41.3604049275047,-71.81105682841022,23.83556,8.341641,326.532958984375,12.16883608529704,7.61221101173181,-9999,6463.999107750001,-0.247039794921875,0.9375762939453125,-0.0319061279296875,1,0.93
2020-05-19 14:53:41.607 -0400,1589914421.000109,41.3604049275047,-71.81105682841022,23.83556,8.341641,326.532958984375,12.16883608529704,7.61221101173181,-9999,6464.048996750001,-0.23931884765625,1.009048461914062,-0.0013275146484375,1,0.93
2020-05-19 14:53:41.656 -0400,1589914421.000109,41.3604049275047,-71.81105682841022,23.83556,8.341641,326.532958984375,12.16883608529704,7.61221101173181,-9999,6464.09888975,-0.295013427734375,0.953826904296875,-0.0353240966796875,1,0.93
2020-05-19 14:53:41.706 -0400,1589914421.000109,41.3604049275047,-71.81105682841022,23.83556,8.341641,326.532958984375,12.16883608529704,7.61221101173181,-9999,6464.148783750001,-0.27655029296875,0.937591552734375,-0.0137481689453125,1,0.93
2020-05-19 14:53:41.756 -0400,1589914421.000109,41.3604049275047,-71.81105682841022,23.83556,8.341641,326.532958984375,12.16883608529704,7.61221101173181,-9999,6464.198677750001,-0.2602996826171875,0.9456634521484375,-0.0108795166015625,1,0.93
2020-05-19 14:53:41.806 -0400,1589914421.000109,41.3604049275047,-71.81105682841022,23.83556,8.341641,326.532958984375,12.16883608529704,7.61221101173181,-9999,6464.248572750001,-0.262054443359375,0.96173095703125,-0.018402099609375,1,0.93
2020-05-19 14:53:41.856 -0400,1589914421.000109,41.3604049275047,-71.81105682841022,23.83556,8.341641,326.532958984375,12.16883608529704,7.61221101173181,-9999,6464.29846875,-0.2845611572265625,1.040634155273438,0.006683349609375,1,0.93
2020-05-19 14:53:41.906 -0400,1589914421.000109,41.3604049275047,-71.81105682841022,23.83556,8.341641,326.532958984375,12.16883608529704,7.61221101173181,-9999,6464.34836275,-0.2585296630859375,1.023422241210938,-0.0435638427734375,1,0.93
2020-05-19 14:53:41.956 -0400,1589914421.000109,41.3604049275047,-71.81105682841022,23.83556,8.341641,326.532958984375,12.16883608529704,7.61221101173181,-9999,6464.39825575,-0.260101318359375,0.9537506103515625,-0.0106353759765625,1,0.93
2020-05-19 14:53:42.006 -0400,1589914421.000109,41.3604049275047,-71.81105682841022,23.83556,8.341641,326.532958984375,12.16883608529704,7.61221101173181,-9999,6464.44814775,-0.2441558837890625,0.9633026123046875,0.0118255615234375,1,0.93
2020-05-19 14:53:42.059 -0400,1589914421.000109,41.3604049275047,-71.81105682841022,23.83556,8.341641,326.532958984375,12.16883608529704,7.61221101173181,-9999,6464.498040750001,-0.2509613037109375,0.9188995361328125,-0.02130126953125,1,0.93
2020-05-19 14:53:42.105 -0400,1589914421.000109,41.3604049275047,-71.81105682841022,23.83556,8.341641,326.532958984375,12.16883608529704,7.61221101173181,-9999,6464.54793475,-0.25677490234375,0.9604034423828125,-0.0173187255859375,1,0.93
2020-05-19 14:53:42.155 -0400,1589914421.000109,41.3604049275047,-71.81105682841022,23.83556,8.341641,326.532958984375,12.16883608529704,7.61221101173181,-9999,6464.597827750001,-0.29071044921875,0.8203125,-0.0388031005859375,1,0.93
2020-05-19 14:53:42.205 -0400,1589914421.000109,41.3604049275047,-71.81105682841022,23.83556,8.341641,326.532958984375,12.16883608529704,7.61221101173181,-9999,6464.647721750001,-0.278167724609375,1.07696533203125,0.02618408203125,1,0.93
2020-05-19 14:53:42.255 -0400,1589914421.000109,41.3604049275047,-71.81105682841022,23.83556,8.341641,326.532958984375,12.16883608529704,7.61221101173181,-9999,6464.69761575,-0.2826690673828125,1.050338745117188,0.037872314453125,1,0.93
2020-05-19 14:53:42.305 -0400,1589914421.000109,41.3604049275047,-71.81105682841022,23.83556,8.341641,326.532958984375,12.16883608529704,7.61221101173181,-9999,6464.74750675,-0.2810211181640625,0.871734619140625,-0.0323333740234375,1,0.93
2020-05-19 14:53:42.355 -0400,1589914422.000088,41.36047092510032,-71.81111625303353,23.92077,8.432609,323.7024841308594,9.352595979720391,5.524100248524404,-9999,6464.79739975,-0.2779693603515625,1.03472900390625,0.0150604248046875,1,0.93
2020-05-19 14:53:42.405 -0400,1589914422.000088,41.36047092510032,-71.81111625303353,23.92077,8.432609,323.7024841308594,9.352595979720391,5.524100248524404,-9999,6464.847290666668,-0.2698516845703125,0.963653564453125,0.0445098876953125,1,0.93
2020-05-19 14:53:42.455 -0400,1589914422.000088,41.36047092510032,-71.81111625303353,23.92077,8.432609,323.7024841308594,9.352595979720391,5.524100248524404,-9999,6464.897183666667,-0.274658203125,0.9017333984375,-0.0526123046875,1,0.93
2020-05-19 14:53:42.505 -0400,1589914422.000088,41.36047092510032,-71.81111625303353,23.92077,8.432609,323.7024841308594,9.352595979720391,5.524100248524404,-9999,6464.947076666667,-0.2634735107421875,0.94622802734375,-0.0366363525390625,1,0.93
2020-05-19 14:53:42.555 -0400,1589914422.000088,41.36047092510032,-71.81111625303353,23.92077,8.432609,323.7024841308594,9.352595979720391,5.524100248524404,-9999,6464.996971666667,-0.2665557861328125,1.013671875,0.014251708984375,1,0.93
2020-05-19 14:53:42.605 -0400,1589914422.000088,41.36047092510032,-71.81111625303353,23.92077,8.432609,323.7024841308594,9.352595979720391,5.524100248524404,-9999,6465.046864666667,-0.281585693359375,0.907623291015625,0.0226287841796875,1,0.93
2020-05-19 14:53:42.654 -0400,1589914422.000088,41.36047092510032,-71.81111625303353,23.92077,8.432609,323.7024841308594,9.352595979720391,5.524100248524404,-9999,6465.096758666667,-0.26275634765625,0.9327545166015625,-0.03497314453125,1,0.93
2020-05-19 14:53:42.709 -0400,1589914422.000088,41.36047092510032,-71.81111625303353,23.92077,8.432609,323.7024841308594,9.352595979720391,5.524100248524404,-9999,6465.146649666667,-0.2816162109375,1.03387451171875,-0.0222625732421875,1,0.93
2020-05-19 14:53:42.754 -0400,1589914422.000088,41.36047092510032,-71.81111625303353,23.92077,8.432609,323.7024841308594,9.352595979720391,5.524100248524404,-9999,6465.196540666667,-0.2381439208984375,0.885467529296875,0.0910186767578125,1,0.93
2020-05-19 14:53:42.804 -0400,1589914422.000088,41.36047092510032,-71.81111625303353,23.92077,8.432609,323.7024841308594,9.352595979720391,5.524100248524404,-9999,6465.246430666667,-0.2743682861328125,0.9263763427734375,-0.006988525390625,1,0.93
2020-05-19 14:53:42.854 -0400,1589914422.000088,41.36047092510032,-71.81111625303353,23.92077,8.432609,323.7024841308594,9.352595979720391,5.524100248524404,-9999,6465.296319666667,-0.2871246337890625,1.009521484375,-0.0121917724609375,1,0.93
2020-05-19 14:53:42.904 -0400,1589914422.000088,41.36047092510032,-71.81111625303353,23.92077,8.432609,323.7024841308594,9.352595979720391,5.524100248524404,-9999,6465.346208666667,-0.2552032470703125,0.9760589599609375,0.033111572265625,1,0.93
2020-05-19 14:53:42.954 -0400,1589914422.000088,41.36047092510032,-71.81111625303353,23.92077,8.432609,323.7024841308594,9.352595979720391,5.524100248524404,-9999,6465.396097666667,-0.2345428466796875,0.934417724609375,-0.00653076171875,1,0.93
2020-05-19 14:53:43.004 -0400,1589914422.000088,41.36047092510032,-71.81111625303353,23.92077,8.432609,323.7024841308594,9.352595979720391,5.524100248524404,-9999,6465.445989666667,-0.260589599609375,0.96954345703125,-0.009918212890625,1,0.93
2020-05-19 14:53:43.054 -0400,1589914422.000088,41.36047092510032,-71.81111625303353,23.92077,8.432609,323.7024841308594,9.352595979720391,5.524100248524404,-9999,6465.495879666667,-0.26739501953125,1.005584716796875,0.0166168212890625,1,0.93
2020-05-19 14:53:43.103 -0400,1589914422.000088,41.36047092510032,-71.81111625303353,23.92077,8.432609,323.7024841308594,9.352595979720391,5.524100248524404,-9999,6465.545768666667,-0.2621002197265625,0.92889404296875,0.0299224853515625,1,0.93
2020-05-19 14:53:43.153 -0400,1589914422.000088,41.36047092510032,-71.81111625303353,23.92077,8.432609,323.7024841308594,9.352595979720391,5.524100248524404,-9999,6465.595659666667,-0.2981414794921875,0.934417724609375,0.0089263916015625,1,0.93
2020-05-19 14:53:43.203 -0400,1589914422.000088,41.36047092510032,-71.81111625303353,23.92077,8.432609,323.7024841308594,9.352595979720391,5.524100248524404,-9999,6465.645550666667,-0.2918548583984375,0.996307373046875,0.00775146484375,1,0.93
2020-05-19 14:53:43.253 -0400,1589914422.000088,41.36047092510032,-71.81111625303353,23.92077,8.432609,323.7024841308594,9.352595979720391,5.524100248524404,-9999,6465.695443666667,-0.3007354736328125,0.974273681640625,0.0019683837890625,1,0.93
2020-05-19 14:53:43.303 -0400,1589914423.000085,41.3605338278173,-71.81117841775897,24.11908,8.432609,323.7024841308594,9.971875729509501,5.55237730393226,-9999,6465.745333666667,-0.2849273681640625,0.9821624755859375,-0.0081787109375,1,0.93
2020-05-19 14:53:43.353 -0400,1589914423.000085,41.3605338278173,-71.81117841775897,24.11908,8.432609,323.7024841308594,9.971875729509501,5.55237730393226,-9999,6465.795224666667,-0.29290771484375,0.953094482421875,-0.00506591796875,1,0.93
2020-05-19 14:53:43.403 -0400,1589914423.000085,41.3605338278173,-71.81117841775897,24.11908,8.432609,323.7024841308594,9.971875729509501,5.55237730393226,-9999,6465.845114250001,-0.30389404296875,0.963165283203125,-0.0166015625,1,0.93
2020-05-19 14:53:43.452 -0400,1589914423.000085,41.3605338278173,-71.81117841775897,24.11908,8.432609,323.7024841308594,9.971875729509501,5.55237730393226,-9999,6465.89500125,-0.2826995849609375,0.917388916015625,-0.019256591796875,1,0.93
2020-05-19 14:53:43.502 -0400,1589914423.000085,41.3605338278173,-71.81117841775897,24.11908,8.432609,323.7024841308594,9.971875729509501,5.55237730393226,-9999,6465.944887250001,-0.2665557861328125,0.920654296875,-0.01654052734375,1,0.93
2020-05-19 14:53:43.552 -0400,1589914423.000085,41.3605338278173,-71.81117841775897,24.11908,8.432609,323.7024841308594,9.971875729509501,5.55237730393226,-9999,6465.99477525,-0.2913360595703125,0.9693603515625,-0.0147857666015625,1,0.93
2020-05-19 14:53:43.602 -0400,1589914423.000085,41.3605338278173,-71.81117841775897,24.11908,8.432609,323.7024841308594,9.971875729509501,5.55237730393226,-9999,6466.044668250001,-0.292816162109375,1.000350952148438,-0.013031005859375,1,0.93
2020-05-19 14:53:43.652 -0400,1589914423.000085,41.3605338278173,-71.81117841775897,24.11908,8.432609,323.7024841308594,9.971875729509501,5.55237730393226,-9999,6466.09455725,-0.2964935302734375,0.9697418212890625,-0.002288818359375,1,0.93
2020-05-19 14:53:43.702 -0400,1589914423.000085,41.3605338278173,-71.81117841775897,24.11908,8.432609,323.7024841308594,9.971875729509501,5.55237730393226,-9999,6466.144450250001,-0.2912750244140625,0.9268341064453125,-0.001495361328125,1,0.93
2020-05-19 14:53:43.752 -0400,1589914423.000085,41.3605338278173,-71.81117841775897,24.11908,8.432609,323.7024841308594,9.971875729509501,5.55237730393226,-9999,6466.19434325,-0.28265380859375,0.9773101806640625,-0.008544921875,1,0.93
2020-05-19 14:53:43.802 -0400,1589914423.000085,41.3605338278173,-71.81117841775897,24.11908,8.432609,323.7024841308594,9.971875729509501,5.55237730393226,-9999,6466.24423525,-0.3079376220703125,0.908599853515625,-0.039154052734375,1,0.93
2020-05-19 14:53:43.852 -0400,1589914423.000085,41.3605338278173,-71.81117841775897,24.11908,8.432609,323.7024841308594,9.971875729509501,5.55237730393226,-9999,6466.294128250001,-0.3079986572265625,0.9589385986328125,-0.011077880859375,1,0.93
2020-05-19 14:53:43.901 -0400,1589914423.000085,41.3605338278173,-71.81117841775897,24.11908,8.432609,323.7024841308594,9.971875729509501,5.55237730393226,-9999,6466.34402225,-0.279449462890625,0.9425506591796875,0.0049896240234375,1,0.93
2020-05-19 14:53:43.951 -0400,1589914423.000085,41.3605338278173,-71.81117841775897,24.11908,8.432609,323.7024841308594,9.971875729509501,5.55237730393226,-9999,6466.39391425,-0.326568603515625,0.9385528564453125,-0.044342041015625,1,0.93
2020-05-19 14:53:44.001 -0400,1589914423.000085,41.3605338278173,-71.81117841775897,24.11908,8.432609,323.7024841308594,9.971875729509501,5.55237730393226,-9999,6466.44380825,-0.3118133544921875,1.03497314453125,0.005218505859375,1,0.93
2020-05-19 14:53:44.059 -0400,1589914423.000085,41.3605338278173,-71.81117841775897,24.11908,8.432609,323.7024841308594,9.971875729509501,5.55237730393226,-9999,6466.49370025,-0.29791259765625,0.9471588134765625,-0.0170440673828125,1,0.93
2020-05-19 14:53:44.101 -0400,1589914423.000085,41.3605338278173,-71.81117841775897,24.11908,8.432609,323.7024841308594,9.971875729509501,5.55237730393226,-9999,6466.543594250001,-0.28399658203125,0.957183837890625,-0.0096588134765625,1,0.93
2020-05-19 14:53:44.151 -0400,1589914423.000085,41.3605338278173,-71.81117841775897,24.11908,8.432609,323.7024841308594,9.971875729509501,5.55237730393226,-9999,6466.593486250001,-0.298065185546875,1.00726318359375,-0.0001068115234375,1,0.93
2020-05-19 14:53:44.201 -0400,1589914423.000085,41.3605338278173,-71.81117841775897,24.11908,8.432609,323.7024841308594,9.971875729509501,5.55237730393226,-9999,6466.64337925,-0.2904510498046875,0.91107177734375,-0.021270751953125,1,0.93
2020-05-19 14:53:44.251 -0400,1589914423.000085,41.3605338278173,-71.81117841775897,24.11908,8.432609,323.7024841308594,9.971875729509501,5.55237730393226,-9999,6466.69327325,-0.2786407470703125,0.913787841796875,0.0226898193359375,1,0.93
2020-05-19 14:53:44.301 -0400,1589914423.000085,41.3605338278173,-71.81117841775897,24.11908,8.432609,323.7024841308594,9.971875729509501,5.55237730393226,-9999,6466.74316825,-0.3028411865234375,0.9081268310546875,-0.0535888671875,1,0.93
2020-05-19 14:53:44.357 -0400,1589914423.000085,41.3605338278173,-71.81117841775897,24.11908,8.432609,323.7024841308594,9.971875729509501,5.55237730393226,-9999,6466.79306425,-0.3337860107421875,0.97137451171875,-0.003875732421875,1,0.93
2020-05-19 14:53:44.401 -0400,1589914424.000065,41.36059709338188,-71.81123554903185,24.14761,8.096323,322.6902160644531,13.28607578921992,7.489520325504052,-9999,6466.84296125,-0.297760009765625,1.018753051757812,0.007049560546875,1,0.93
2020-05-19 14:53:44.450 -0400,1589914424.000065,41.36059709338188,-71.81123554903185,24.14761,8.096323,322.6902160644531,13.28607578921992,7.489520325504052,-9999,6466.89285825,-0.3094635009765625,0.9649200439453125,-0.00885009765625,1,0.93
2020-05-19 14:53:44.500 -0400,1589914424.000065,41.36059709338188,-71.81123554903185,24.14761,8.096323,322.6902160644531,13.28607578921992,7.489520325504052,-9999,6466.94275525,-0.31256103515625,0.94378662109375,-0.0135498046875,1,0.93
2020-05-19 14:53:44.550 -0400,1589914424.000065,41.36059709338188,-71.81123554903185,24.14761,8.096323,322.6902160644531,13.28607578921992,7.489520325504052,-9999,6466.992651250001,-0.30194091796875,0.9730224609375,0.0079345703125,1,0.93
2020-05-19 14:53:44.600 -0400,1589914424.000065,41.36059709338188,-71.81123554903185,24.14761,8.096323,322.6902160644531,13.28607578921992,7.489520325504052,-9999,6467.04254725,-0.3050994873046875,0.9959869384765625,0.0008544921875,1,0.93
2020-05-19 14:53:44.650 -0400,1589914424.000065,41.36059709338188,-71.81123554903185,24.14761,8.096323,322.6902160644531,13.28607578921992,7.489520325504052,-9999,6467.09244225,-0.2843170166015625,0.9071502685546875,-0.048583984375,1,0.93
2020-05-19 14:53:44.700 -0400,1589914424.000065,41.36059709338188,-71.81123554903185,24.14761,8.096323,322.6902160644531,13.28607578921992,7.489520325504052,-9999,6467.14233725,-0.3035888671875,0.951934814453125,-0.001373291015625,1,0.93
2020-05-19 14:53:44.750 -0400,1589914424.000065,41.36059709338188,-71.81123554903185,24.14761,8.096323,322.6902160644531,13.28607578921992,7.489520325504052,-9999,6467.192233250001,-0.315765380859375,1.038436889648438,-0.021575927734375,1,0.93
2020-05-19 14:53:44.800 -0400,1589914424.000065,41.36059709338188,-71.81123554903185,24.14761,8.096323,322.6902160644531,13.28607578921992,7.489520325504052,-9999,6467.242130250001,-0.325653076171875,1.008636474609375,-0.0020904541015625,1,0.93
2020-05-19 14:53:44.849 -0400,1589914424.000065,41.36059709338188,-71.81123554903185,24.14761,8.096323,322.6902160644531,13.28607578921992,7.489520325504052,-9999,6467.292028250001,-0.28839111328125,0.9507904052734375,-0.0110015869140625,1,0.93
2020-05-19 14:53:44.899 -0400,1589914424.000065,41.36059709338188,-71.81123554903185,24.14761,8.096323,322.6902160644531,13.28607578921992,7.489520325504052,-9999,6467.34192725,-0.323028564453125,0.9587554931640625,0.0259246826171875,1,0.93
2020-05-19 14:53:44.949 -0400,1589914424.000065,41.36059709338188,-71.81123554903185,24.14761,8.096323,322.6902160644531,13.28607578921992,7.489520325504052,-9999,6467.391825250001,-0.295806884765625,0.927978515625,-0.028045654296875,1,0.93
2020-05-19 14:53:44.999 -0400,1589914424.000065,41.36059709338188,-71.81123554903185,24.14761,8.096323,322.6902160644531,13.28607578921992,7.489520325504052,-9999,6467.44172325,-0.2876129150390625,0.9304046630859375,-0.002960205078125,1,0.93
2020-05-19 14:53:45.050 -0400,1589914424.000065,41.36059709338188,-71.81123554903185,24.14761,8.096323,322.6902160644531,13.28607578921992,7.489520325504052,-9999,6467.49161925,-0.325164794921875,0.9720916748046875,-0.0048980712890625,1,0.93
2020-05-19 14:53:45.099 -0400,1589914424.000065,41.36059709338188,-71.81123554903185,24.14761,8.096323,322.6902160644531,13.28607578921992,7.489520325504052,-9999,6467.54151625,-0.28338623046875,0.9747161865234375,-0.0609588623046875,1,0.93
2020-05-19 14:53:45.149 -0400,1589914424.000065,41.36059709338188,-71.81123554903185,24.14761,8.096323,322.6902160644531,13.28607578921992,7.489520325504052,-9999,6467.591412250001,-0.335479736328125,1.029525756835938,-0.0176544189453125,1,0.93
2020-05-19 14:53:45.199 -0400,1589914424.000065,41.36059709338188,-71.81123554903185,24.14761,8.096323,322.6902160644531,13.28607578921992,7.489520325504052,-9999,6467.64130825,-0.3064422607421875,0.9742279052734375,-0.0030975341796875,1,0.93
2020-05-19 14:53:45.249 -0400,1589914424.000065,41.36059709338188,-71.81123554903185,24.14761,8.096323,322.6902160644531,13.28607578921992,7.489520325504052,-9999,6467.69120025,-0.2798919677734375,0.94427490234375,0.0099945068359375,1,0.93
2020-05-19 14:53:45.299 -0400,1589914424.000065,41.36059709338188,-71.81123554903185,24.14761,8.096323,322.6902160644531,13.28607578921992,7.489520325504052,-9999,6467.74109525,-0.3249969482421875,0.870941162109375,-0.0809173583984375,1,0.93
2020-05-19 14:53:45.349 -0400,1589914424.000065,41.36059709338188,-71.81123554903185,24.14761,8.096323,322.6902160644531,13.28607578921992,7.489520325504052,-9999,6467.79098925,-0.34454345703125,1.034500122070312,0.0632781982421875,1,0.93
2020-05-19 14:53:45.398 -0400,1589914425.000063,41.36065695408385,-71.81129684507073,24.22467,8.169973,322.6902160644531,18.13885653945529,9.816316201500655,-9999,6467.84088125,-0.3201141357421875,0.935150146484375,-0.062591552734375,1,0.93
2020-05-19 14:53:45.448 -0400,1589914425.000063,41.36065695408385,-71.81129684507073,24.22467,8.169973,322.6902160644531,18.13885653945529,9.816316201500655,-9999,6467.890774250001,-0.31268310546875,1.005950927734375,-0.0418853759765625,1,0.93
2020-05-19 14:53:45.498 -0400,1589914425.000063,41.36065695408385,-71.81129684507073,24.22467,8.169973,322.6902160644531,18.13885653945529,9.816316201500655,-9999,6467.94066825,-0.31732177734375,0.976898193359375,0.0064697265625,1,0.93
2020-05-19 14:53:45.548 -0400,1589914425.000063,41.36065695408385,-71.81129684507073,24.22467,8.169973,322.6902160644531,18.13885653945529,9.816316201500655,-9999,6467.990561250001,-0.3367156982421875,0.88311767578125,-0.0458831787109375,1,0.93
2020-05-19 14:53:45.598 -0400,1589914425.000063,41.36065695408385,-71.81129684507073,24.22467,8.169973,322.6902160644531,18.13885653945529,9.816316201500655,-9999,6468.040453250001,-0.3151092529296875,0.94879150390625,0.0052947998046875,1,0.93
2020-05-19 14:53:45.648 -0400,1589914425.000063,41.36065695408385,-71.81129684507073,24.22467,8.169973,322.6902160644531,18.13885653945529,9.816316201500655,-9999,6468.09034925,-0.3205718994140625,0.99578857421875,0.017181396484375,1,0.93
2020-05-19 14:53:45.698 -0400,1589914425.000063,41.36065695408385,-71.81129684507073,24.22467,8.169973,322.6902160644531,18.13885653945529,9.816316201500655,-9999,6468.14024425,-0.31256103515625,0.90460205078125,-0.0386199951171875,1,0.93
2020-05-19 14:53:45.748 -0400,1589914425.000063,41.36065695408385,-71.81129684507073,24.22467,8.169973,322.6902160644531,18.13885653945529,9.816316201500655,-9999,6468.190137250001,-0.311126708984375,0.887908935546875,-0.035552978515625,1,0.93
2020-05-19 14:53:45.797 -0400,1589914425.000063,41.36065695408385,-71.81129684507073,24.22467,8.169973,322.6902160644531,18.13885653945529,9.816316201500655,-9999,6468.24003125,-0.3057403564453125,0.9878387451171875,-0.03240966796875,1,0.93
2020-05-19 14:53:45.847 -0400,1589914425.000063,41.36065695408385,-71.81129684507073,24.22467,8.169973,322.6902160644531,18.13885653945529,9.816316201500655,-9999,6468.28992225,-0.3817596435546875,0.975982666015625,-0.1336822509765625,1,0.93
2020-05-19 14:53:45.898 -0400,1589914425.000063,41.36065695408385,-71.81129684507073,24.22467,8.169973,322.6902160644531,18.13885653945529,9.816316201500655,-9999,6468.339813250001,-0.3667755126953125,0.868896484375,-0.11724853515625,1,0.93
2020-05-19 14:53:45.947 -0400,1589914425.000063,41.36065695408385,-71.81129684507073,24.22467,8.169973,322.6902160644531,18.13885653945529,9.816316201500655,-9999,6468.38970725,-0.305419921875,0.9684600830078125,-0.0353240966796875,1,0.93
2020-05-19 14:53:45.997 -0400,1589914425.000063,41.36065695408385,-71.81129684507073,24.22467,8.169973,322.6902160644531,18.13885653945529,9.816316201500655,-9999,6468.43959925,-0.2820281982421875,0.889190673828125,-0.093505859375,1,0.93
2020-05-19 14:53:46.066 -0400,1589914425.000063,41.36065695408385,-71.81129684507073,24.22467,8.169973,322.6902160644531,18.13885653945529,9.816316201500655,-9999,6468.48949025,-0.316741943359375,0.967498779296875,-0.0655364990234375,1,0.93
2020-05-19 14:53:46.097 -0400,1589914425.000063,41.36065695408385,-71.81129684507073,24.22467,8.169973,322.6902160644531,18.13885653945529,9.816316201500655,-9999,6468.539381250001,-0.325286865234375,0.9527435302734375,-0.04693603515625,1,0.93
2020-05-19 14:53:46.147 -0400,1589914425.000063,41.36065695408385,-71.81129684507073,24.22467,8.169973,322.6902160644531,18.13885653945529,9.816316201500655,-9999,6468.58927225,-0.312469482421875,0.9768524169921875,-0.076202392578125,1,0.93
2020-05-19 14:53:46.197 -0400,1589914425.000063,41.36065695408385,-71.81129684507073,24.22467,8.169973,322.6902160644531,18.13885653945529,9.816316201500655,-9999,6468.63916225,-0.2853851318359375,0.9139251708984375,-0.0697174072265625,1,0.93
2020-05-19 14:53:46.247 -0400,1589914426.000043,41.36071870597635,-71.8113579798181,24.25438,8.169973,322.6902160644531,15.91385657450763,8.671966440378634,-9999,6468.689052250001,-0.2856903076171875,0.9347076416015625,-0.09320068359375,1,0.93
2020-05-19 14:53:46.296 -0400,1589914426.000043,41.36071870597635,-71.8113579798181,24.25438,8.169973,322.6902160644531,15.91385657450763,8.671966440378634,-9999,6468.73894525,-0.289520263671875,0.94805908203125,-0.0759735107421875,1,0.93
2020-05-19 14:53:46.346 -0400,1589914426.000043,41.36071870597635,-71.8113579798181,24.25438,8.169973,322.6902160644531,15.91385657450763,8.671966440378634,-9999,6468.78883725,-0.291900634765625,0.9947357177734375,-0.0711669921875,1,0.93
2020-05-19 14:53:46.396 -0400,1589914426.000043,41.36071870597635,-71.8113579798181,24.25438,8.169973,322.6902160644531,15.91385657450763,8.671966440378634,-9999,6468.838727750001,-0.2628173828125,1.001190185546875,-0.0524444580078125,1,0.93
2020-05-19 14:53:46.446 -0400,1589914426.000043,41.36071870597635,-71.8113579798181,24.25438,8.169973,322.6902160644531,15.91385657450763,8.671966440378634,-9999,6468.88861575,-0.27435302734375,0.992431640625,-0.0516357421875,1,0.93
2020-05-19 14:53:46.496 -0400,1589914426.000043,41.36071870597635,-71.8113579798181,24.25438,8.169973,322.6902160644531,15.91385657450763,8.671966440378634,-9999,6468.93850475,-0.2585601806640625,0.9410858154296875,-0.0521087646484375,1,0.93
2020-05-19 14:53:46.546 -0400,1589914426.000043,41.36071870597635,-71.8113579798181,24.25438,8.169973,322.6902160644531,15.91385657450763,8.671966440378634,-9999,6468.98839275,-0.25885009765625,0.9791107177734375,-0.0485687255859375,1,0.93
2020-05-19 14:53:46.596 -0400,1589914426.000043,41.36071870597635,-71.8113579798181,24.25438,8.169973,322.6902160644531,15.91385657450763,8.671966440378634,-9999,6469.03828075,-0.259796142578125,0.9681396484375,-0.048065185546875,1,0.93
2020-05-19 14:53:46.646 -0400,1589914426.000043,41.36071870597635,-71.8113579798181,24.25438,8.169973,322.6902160644531,15.91385657450763,8.671966440378634,-9999,6469.088169750001,-0.2597503662109375,0.964263916015625,-0.101806640625,1,0.93
2020-05-19 14:53:46.696 -0400,1589914426.000043,41.36071870597635,-71.8113579798181,24.25438,8.169973,322.6902160644531,15.91385657450763,8.671966440378634,-9999,6469.13805675,-0.2675933837890625,0.967254638671875,-0.0701446533203125,1,0.93
2020-05-19 14:53:46.745 -0400,1589914426.000043,41.36071870597635,-71.8113579798181,24.25438,8.169973,322.6902160644531,15.91385657450763,8.671966440378634,-9999,6469.18793875,-0.2385406494140625,1.014495849609375,-0.05181884765625,1,0.93
2020-05-19 14:53:46.795 -0400,1589914426.000043,41.36071870597635,-71.8113579798181,24.25438,8.169973,322.6902160644531,15.91385657450763,8.671966440378634,-9999,6469.23782175,-0.2252349853515625,0.9750213623046875,-0.0643310546875,1,0.93
2020-05-19 14:53:46.845 -0400,1589914426.000043,41.36071870597635,-71.8113579798181,24.25438,8.169973,322.6902160644531,15.91385657450763,8.671966440378634,-9999,6469.287707750001,-0.24639892578125,0.9579010009765625,-0.0723114013671875,1,0.93
2020-05-19 14:53:46.895 -0400,1589914426.000043,41.36071870597635,-71.8113579798181,24.25438,8.169973,322.6902160644531,15.91385657450763,8.671966440378634,-9999,6469.33759275,-0.24517822265625,1.0791015625,-0.0607757568359375,1,0.93
2020-05-19 14:53:46.945 -0400,1589914426.000043,41.36071870597635,-71.8113579798181,24.25438,8.169973,322.6902160644531,15.91385657450763,8.671966440378634,-9999,6469.38747975,-0.2415618896484375,0.986541748046875,-0.1655731201171875,1,0.93
2020-05-19 14:53:46.995 -0400,1589914426.000043,41.36071870597635,-71.8113579798181,24.25438,8.169973,322.6902160644531,15.91385657450763,8.671966440378634,-9999,6469.437367750001,-0.2284393310546875,1.012161254882812,-0.13336181640625,1,0.93
2020-05-19 14:53:47.045 -0400,1589914426.000043,41.36071870597635,-71.8113579798181,24.25438,8.169973,322.6902160644531,15.91385657450763,8.671966440378634,-9999,6469.487254750001,-0.19390869140625,0.880126953125,-0.16119384765625,1,0.93
2020-05-19 14:53:47.095 -0400,1589914426.000043,41.36071870597635,-71.8113579798181,24.25438,8.169973,322.6902160644531,15.91385657450763,8.671966440378634,-9999,6469.537140750001,-0.2160797119140625,0.89654541015625,-0.1459197998046875,1,0.93
2020-05-19 14:53:47.145 -0400,1589914426.000043,41.36071870597635,-71.8113579798181,24.25438,8.169973,322.6902160644531,15.91385657450763,8.671966440378634,-9999,6469.587027750001,-0.225860595703125,1.03143310546875,-0.1154327392578125,1,0.93
2020-05-19 14:53:47.194 -0400,1589914426.000043,41.36071870597635,-71.8113579798181,24.25438,8.169973,322.6902160644531,15.91385657450763,8.671966440378634,-9999,6469.63691075,-0.24853515625,1.003158569335938,-0.1417999267578125,1,0.93
2020-05-19 14:53:47.244 -0400,1589914426.000043,41.36071870597635,-71.8113579798181,24.25438,8.169973,322.6902160644531,15.91385657450763,8.671966440378634,-9999,6469.68679975,-0.2444305419921875,1.007705688476562,-0.1714019775390625,1,0.93
2020-05-19 14:53:47.294 -0400,1589914426.000043,41.36071870597635,-71.8113579798181,24.25438,8.169973,322.6902160644531,15.91385657450763,8.671966440378634,-9999,6469.736692750001,-0.18963623046875,0.91265869140625,-0.1387786865234375,1,0.93
2020-05-19 14:53:47.355 -0400,1589914426.000043,41.36071870597635,-71.8113579798181,24.25438,8.169973,322.6902160644531,15.91385657450763,8.671966440378634,-9999,6469.78658375,-0.1879119873046875,0.948089599609375,-0.126922607421875,1,0.93
2020-05-19 14:53:47.394 -0400,1589914427.000041,41.36078292659172,-71.81142331954784,24.3314,8.34769,322.6902160644531,27.26643891699135,14.53058372848493,-9999,6469.836473750001,-0.206787109375,0.9968414306640625,-0.1563720703125,1,0.93
2020-05-19 14:53:47.444 -0400,1589914427.000041,41.36078292659172,-71.81142331954784,24.3314,8.34769,322.6902160644531,27.26643891699135,14.53058372848493,-9999,6469.886362125,-0.2300567626953125,0.9482421875,-0.1817779541015625,1,0.93
2020-05-19 14:53:47.494 -0400,1589914427.000041,41.36078292659172,-71.81142331954784,24.3314,8.34769,322.6902160644531,27.26643891699135,14.53058372848493,-9999,6469.936250125001,-0.222808837890625,0.91680908203125,-0.1564178466796875,1,0.93
2020-05-19 14:53:47.544 -0400,1589914427.000041,41.36078292659172,-71.81142331954784,24.3314,8.34769,322.6902160644531,27.26643891699135,14.53058372848493,-9999,6469.986139125001,-0.20648193359375,0.9091949462890625,-0.139862060546875,1,0.93
2020-05-19 14:53:47.594 -0400,1589914427.000041,41.36078292659172,-71.81142331954784,24.3314,8.34769,322.6902160644531,27.26643891699135,14.53058372848493,-9999,6470.036029125001,-0.2342681884765625,0.924102783203125,-0.1802215576171875,1,0.93
2020-05-19 14:53:47.643 -0400,1589914427.000041,41.36078292659172,-71.81142331954784,24.3314,8.34769,322.6902160644531,27.26643891699135,14.53058372848493,-9999,6470.085917125,-0.2362060546875,1.008056640625,-0.15838623046875,1,0.93
2020-05-19 14:53:47.693 -0400,1589914427.000041,41.36078292659172,-71.81142331954784,24.3314,8.34769,322.6902160644531,27.26643891699135,14.53058372848493,-9999,6470.135806125,-0.233428955078125,0.9822235107421875,-0.18658447265625,1,0.93
2020-05-19 14:53:47.743 -0400,1589914427.000041,41.36078292659172,-71.81142331954784,24.3314,8.34769,322.6902160644531,27.26643891699135,14.53058372848493,-9999,6470.185697125001,-0.238983154296875,0.98358154296875,-0.155426025390625,1,0.93
2020-05-19 14:53:47.793 -0400,1589914427.000041,41.36078292659172,-71.81142331954784,24.3314,8.34769,322.6902160644531,27.26643891699135,14.53058372848493,-9999,6470.235587125,-0.2488555908203125,0.96685791015625,-0.092010498046875,1,0.93
2020-05-19 14:53:47.843 -0400,1589914427.000041,41.36078292659172,-71.81142331954784,24.3314,8.34769,322.6902160644531,27.26643891699135,14.53058372848493,-9999,6470.285476125,-0.2184600830078125,0.9649505615234375,-0.07672119140625,1,0.93
2020-05-19 14:53:47.893 -0400,1589914427.000041,41.36078292659172,-71.81142331954784,24.3314,8.34769,322.6902160644531,27.26643891699135,14.53058372848493,-9999,6470.335365125,-0.2286834716796875,0.97698974609375,-0.1250152587890625,1,0.93
2020-05-19 14:53:47.943 -0400,1589914427.000041,41.36078292659172,-71.81142331954784,24.3314,8.34769,322.6902160644531,27.26643891699135,14.53058372848493,-9999,6470.385256125001,-0.2572174072265625,0.9493560791015625,-0.142486572265625,1,0.93
2020-05-19 14:53:47.993 -0400,1589914427.000041,41.36078292659172,-71.81142331954784,24.3314,8.34769,322.6902160644531,27.26643891699135,14.53058372848493,-9999,6470.435145125,-0.276580810546875,0.995513916015625,-0.075408935546875,1,0.93
2020-05-19 14:53:48.064 -0400,1589914427.000041,41.36078292659172,-71.81142331954784,24.3314,8.34769,322.6902160644531,27.26643891699135,14.53058372848493,-9999,6470.485034125,-0.2588958740234375,0.9682159423828125,-0.0802001953125,1,0.93
2020-05-19 14:53:48.092 -0400,1589914427.000041,41.36078292659172,-71.81142331954784,24.3314,8.34769,322.6902160644531,27.26643891699135,14.53058372848493,-9999,6470.534926125,-0.26531982421875,0.9630126953125,-0.0734405517578125,1,0.93
2020-05-19 14:53:48.142 -0400,1589914427.000041,41.36078292659172,-71.81142331954784,24.3314,8.34769,322.6902160644531,27.26643891699135,14.53058372848493,-9999,6470.584820125,-0.2409820556640625,0.9717864990234375,-0.0945281982421875,1,0.93
2020-05-19 14:53:48.192 -0400,1589914427.000041,41.36078292659172,-71.81142331954784,24.3314,8.34769,322.6902160644531,27.26643891699135,14.53058372848493,-9999,6470.634709125,-0.2459259033203125,0.9465789794921875,-0.1184539794921875,1,0.93
2020-05-19 14:53:48.242 -0400,1589914427.000041,41.36078292659172,-71.81142331954784,24.3314,8.34769,322.6902160644531,27.26643891699135,14.53058372848493,-9999,6470.684596125,-0.265472412109375,0.9771728515625,-0.1303253173828125,1,0.93
2020-05-19 14:53:48.292 -0400,1589914428.000029,41.3608482775693,-71.81148944499067,24.54195,8.636404,323.7602233886719,16.13303109515465,8.426650674546272,-9999,6470.734487125001,-0.251373291015625,0.9465179443359375,-0.1383819580078125,1,0.93
2020-05-19 14:53:48.342 -0400,1589914428.000029,41.3608482775693,-71.81148944499067,24.54195,8.636404,323.7602233886719,16.13303109515465,8.426650674546272,-9999,6470.784377125,-0.2616424560546875,0.9756011962890625,-0.153717041015625,1,0.93
2020-05-19 14:53:48.392 -0400,1589914428.000029,41.3608482775693,-71.81148944499067,24.54195,8.636404,323.7602233886719,16.13303109515465,8.426650674546272,-9999,6470.834266125001,-0.2540283203125,0.9676971435546875,-0.099578857421875,1,0.93
2020-05-19 14:53:48.442 -0400,1589914428.000029,41.3608482775693,-71.81148944499067,24.54195,8.636404,323.7602233886719,16.13303109515465,8.426650674546272,-9999,6470.884156375,-0.2364501953125,0.99542236328125,-0.096649169921875,1,0.93
2020-05-19 14:53:48.491 -0400,1589914428.000029,41.3608482775693,-71.81148944499067,24.54195,8.636404,323.7602233886719,16.13303109515465,8.426650674546272,-9999,6470.934047375001,-0.247833251953125,0.9437103271484375,-0.1728668212890625,1,0.93
2020-05-19 14:53:48.541 -0400,1589914428.000029,41.3608482775693,-71.81148944499067,24.54195,8.636404,323.7602233886719,16.13303109515465,8.426650674546272,-9999,6470.983937375,-0.248809814453125,0.9207916259765625,-0.089569091796875,1,0.93
2020-05-19 14:53:48.591 -0400,1589914428.000029,41.3608482775693,-71.81148944499067,24.54195,8.636404,323.7602233886719,16.13303109515465,8.426650674546272,-9999,6471.033825375001,-0.2602996826171875,0.954193115234375,-0.0890350341796875,1,0.93
2020-05-19 14:53:48.641 -0400,1589914428.000029,41.3608482775693,-71.81148944499067,24.54195,8.636404,323.7602233886719,16.13303109515465,8.426650674546272,-9999,6471.083714375,-0.237823486328125,0.942779541015625,-0.0882110595703125,1,0.93
2020-05-19 14:53:48.691 -0400,1589914428.000029,41.3608482775693,-71.81148944499067,24.54195,8.636404,323.7602233886719,16.13303109515465,8.426650674546272,-9999,6471.133600375,-0.229827880859375,1.008712768554688,-0.0713653564453125,1,0.93
2020-05-19 14:53:48.741 -0400,1589914428.000029,41.3608482775693,-71.81148944499067,24.54195,8.636404,323.7602233886719,16.13303109515465,8.426650674546272,-9999,6471.183488375001,-0.260406494140625,0.9977874755859375,-0.1131439208984375,1,0.93
2020-05-19 14:53:48.791 -0400,1589914428.000029,41.3608482775693,-71.81148944499067,24.54195,8.636404,323.7602233886719,16.13303109515465,8.426650674546272,-9999,6471.233376375,-0.2590179443359375,0.9940643310546875,-0.119964599609375,1,0.93
2020-05-19 14:53:48.841 -0400,1589914428.000029,41.3608482775693,-71.81148944499067,24.54195,8.636404,323.7602233886719,16.13303109515465,8.426650674546272,-9999,6471.283266375,-0.2483673095703125,0.96636962890625,-0.1118927001953125,1,0.93
2020-05-19 14:53:48.891 -0400,1589914428.000029,41.3608482775693,-71.81148944499067,24.54195,8.636404,323.7602233886719,16.13303109515465,8.426650674546272,-9999,6471.333157375,-0.245574951171875,0.9315948486328125,-0.1148681640625,1,0.93
2020-05-19 14:53:48.941 -0400,1589914428.000029,41.3608482775693,-71.81148944499067,24.54195,8.636404,323.7602233886719,16.13303109515465,8.426650674546272,-9999,6471.383044375,-0.2496490478515625,0.9197540283203125,-0.1161651611328125,1,0.93
2020-05-19 14:53:48.990 -0400,1589914428.000029,41.3608482775693,-71.81148944499067,24.54195,8.636404,323.7602233886719,16.13303109515465,8.426650674546272,-9999,6471.432934375001,-0.226806640625,0.936279296875,-0.1177825927734375,1,0.93
2020-05-19 14:53:49.040 -0400,1589914428.000029,41.3608482775693,-71.81148944499067,24.54195,8.636404,323.7602233886719,16.13303109515465,8.426650674546272,-9999,6471.482823375,-0.2315216064453125,0.9340057373046875,-0.130523681640625,1,0.93
2020-05-19 14:53:49.090 -0400,1589914428.000029,41.3608482775693,-71.81148944499067,24.54195,8.636404,323.7602233886719,16.13303109515465,8.426650674546272,-9999,6471.532713375001,-0.277191162109375,0.9950408935546875,-0.143463134765625,1,0.93
2020-05-19 14:53:49.140 -0400,1589914428.000029,41.3608482775693,-71.81148944499067,24.54195,8.636404,323.7602233886719,16.13303109515465,8.426650674546272,-9999,6471.582603375,-0.279296875,0.933258056640625,-0.1625823974609375,1,0.93
2020-05-19 14:53:49.190 -0400,1589914428.000029,41.3608482775693,-71.81148944499067,24.54195,8.636404,323.7602233886719,16.13303109515465,8.426650674546272,-9999,6471.632491375,-0.2583160400390625,1.0919189453125,-0.048248291015625,1,0.93
2020-05-19 14:53:49.240 -0400,1589914428.000029,41.3608482775693,-71.81148944499067,24.54195,8.636404,323.7602233886719,16.13303109515465,8.426650674546272,-9999,6471.682380375,-0.1936187744140625,0.9571685791015625,-0.1291046142578125,1,0.93
2020-05-19 14:53:49.290 -0400,1589914428.000029,41.3608482775693,-71.81148944499067,24.54195,8.636404,323.7602233886719,16.13303109515465,8.426650674546272,-9999,6471.732272375,-0.220672607421875,0.9589691162109375,-0.1234893798828125,1,0.93
2020-05-19 14:53:49.340 -0400,1589914429.000026,41.36090314039303,-71.81154587087768,24.72616,8.0669,323.7602233886719,11.8684786441784,6.139502355328693,-9999,6471.782163375,-0.250946044921875,0.91241455078125,-0.2036590576171875,1,0.93
2020-05-19 14:53:49.390 -0400,1589914429.000026,41.36090314039303,-71.81154587087768,24.72616,8.0669,323.7602233886719,11.8684786441784,6.139502355328693,-9999,6471.832056375,-0.233856201171875,0.946258544921875,-0.140594482421875,1,0.93
2020-05-19 14:53:49.439 -0400,1589914429.000026,41.36090314039303,-71.81154587087768,24.72616,8.0669,323.7602233886719,11.8684786441784,6.139502355328693,-9999,6471.88194875,-0.201629638671875,0.95611572265625,-0.1634674072265625,1,0.93
2020-05-19 14:53:49.489 -0400,1589914429.000026,41.36090314039303,-71.81154587087768,24.72616,8.0669,323.7602233886719,11.8684786441784,6.139502355328693,-9999,6471.931838750001,-0.234405517578125,0.961944580078125,-0.2059326171875,1,0.93
2020-05-19 14:53:49.539 -0400,1589914429.000026,41.36090314039303,-71.81154587087768,24.72616,8.0669,323.7602233886719,11.8684786441784,6.139502355328693,-9999,6471.981730750001,-0.2187347412109375,0.92767333984375,-0.199859619140625,1,0.93
2020-05-19 14:53:49.589 -0400,1589914429.000026,41.36090314039303,-71.81154587087768,24.72616,8.0669,323.7602233886719,11.8684786441784,6.139502355328693,-9999,6472.03162175,-0.2215728759765625,0.9639739990234375,-0.21600341796875,1,0.93
2020-05-19 14:53:49.639 -0400,1589914429.000026,41.36090314039303,-71.81154587087768,24.72616,8.0669,323.7602233886719,11.8684786441784,6.139502355328693,-9999,6472.081514750001,-0.23028564453125,0.97491455078125,-0.1948394775390625,1,0.93
2020-05-19 14:53:49.689 -0400,1589914429.000026,41.36090314039303,-71.81154587087768,24.72616,8.0669,323.7602233886719,11.8684786441784,6.139502355328693,-9999,6472.131406750001,-0.225677490234375,0.975860595703125,-0.1490325927734375,1,0.93
2020-05-19 14:53:49.739 -0400,1589914429.000026,41.36090314039303,-71.81154587087768,24.72616,8.0669,323.7602233886719,11.8684786441784,6.139502355328693,-9999,6472.18129975,-0.2174530029296875,1.00921630859375,-0.169708251953125,1,0.93
2020-05-19 14:53:49.789 -0400,1589914429.000026,41.36090314039303,-71.81154587087768,24.72616,8.0669,323.7602233886719,11.8684786441784,6.139502355328693,-9999,6472.231190750001,-0.208892822265625,0.9424285888671875,-0.162506103515625,1,0.93
2020-05-19 14:53:49.839 -0400,1589914429.000026,41.36090314039303,-71.81154587087768,24.72616,8.0669,323.7602233886719,11.8684786441784,6.139502355328693,-9999,6472.281079750001,-0.228271484375,0.940155029296875,-0.1825408935546875,1,0.93
2020-05-19 14:53:49.888 -0400,1589914429.000026,41.36090314039303,-71.81154587087768,24.72616,8.0669,323.7602233886719,11.8684786441784,6.139502355328693,-9999,6472.33096875,-0.2240447998046875,0.9912872314453125,-0.1977081298828125,1,0.93
2020-05-19 14:53:49.938 -0400,1589914429.000026,41.36090314039303,-71.81154587087768,24.72616,8.0669,323.7602233886719,11.8684786441784,6.139502355328693,-9999,6472.38086075,-0.1934051513671875,0.93707275390625,-0.1815185546875,1,0.93
2020-05-19 14:53:49.989 -0400,1589914429.000026,41.36090314039303,-71.81154587087768,24.72616,8.0669,323.7602233886719,11.8684786441784,6.139502355328693,-9999,6472.43075275,-0.2128143310546875,0.905792236328125,-0.2234649658203125,1,0.93
2020-05-19 14:53:50.064 -0400,1589914429.000026,41.36090314039303,-71.81154587087768,24.72616,8.0669,323.7602233886719,11.8684786441784,6.139502355328693,-9999,6472.480642750001,-0.2012786865234375,0.964263916015625,-0.163238525390625,1,0.93
2020-05-19 14:53:50.088 -0400,1589914429.000026,41.36090314039303,-71.81154587087768,24.72616,8.0669,323.7602233886719,11.8684786441784,6.139502355328693,-9999,6472.530534750001,-0.1944122314453125,1.007125854492188,-0.1663970947265625,1,0.93
2020-05-19 14:53:50.138 -0400,1589914429.000026,41.36090314039303,-71.81154587087768,24.72616,8.0669,323.7602233886719,11.8684786441784,6.139502355328693,-9999,6472.58042575,-0.2176513671875,1.007553100585938,-0.1414031982421875,1,0.93
