loggingTime(txt),locationTimestamp_since1970(s),locationLatitude(WGS84),locationLongitude(WGS84),locationAltitude(m),locationSpeed(m/s),locationCourse(°),locationVerticalAccuracy(m),locationHorizontalAccuracy(m),locationFloor(Z),accelerometerTimestamp_sinceReboot(s),accelerometerAccelerationX(G),accelerometerAccelerationY(G),accelerometerAccelerationZ(G),batteryState,batteryLevel
2020-05-19 13:48:05.883 -0400,1589910484.999127,41.36256703509868,-71.8271384417008,27.21118,11.88713,81.8709716796875,3.541277820881606,4.613446480465647,-9999,3935.001775541667,-0.0807342529296875,-0.37762451171875,-0.905548095703125,1,0.98
2020-05-19 13:48:05.911 -0400,1589910484.999127,41.36256703509868,-71.8271384417008,27.21118,11.88713,81.8709716796875,3.541277820881606,4.613446480465647,-9999,3935.051666541667,-0.0918426513671875,-0.4337158203125,-0.917572021484375,1,0.98
2020-05-19 13:48:05.961 -0400,1589910484.999127,41.36256703509868,-71.8271384417008,27.21118,11.88713,81.8709716796875,3.541277820881606,4.613446480465647,-9999,3935.101556541667,-0.1154327392578125,-0.40777587890625,-0.9472808837890625,1,0.98
2020-05-19 13:48:06.011 -0400,1589910484.999127,41.36256703509868,-71.8271384417008,27.21118,11.88713,81.8709716796875,3.541277820881606,4.613446480465647,-9999,3935.151446541667,-0.0759735107421875,-0.3617401123046875,-1.055328369140625,1,0.98
2020-05-19 13:48:06.060 -0400,1589910484.999127,41.36256703509868,-71.8271384417008,27.21118,11.88713,81.8709716796875,3.541277820881606,4.613446480465647,-9999,3935.201338541667,-0.067138671875,-0.4256744384765625,-0.8150482177734375,1,0.98
2020-05-19 13:48:06.110 -0400,1589910484.999127,41.36256703509868,-71.8271384417008,27.21118,11.88713,81.8709716796875,3.541277820881606,4.613446480465647,-9999,3935.251227541667,-0.0653839111328125,-0.2769622802734375,-0.9498291015625,1,0.98
2020-05-19 13:48:06.160 -0400,1589910484.999127,41.36256703509868,-71.8271384417008,27.21118,11.88713,81.8709716796875,3.541277820881606,4.613446480465647,-9999,3935.301117541667,-0.03594970703125,-0.3707427978515625,-0.8465423583984375,1,0.98
2020-05-19 13:48:06.210 -0400,1589910484.999127,41.36256703509868,-71.8271384417008,27.21118,11.88713,81.8709716796875,3.541277820881606,4.613446480465647,-9999,3935.351006541667,-0.0612945556640625,-0.348358154296875,-0.995025634765625,1,0.98
2020-05-19 13:48:06.260 -0400,1589910484.999127,41.36256703509868,-71.8271384417008,27.21118,11.88713,81.8709716796875,3.541277820881606,4.613446480465647,-9999,3935.400896541667,-0.07012939453125,-0.3375396728515625,-0.9670867919921875,1,0.98
2020-05-19 13:48:06.310 -0400,1589910485.999159,41.36258372119085,-71.82700190266877,27.8281,11.3504,80.90654754638672,3.520488531876648,4.629330138336845,-9999,3935.450785541667,-0.057098388671875,-0.2436676025390625,-0.8237152099609375,1,0.98
2020-05-19 13:48:06.360 -0400,1589910485.999159,41.36258372119085,-71.82700190266877,27.8281,11.3504,80.90654754638672,3.520488531876648,4.629330138336845,-9999,3935.500674125,-0.0969390869140625,-0.3018798828125,-0.9744110107421875,1,0.98
2020-05-19 13:48:06.410 -0400,1589910485.999159,41.36258372119085,-71.82700190266877,27.8281,11.3504,80.90654754638672,3.520488531876648,4.629330138336845,-9999,3935.550564125,-0.127655029296875,-0.1972503662109375,-0.9680328369140625,1,0.98
2020-05-19 13:48:06.460 -0400,1589910485.999159,41.36258372119085,-71.82700190266877,27.8281,11.3504,80.90654754638672,3.520488531876648,4.629330138336845,-9999,3935.600452125,-0.120086669921875,-0.1911468505859375,-0.908966064453125,1,0.98
2020-05-19 13:48:06.521 -0400,1589910485.999159,41.36258372119085,-71.82700190266877,27.8281,11.3504,80.90654754638672,3.520488531876648,4.629330138336845,-9999,3935.650342125,-0.09197998046875,-0.17919921875,-0.91680908203125,1,0.98
2020-05-19 13:48:06.560 -0400,1589910485.999159,41.36258372119085,-71.82700190266877,27.8281,11.3504,80.90654754638672,3.520488531876648,4.629330138336845,-9999,3935.700232125,-0.174774169921875,-0.1460113525390625,-0.83380126953125,1,0.98
2020-05-19 13:48:06.609 -0400,1589910485.999159,41.36258372119085,-71.82700190266877,27.8281,11.3504,80.90654754638672,3.520488531876648,4.629330138336845,-9999,3935.750120125,-0.0620880126953125,-0.1671295166015625,-0.95166015625,1,0.98
2020-05-19 13:48:06.659 -0400,1589910485.999159,41.36258372119085,-71.82700190266877,27.8281,11.3504,80.90654754638672,3.520488531876648,4.629330138336845,-9999,3935.800010125,-0.1099090576171875,0.2285003662109375,-1.010345458984375,1,0.98
2020-05-19 13:48:06.709 -0400,1589910485.999159,41.36258372119085,-71.82700190266877,27.8281,11.3504,80.90654754638672,3.520488531876648,4.629330138336845,-9999,3935.849899125,-0.1301727294921875,0.543212890625,-0.858184814453125,1,0.98
2020-05-19 13:48:06.759 -0400,1589910485.999159,41.36258372119085,-71.82700190266877,27.8281,11.3504,80.90654754638672,3.520488531876648,4.629330138336845,-9999,3935.899787125,-0.1862030029296875,0.790557861328125,-0.59649658203125,1,0.98
2020-05-19 13:48:06.809 -0400,1589910485.999159,41.36258372119085,-71.82700190266877,27.8281,11.3504,80.90654754638672,3.520488531876648,4.629330138336845,-9999,3935.949677125,-0.20489501953125,0.823822021484375,-0.535125732421875,1,0.98
2020-05-19 13:48:06.859 -0400,1589910485.999159,41.36258372119085,-71.82700190266877,27.8281,11.3504,80.90654754638672,3.520488531876648,4.629330138336845,-9999,3935.999565125,-0.311065673828125,0.915130615234375,-0.1862335205078125,1,0.98
2020-05-19 13:48:06.909 -0400,1589910485.999159,41.36258372119085,-71.82700190266877,27.8281,11.3504,80.90654754638672,3.520488531876648,4.629330138336845,-9999,3936.049454125,-0.2861785888671875,0.9665985107421875,-0.2530364990234375,1,0.98
2020-05-19 13:48:06.959 -0400,1589910485.999159,41.36258372119085,-71.82700190266877,27.8281,11.3504,80.90654754638672,3.520488531876648,4.629330138336845,-9999,3936.099341125,-0.343658447265625,0.96295166015625,0.099365234375,1,0.98
2020-05-19 13:48:07.022 -0400,1589910485.999159,41.36258372119085,-71.82700190266877,27.8281,11.3504,80.90654754638672,3.520488531876648,4.629330138336845,-9999,3936.149230125,-0.3726043701171875,1.221893310546875,-0.003814697265625,1,0.98
2020-05-19 13:48:07.060 -0400,1589910485.999159,41.36258372119085,-71.82700190266877,27.8281,11.3504,80.90654754638672,3.520488531876648,4.629330138336845,-9999,3936.199119125,-0.3263397216796875,0.993255615234375,-0.0260467529296875,1,0.98
2020-05-19 13:48:07.108 -0400,1589910485.999159,41.36258372119085,-71.82700190266877,27.8281,11.3504,80.90654754638672,3.520488531876648,4.629330138336845,-9999,3936.249009125,-0.26715087890625,0.903289794921875,-0.0045166015625,1,0.98
2020-05-19 13:48:07.159 -0400,1589910485.999159,41.36258372119085,-71.82700190266877,27.8281,11.3504,80.90654754638672,3.520488531876648,4.629330138336845,-9999,3936.298898125,-0.2833251953125,0.9591217041015625,0.125457763671875,1,0.98
2020-05-19 13:48:07.209 -0400,1589910485.999159,41.36258372119085,-71.82700190266877,27.8281,11.3504,80.90654754638672,3.520488531876648,4.629330138336845,-9999,3936.348789125,-0.2609710693359375,0.96429443359375,0.114288330078125,1,0.98
2020-05-19 13:48:07.258 -0400,1589910485.999159,41.36258372119085,-71.82700190266877,27.8281,11.3504,80.90654754638672,3.520488531876648,4.629330138336845,-9999,3936.398678125,-0.20806884765625,0.9842987060546875,0.098052978515625,1,0.98
2020-05-19 13:48:07.308 -0400,1589910485.999159,41.36258372119085,-71.82700190266877,27.8281,11.3504,80.90654754638672,3.520488531876648,4.629330138336845,-9999,3936.448568125,-0.2121124267578125,0.888763427734375,0.0080718994140625,1,0.98
2020-05-19 13:48:07.358 -0400,1589910486.999195,41.36259826027694,-71.82687344834522,28.69156,10.81852,80.90654754638672,3.507647817131986,4.639067128610885,-9999,3936.498456,-0.240081787109375,0.9625091552734375,0.1536712646484375,1,0.98
2020-05-19 13:48:07.408 -0400,1589910486.999195,41.36259826027694,-71.82687344834522,28.69156,10.81852,80.90654754638672,3.507647817131986,4.639067128610885,-9999,3936.548345,-0.339447021484375,1.025604248046875,0.1090545654296875,1,0.98
2020-05-19 13:48:07.458 -0400,1589910486.999195,41.36259826027694,-71.82687344834522,28.69156,10.81852,80.90654754638672,3.507647817131986,4.639067128610885,-9999,3936.598235,-0.265655517578125,0.8782501220703125,0.105133056640625,1,0.98
2020-05-19 13:48:07.536 -0400,1589910486.999195,41.36259826027694,-71.82687344834522,28.69156,10.81852,80.90654754638672,3.507647817131986,4.639067128610885,-9999,3936.648125,-0.2077484130859375,0.8472442626953125,0.0704345703125,1,0.98
2020-05-19 13:48:07.619 -0400,1589910486.999195,41.36259826027694,-71.82687344834522,28.69156,10.81852,80.90654754638672,3.507647817131986,4.639067128610885,-9999,3936.698015,-0.226593017578125,1.062393188476562,0.076446533203125,1,0.98
2020-05-19 13:48:07.621 -0400,1589910486.999195,41.36259826027694,-71.82687344834522,28.69156,10.81852,80.90654754638672,3.507647817131986,4.639067128610885,-9999,3936.747904,-0.2874755859375,0.920257568359375,0.1094970703125,1,0.98
2020-05-19 13:48:07.657 -0400,1589910486.999195,41.36259826027694,-71.82687344834522,28.69156,10.81852,80.90654754638672,3.507647817131986,4.639067128610885,-9999,3936.797795,-0.2980804443359375,0.9195556640625,0.106353759765625,1,0.98
2020-05-19 13:48:07.707 -0400,1589910486.999195,41.36259826027694,-71.82687344834522,28.69156,10.81852,80.90654754638672,3.507647817131986,4.639067128610885,-9999,3936.847687,-0.27685546875,0.99810791015625,0.1129913330078125,1,0.98
2020-05-19 13:48:07.757 -0400,1589910486.999195,41.36259826027694,-71.82687344834522,28.69156,10.81852,80.90654754638672,3.507647817131986,4.639067128610885,-9999,3936.897581,-0.2396697998046875,1.096237182617188,0.0655059814453125,1,0.98
2020-05-19 13:48:07.807 -0400,1589910486.999195,41.36259826027694,-71.82687344834522,28.69156,10.81852,80.90654754638672,3.507647817131986,4.639067128610885,-9999,3936.947474,-0.320404052734375,0.8973846435546875,0.106475830078125,1,0.98
2020-05-19 13:48:07.857 -0400,1589910486.999195,41.36259826027694,-71.82687344834522,28.69156,10.81852,80.90654754638672,3.507647817131986,4.639067128610885,-9999,3936.997369,-0.2820892333984375,0.974578857421875,0.162353515625,1,0.98
2020-05-19 13:48:07.906 -0400,1589910486.999195,41.36259826027694,-71.82687344834522,28.69156,10.81852,80.90654754638672,3.507647817131986,4.639067128610885,-9999,3937.047263,-0.2458648681640625,1.065536499023438,0.0819854736328125,1,0.98
2020-05-19 13:48:07.956 -0400,1589910486.999195,41.36259826027694,-71.82687344834522,28.69156,10.81852,80.90654754638672,3.507647817131986,4.639067128610885,-9999,3937.097154,-0.2743377685546875,0.9033660888671875,0.0570831298828125,1,0.98
2020-05-19 13:48:08.006 -0400,1589910486.999195,41.36259826027694,-71.82687344834522,28.69156,10.81852,80.90654754638672,3.507647817131986,4.639067128610885,-9999,3937.147049,-0.292724609375,0.9504241943359375,0.169921875,1,0.98
2020-05-19 13:48:08.056 -0400,1589910486.999195,41.36259826027694,-71.82687344834522,28.69156,10.81852,80.90654754638672,3.507647817131986,4.639067128610885,-9999,3937.196942,-0.30914306640625,0.9365386962890625,0.187713623046875,1,0.98
2020-05-19 13:48:08.106 -0400,1589910486.999195,41.36259826027694,-71.82687344834522,28.69156,10.81852,80.90654754638672,3.507647817131986,4.639067128610885,-9999,3937.246834,-0.2823333740234375,0.95245361328125,0.1067352294921875,1,0.98
2020-05-19 13:48:08.156 -0400,1589910486.999195,41.36259826027694,-71.82687344834522,28.69156,10.81852,80.90654754638672,3.507647817131986,4.639067128610885,-9999,3937.296726,-0.2608642578125,0.96685791015625,0.100128173828125,1,0.98
2020-05-19 13:48:08.206 -0400,1589910486.999195,41.36259826027694,-71.82687344834522,28.69156,10.81852,80.90654754638672,3.507647817131986,4.639067128610885,-9999,3937.346618,-0.2753753662109375,0.9436187744140625,0.0967254638671875,1,0.98
2020-05-19 13:48:08.256 -0400,1589910486.999195,41.36259826027694,-71.82687344834522,28.69156,10.81852,80.90654754638672,3.507647817131986,4.639067128610885,-9999,3937.396507,-0.2769012451171875,0.9606170654296875,0.131500244140625,1,0.98
2020-05-19 13:48:08.306 -0400,1589910486.999195,41.36259826027694,-71.82687344834522,28.69156,10.81852,80.90654754638672,3.507647817131986,4.639067128610885,-9999,3937.446398,-0.259521484375,0.7846527099609375,0.2303924560546875,1,0.98
2020-05-19 13:48:08.356 -0400,1589910487.999226,41.36261345587966,-71.82675009605938,29.45236,10.51597,80.90654754638672,3.492583155739564,4.650419328730808,-9999,3937.496287291667,-0.26904296875,0.9404449462890625,0.1207122802734375,1,0.98
2020-05-19 13:48:08.405 -0400,1589910487.999226,41.36261345587966,-71.82675009605938,29.45236,10.51597,80.90654754638672,3.492583155739564,4.650419328730808,-9999,3937.546177291667,-0.2975006103515625,0.9612884521484375,0.1578369140625,1,0.98
2020-05-19 13:48:08.455 -0400,1589910487.999226,41.36261345587966,-71.82675009605938,29.45236,10.51597,80.90654754638672,3.492583155739564,4.650419328730808,-9999,3937.596069291667,-0.279937744140625,0.9182586669921875,0.1610260009765625,1,0.98
2020-05-19 13:48:08.505 -0400,1589910487.999226,41.36261345587966,-71.82675009605938,29.45236,10.51597,80.90654754638672,3.492583155739564,4.650419328730808,-9999,3937.645961291667,-0.27642822265625,0.9273529052734375,0.131591796875,1,0.98
2020-05-19 13:48:08.555 -0400,1589910487.999226,41.36261345587966,-71.82675009605938,29.45236,10.51597,80.90654754638672,3.492583155739564,4.650419328730808,-9999,3937.695857291667,-0.2731475830078125,0.9693145751953125,0.188629150390625,1,0.98
2020-05-19 13:48:08.605 -0400,1589910487.999226,41.36261345587966,-71.82675009605938,29.45236,10.51597,80.90654754638672,3.492583155739564,4.650419328730808,-9999,3937.745751291667,-0.3254852294921875,0.958251953125,0.1880340576171875,1,0.98
2020-05-19 13:48:08.655 -0400,1589910487.999226,41.36261345587966,-71.82675009605938,29.45236,10.51597,80.90654754638672,3.492583155739564,4.650419328730808,-9999,3937.795645291667,-0.301513671875,0.99066162109375,0.152740478515625,1,0.98
2020-05-19 13:48:08.705 -0400,1589910487.999226,41.36261345587966,-71.82675009605938,29.45236,10.51597,80.90654754638672,3.492583155739564,4.650419328730808,-9999,3937.845537291667,-0.265533447265625,0.9579010009765625,0.1048583984375,1,0.98
2020-05-19 13:48:08.755 -0400,1589910487.999226,41.36261345587966,-71.82675009605938,29.45236,10.51597,80.90654754638672,3.492583155739564,4.650419328730808,-9999,3937.895433291667,-0.2935943603515625,0.900177001953125,0.0892181396484375,1,0.98
2020-05-19 13:48:08.804 -0400,1589910487.999226,41.36261345587966,-71.82675009605938,29.45236,10.51597,80.90654754638672,3.492583155739564,4.650419328730808,-9999,3937.945328291667,-0.2771453857421875,0.888214111328125,0.1468353271484375,1,0.98
2020-05-19 13:48:08.855 -0400,1589910487.999226,41.36261345587966,-71.82675009605938,29.45236,10.51597,80.90654754638672,3.492583155739564,4.650419328730808,-9999,3937.995224291667,-0.302276611328125,1.037796020507812,0.1366424560546875,1,0.98
2020-05-19 13:48:08.904 -0400,1589910487.999226,41.36261345587966,-71.82675009605938,29.45236,10.51597,80.90654754638672,3.492583155739564,4.650419328730808,-9999,3938.045122291667,-0.312713623046875,1.000885009765625,0.1616363525390625,1,0.98
2020-05-19 13:48:08.954 -0400,1589910487.999226,41.36261345587966,-71.82675009605938,29.45236,10.51597,80.90654754638672,3.492583155739564,4.650419328730808,-9999,3938.095020291667,-0.27020263671875,0.8927459716796875,0.137176513671875,1,0.98
2020-05-19 13:48:09.004 -0400,1589910487.999226,41.36261345587966,-71.82675009605938,29.45236,10.51597,80.90654754638672,3.492583155739564,4.650419328730808,-9999,3938.144917291667,-0.3100128173828125,1.110137939453125,0.0570220947265625,1,0.98
2020-05-19 13:48:09.054 -0400,1589910487.999226,41.36261345587966,-71.82675009605938,29.45236,10.51597,80.90654754638672,3.492583155739564,4.650419328730808,-9999,3938.194814291667,-0.314453125,1.009307861328125,0.1033935546875,1,0.98
2020-05-19 13:48:09.104 -0400,1589910487.999226,41.36261345587966,-71.82675009605938,29.45236,10.51597,80.90654754638672,3.492583155739564,4.650419328730808,-9999,3938.244710291667,-0.3181610107421875,0.9796905517578125,0.1624603271484375,1,0.98
2020-05-19 13:48:09.154 -0400,1589910487.999226,41.36261345587966,-71.82675009605938,29.45236,10.51597,80.90654754638672,3.492583155739564,4.650419328730808,-9999,3938.294608291667,-0.31402587890625,0.948211669921875,0.1179351806640625,1,0.98
2020-05-19 13:48:09.204 -0400,1589910487.999226,41.36261345587966,-71.82675009605938,29.45236,10.51597,80.90654754638672,3.492583155739564,4.650419328730808,-9999,3938.344506291667,-0.2944793701171875,0.9568634033203125,0.1502838134765625,1,0.98
2020-05-19 13:48:09.258 -0400,1589910488.999256,41.36263016547704,-71.82662819035465,29.80058,10.33265,80.90654754638672,3.468357184946606,4.668515338993553,-9999,3938.394401291667,-0.3175048828125,0.9396209716796875,0.1444091796875,1,0.98
2020-05-19 13:48:09.304 -0400,1589910488.999256,41.36263016547704,-71.82662819035465,29.80058,10.33265,80.90654754638672,3.468357184946606,4.668515338993553,-9999,3938.444296291667,-0.279541015625,0.942962646484375,0.1630706787109375,1,0.98
2020-05-19 13:48:09.353 -0400,1589910488.999256,41.36263016547704,-71.82662819035465,29.80058,10.33265,80.90654754638672,3.468357184946606,4.668515338993553,-9999,3938.494193791667,-0.327911376953125,0.8680572509765625,0.133697509765625,1,0.98
2020-05-19 13:48:09.403 -0400,1589910488.999256,41.36263016547704,-71.82662819035465,29.80058,10.33265,80.90654754638672,3.468357184946606,4.668515338993553,-9999,3938.544090791667,-0.3238983154296875,0.9132080078125,0.116546630859375,1,0.98
2020-05-19 13:48:09.453 -0400,1589910488.999256,41.36263016547704,-71.82662819035465,29.80058,10.33265,80.90654754638672,3.468357184946606,4.668515338993553,-9999,3938.593986791667,-0.3167266845703125,1.018112182617188,0.11956787109375,1,0.98
2020-05-19 13:48:09.503 -0400,1589910488.999256,41.36263016547704,-71.82662819035465,29.80058,10.33265,80.90654754638672,3.468357184946606,4.668515338993553,-9999,3938.643883791667,-0.3222808837890625,1.118087768554688,0.115631103515625,1,0.98
2020-05-19 13:48:09.553 -0400,1589910488.999256,41.36263016547704,-71.82662819035465,29.80058,10.33265,80.90654754638672,3.468357184946606,4.668515338993553,-9999,3938.693780791667,-0.366455078125,0.9340667724609375,0.107391357421875,1,0.98
2020-05-19 13:48:09.603 -0400,1589910488.999256,41.36263016547704,-71.82662819035465,29.80058,10.33265,80.90654754638672,3.468357184946606,4.668515338993553,-9999,3938.743673791667,-0.3285980224609375,0.9032440185546875,0.1349639892578125,1,0.98
2020-05-19 13:48:09.653 -0400,1589910488.999256,41.36263016547704,-71.82662819035465,29.80058,10.33265,80.90654754638672,3.468357184946606,4.668515338993553,-9999,3938.793566791667,-0.297027587890625,0.9589385986328125,0.1114959716796875,1,0.98
2020-05-19 13:48:09.703 -0400,1589910488.999256,41.36263016547704,-71.82662819035465,29.80058,10.33265,80.90654754638672,3.468357184946606,4.668515338993553,-9999,3938.843459791667,-0.3193511962890625,0.9090576171875,0.1251678466796875,1,0.98
2020-05-19 13:48:09.753 -0400,1589910488.999256,41.36263016547704,-71.82662819035465,29.80058,10.33265,80.90654754638672,3.468357184946606,4.668515338993553,-9999,3938.893354791667,-0.337066650390625,0.9647674560546875,0.1102752685546875,1,0.98
2020-05-19 13:48:09.802 -0400,1589910488.999256,41.36263016547704,-71.82662819035465,29.80058,10.33265,80.90654754638672,3.468357184946606,4.668515338993553,-9999,3938.943248791667,-0.2949066162109375,0.970001220703125,0.135162353515625,1,0.98
2020-05-19 13:48:09.853 -0400,1589910488.999256,41.36263016547704,-71.82662819035465,29.80058,10.33265,80.90654754638672,3.468357184946606,4.668515338993553,-9999,3938.993139791667,-0.2983245849609375,0.9390869140625,0.0974884033203125,1,0.98
2020-05-19 13:48:09.902 -0400,1589910488.999256,41.36263016547704,-71.82662819035465,29.80058,10.33265,80.90654754638672,3.468357184946606,4.668515338993553,-9999,3939.043030791667,-0.3406219482421875,0.9365692138671875,0.135528564453125,1,0.98
2020-05-19 13:48:09.952 -0400,1589910488.999256,41.36263016547704,-71.82662819035465,29.80058,10.33265,80.90654754638672,3.468357184946606,4.668515338993553,-9999,3939.092923791667,-0.3284149169921875,0.917236328125,0.120330810546875,1,0.98
2020-05-19 13:48:10.002 -0400,1589910488.999256,41.36263016547704,-71.82662819035465,29.80058,10.33265,80.90654754638672,3.468357184946606,4.668515338993553,-9999,3939.142814791667,-0.3310699462890625,0.880615234375,0.163330078125,1,0.98
2020-05-19 13:48:10.052 -0400,1589910488.999256,41.36263016547704,-71.82662819035465,29.80058,10.33265,80.90654754638672,3.468357184946606,4.668515338993553,-9999,3939.192707791667,-0.301361083984375,0.8897552490234375,0.1413421630859375,1,0.98
2020-05-19 13:48:10.102 -0400,1589910488.999256,41.36263016547704,-71.82662819035465,29.80058,10.33265,80.90654754638672,3.468357184946606,4.668515338993553,-9999,3939.242602791667,-0.3517913818359375,0.92926025390625,0.162567138671875,1,0.98
2020-05-19 13:48:10.152 -0400,1589910488.999256,41.36263016547704,-71.82662819035465,29.80058,10.33265,80.90654754638672,3.468357184946606,4.668515338993553,-9999,3939.292497791667,-0.373748779296875,0.983001708984375,0.13372802734375,1,0.98
2020-05-19 13:48:10.202 -0400,1589910488.999256,41.36263016547704,-71.82662819035465,29.80058,10.33265,80.90654754638672,3.468357184946606,4.668515338993553,-9999,3939.342394791667,-0.3268890380859375,0.8157501220703125,0.0974273681640625,1,0.98
2020-05-19 13:48:10.252 -0400,1589910489.999287,41.36264481126326,-71.82650300328105,30.38218,10.40849,80.02930450439453,3.47077069699976,4.666721311760178,-9999,3939.392288791667,-0.3128662109375,0.8809967041015625,0.107757568359375,1,0.98
2020-05-19 13:48:10.301 -0400,1589910489.999287,41.36264481126326,-71.82650300328105,30.38218,10.40849,80.02930450439453,3.47077069699976,4.666721311760178,-9999,3939.442181791667,-0.3275909423828125,1.039901733398438,0.1188507080078125,1,0.98
2020-05-19 13:48:10.351 -0400,1589910489.999287,41.36264481126326,-71.82650300328105,30.38218,10.40849,80.02930450439453,3.47077069699976,4.666721311760178,-9999,3939.492076,-0.39520263671875,1.048126220703125,0.1408843994140625,1,0.98
2020-05-19 13:48:10.401 -0400,1589910489.999287,41.36264481126326,-71.82650300328105,30.38218,10.40849,80.02930450439453,3.47077069699976,4.666721311760178,-9999,3939.541969,-0.3131866455078125,0.8861541748046875,0.153045654296875,1,0.98
2020-05-19 13:48:10.451 -0400,1589910489.999287,41.36264481126326,-71.82650300328105,30.38218,10.40849,80.02930450439453,3.47077069699976,4.666721311760178,-9999,3939.591863,-0.283447265625,0.9028167724609375,0.064697265625,1,0.98
2020-05-19 13:48:10.501 -0400,1589910489.999287,41.36264481126326,-71.82650300328105,30.38218,10.40849,80.02930450439453,3.47077069699976,4.666721311760178,-9999,3939.641756,-0.3356475830078125,0.9653472900390625,0.0446014404296875,1,0.98
2020-05-19 13:48:10.551 -0400,1589910489.999287,41.36264481126326,-71.82650300328105,30.38218,10.40849,80.02930450439453,3.47077069699976,4.666721311760178,-9999,3939.69165,-0.3085784912109375,0.9295654296875,0.0347900390625,1,0.98
2020-05-19 13:48:10.601 -0400,1589910489.999287,41.36264481126326,-71.82650300328105,30.38218,10.40849,80.02930450439453,3.47077069699976,4.666721311760178,-9999,3939.741547,-0.366546630859375,0.9695587158203125,0.065704345703125,1,0.98
2020-05-19 13:48:10.651 -0400,1589910489.999287,41.36264481126326,-71.82650300328105,30.38218,10.40849,80.02930450439453,3.47077069699976,4.666721311760178,-9999,3939.79144,-0.3670501708984375,1.026458740234375,0.04547119140625,1,0.98
2020-05-19 13:48:10.700 -0400,1589910489.999287,41.36264481126326,-71.82650300328105,30.38218,10.40849,80.02930450439453,3.47077069699976,4.666721311760178,-9999,3939.841334,-0.353973388671875,1.054168701171875,0.02691650390625,1,0.98
2020-05-19 13:48:10.750 -0400,1589910489.999287,41.36264481126326,-71.82650300328105,30.38218,10.40849,80.02930450439453,3.47077069699976,4.666721311760178,-9999,3939.891227,-0.41717529296875,1.031784057617188,0.06097412109375,1,0.98
2020-05-19 13:48:10.801 -0400,1589910489.999287,41.36264481126326,-71.82650300328105,30.38218,10.40849,80.02930450439453,3.47077069699976,4.666721311760178,-9999,3939.941119,-0.3595123291015625,0.8524169921875,0.085174560546875,1,0.98
2020-05-19 13:48:10.850 -0400,1589910489.999287,41.36264481126326,-71.82650300328105,30.38218,10.40849,80.02930450439453,3.47077069699976,4.666721311760178,-9999,3939.991013,-0.3657379150390625,0.9411163330078125,0.0714111328125,1,0.98
2020-05-19 13:48:10.900 -0400,1589910489.999287,41.36264481126326,-71.82650300328105,30.38218,10.40849,80.02930450439453,3.47077069699976,4.666721311760178,-9999,3940.040902,-0.3747406005859375,1.006561279296875,0.103790283203125,1,0.98
2020-05-19 13:48:10.950 -0400,1589910489.999287,41.36264481126326,-71.82650300328105,30.38218,10.40849,80.02930450439453,3.47077069699976,4.666721311760178,-9999,3940.090791,-0.3532562255859375,0.8783416748046875,0.0228424072265625,1,0.98
2020-05-19 13:48:11.000 -0400,1589910489.999287,41.36264481126326,-71.82650300328105,30.38218,10.40849,80.02930450439453,3.47077069699976,4.666721311760178,-9999,3940.140682,-0.3665771484375,0.9486846923828125,0.03997802734375,1,0.98
2020-05-19 13:48:11.052 -0400,1589910489.999287,41.36264481126326,-71.82650300328105,30.38218,10.40849,80.02930450439453,3.47077069699976,4.666721311760178,-9999,3940.190573,-0.34344482421875,1.011199951171875,-0.0091705322265625,1,0.98
2020-05-19 13:48:11.100 -0400,1589910489.999287,41.36264481126326,-71.82650300328105,30.38218,10.40849,80.02930450439453,3.47077069699976,4.666721311760178,-9999,3940.240466,-0.3153533935546875,0.911773681640625,0.060089111328125,1,0.98
2020-05-19 13:48:11.149 -0400,1589910489.999287,41.36264481126326,-71.82650300328105,30.38218,10.40849,80.02930450439453,3.47077069699976,4.666721311760178,-9999,3940.290357,-0.3143310546875,0.926605224609375,0.0479888916015625,1,0.98
2020-05-19 13:48:11.199 -0400,1589910489.999287,41.36264481126326,-71.82650300328105,30.38218,10.40849,80.02930450439453,3.47077069699976,4.666721311760178,-9999,3940.340248,-0.2967681884765625,0.8694000244140625,-0.058319091796875,1,0.98
2020-05-19 13:48:11.249 -0400,1589910489.999287,41.36264481126326,-71.82650300328105,30.38218,10.40849,80.02930450439453,3.47077069699976,4.666721311760178,-9999,3940.390139,-0.3079833984375,0.8795013427734375,-0.0543212890625,1,0.98
2020-05-19 13:48:11.299 -0400,1589910489.999287,41.36264481126326,-71.82650300328105,30.38218,10.40849,80.02930450439453,3.47077069699976,4.666721311760178,-9999,3940.440031,-0.302581787109375,0.946136474609375,0.0308990478515625,1,0.98
2020-05-19 13:48:11.349 -0400,1589910490.999313,41.36265803096637,-71.82637050245972,30.97516,10.6573,80.18108367919922,3.475027869424701,4.66355211609246,-9999,3940.489919041667,-0.31793212890625,0.8978424072265625,-0.005645751953125,1,0.98
2020-05-19 13:48:11.399 -0400,1589910490.999313,41.36265803096637,-71.82637050245972,30.97516,10.6573,80.18108367919922,3.475027869424701,4.66355211609246,-9999,3940.539809041667,-0.3376922607421875,0.8876495361328125,-0.023895263671875,1,0.98
2020-05-19 13:48:11.449 -0400,1589910490.999313,41.36265803096637,-71.82637050245972,30.97516,10.6573,80.18108367919922,3.475027869424701,4.66355211609246,-9999,3940.589698041667,-0.31298828125,0.994964599609375,-0.00286865234375,1,0.98
2020-05-19 13:48:11.499 -0400,1589910490.999313,41.36265803096637,-71.82637050245972,30.97516,10.6573,80.18108367919922,3.475027869424701,4.66355211609246,-9999,3940.639586041667,-0.309173583984375,0.9563140869140625,0.0361175537109375,1,0.98
2020-05-19 13:48:11.548 -0400,1589910490.999313,41.36265803096637,-71.82637050245972,30.97516,10.6573,80.18108367919922,3.475027869424701,4.66355211609246,-9999,3940.689473041667,-0.248992919921875,0.745208740234375,0.097747802734375,1,0.98
2020-05-19 13:48:11.598 -0400,1589910490.999313,41.36265803096637,-71.82637050245972,30.97516,10.6573,80.18108367919922,3.475027869424701,4.66355211609246,-9999,3940.739364041667,-0.27020263671875,0.7991790771484375,0.09600830078125,1,0.98
2020-05-19 13:48:11.648 -0400,1589910490.999313,41.36265803096637,-71.82637050245972,30.97516,10.6573,80.18108367919922,3.475027869424701,4.66355211609246,-9999,3940.789254041667,-0.26361083984375,0.900421142578125,-0.0253753662109375,1,0.98
2020-05-19 13:48:11.698 -0400,1589910490.999313,41.36265803096637,-71.82637050245972,30.97516,10.6573,80.18108367919922,3.475027869424701,4.66355211609246,-9999,3940.839142041667,-0.3534393310546875,0.883880615234375,0.0254669189453125,1,0.98
2020-05-19 13:48:11.748 -0400,1589910490.999313,41.36265803096637,-71.82637050245972,30.97516,10.6573,80.18108367919922,3.475027869424701,4.66355211609246,-9999,3940.889034041667,-0.35906982421875,0.9285125732421875,0.0412445068359375,1,0.98
2020-05-19 13:48:11.798 -0400,1589910490.999313,41.36265803096637,-71.82637050245972,30.97516,10.6573,80.18108367919922,3.475027869424701,4.66355211609246,-9999,3940.938923041667,-0.3689422607421875,0.9664459228515625,-0.002960205078125,1,0.98
2020-05-19 13:48:11.848 -0400,1589910490.999313,41.36265803096637,-71.82637050245972,30.97516,10.6573,80.18108367919922,3.475027869424701,4.66355211609246,-9999,3940.988812041667,-0.3822021484375,1.056472778320312,-0.1013336181640625,1,0.98
2020-05-19 13:48:11.898 -0400,1589910490.999313,41.36265803096637,-71.82637050245972,30.97516,10.6573,80.18108367919922,3.475027869424701,4.66355211609246,-9999,3941.038698041667,-0.4510650634765625,1.083953857421875,-0.066741943359375,1,0.98
2020-05-19 13:48:11.948 -0400,1589910490.999313,41.36265803096637,-71.82637050245972,30.97516,10.6573,80.18108367919922,3.475027869424701,4.66355211609246,-9999,3941.088584041667,-0.316162109375,1.092147827148438,0.062652587890625,1,0.98
2020-05-19 13:48:11.998 -0400,1589910490.999313,41.36265803096637,-71.82637050245972,30.97516,10.6573,80.18108367919922,3.475027869424701,4.66355211609246,-9999,3941.138474041667,-0.2684173583984375,0.811676025390625,-0.0158843994140625,1,0.98
2020-05-19 13:48:12.047 -0400,1589910490.999313,41.36265803096637,-71.82637050245972,30.97516,10.6573,80.18108367919922,3.475027869424701,4.66355211609246,-9999,3941.188364041667,-0.2632293701171875,0.8887786865234375,0.0133056640625,1,0.98
2020-05-19 13:48:12.097 -0400,1589910490.999313,41.36265803096637,-71.82637050245972,30.97516,10.6573,80.18108367919922,3.475027869424701,4.66355211609246,-9999,3941.238251041667,-0.2830657958984375,0.9199371337890625,0.02825927734375,1,0.98
2020-05-19 13:48:12.147 -0400,1589910490.999313,41.36265803096637,-71.82637050245972,30.97516,10.6573,80.18108367919922,3.475027869424701,4.66355211609246,-9999,3941.288141041667,-0.3340301513671875,0.89849853515625,0.04510498046875,1,0.98
2020-05-19 13:48:12.197 -0400,1589910490.999313,41.36265803096637,-71.82637050245972,30.97516,10.6573,80.18108367919922,3.475027869424701,4.66355211609246,-9999,3941.338026041667,-0.352325439453125,0.9090423583984375,-0.0002288818359375,1,0.98
2020-05-19 13:48:12.247 -0400,1589910491.999339,41.36267692541274,-71.82623862679101,32.04553,10.9727,80.18108367919922,3.455842500096135,4.677786832180164,-9999,3941.387913041667,-0.332305908203125,0.944427490234375,-0.0290985107421875,1,0.98
2020-05-19 13:48:12.297 -0400,1589910491.999339,41.36267692541274,-71.82623862679101,32.04553,10.9727,80.18108367919922,3.455842500096135,4.677786832180164,-9999,3941.437802041667,-0.3482666015625,0.9521942138671875,0.0636749267578125,1,0.98
2020-05-19 13:48:12.347 -0400,1589910491.999339,41.36267692541274,-71.82623862679101,32.04553,10.9727,80.18108367919922,3.455842500096135,4.677786832180164,-9999,3941.487690916667,-0.32537841796875,0.9420623779296875,0.095947265625,1,0.98
2020-05-19 13:48:12.397 -0400,1589910491.999339,41.36267692541274,-71.82623862679101,32.04553,10.9727,80.18108367919922,3.455842500096135,4.677786832180164,-9999,3941.537577916667,-0.31365966796875,0.9826202392578125,-0.0321502685546875,1,0.98
2020-05-19 13:48:12.447 -0400,1589910491.999339,41.36267692541274,-71.82623862679101,32.04553,10.9727,80.18108367919922,3.455842500096135,4.677786832180164,-9999,3941.587465916667,-0.3576507568359375,0.915740966796875,-0.0352935791015625,1,0.98
2020-05-19 13:48:12.496 -0400,1589910491.999339,41.36267692541274,-71.82623862679101,32.04553,10.9727,80.18108367919922,3.455842500096135,4.677786832180164,-9999,3941.637350916667,-0.322296142578125,1.042678833007812,0.072967529296875,1,0.98
2020-05-19 13:48:12.546 -0400,1589910491.999339,41.36267692541274,-71.82623862679101,32.04553,10.9727,80.18108367919922,3.455842500096135,4.677786832180164,-9999,3941.687237916667,-0.3372802734375,0.913818359375,0.006744384765625,1,0.98
2020-05-19 13:48:12.596 -0400,1589910491.999339,41.36267692541274,-71.82623862679101,32.04553,10.9727,80.18108367919922,3.455842500096135,4.677786832180164,-9999,3941.737122916667,-0.320831298828125,0.8697357177734375,-0.0341949462890625,1,0.98
2020-05-19 13:48:12.646 -0400,1589910491.999339,41.36267692541274,-71.82623862679101,32.04553,10.9727,80.18108367919922,3.455842500096135,4.677786832180164,-9999,3941.787010916667,-0.3596343994140625,1.03125,-0.0169677734375,1,0.98
2020-05-19 13:48:12.697 -0400,1589910491.999339,41.36267692541274,-71.82623862679101,32.04553,10.9727,80.18108367919922,3.455842500096135,4.677786832180164,-9999,3941.836897916667,-0.329559326171875,0.8878936767578125,0.0367431640625,1,0.98
2020-05-19 13:48:12.747 -0400,1589910491.999339,41.36267692541274,-71.82623862679101,32.04553,10.9727,80.18108367919922,3.455842500096135,4.677786832180164,-9999,3941.886783916667,-0.3067169189453125,0.9728546142578125,0.05853271484375,1,0.98
2020-05-19 13:57:26.083 -0400,1589911045.001026,41.3483307527642,-71.7451998022743,24.07135,21.58014,114.8780670166016,3.195378037688663,4.859433735431093,-9999,4495.224170375001,0.10809326171875,-0.5608367919921875,-0.930877685546875,1,0.97
2020-05-19 13:57:26.133 -0400,1589911045.001026,41.3483307527642,-71.7451998022743,24.07135,21.58014,114.8780670166016,3.195378037688663,4.859433735431093,-9999,4495.274063375,-0.0284881591796875,-0.4379425048828125,-0.67926025390625,1,0.97
2020-05-19 13:57:26.183 -0400,1589911045.001026,41.3483307527642,-71.7451998022743,24.07135,21.58014,114.8780670166016,3.195378037688663,4.859433735431093,-9999,4495.323951375,0.127655029296875,-0.43170166015625,-0.765045166015625,1,0.97
2020-05-19 13:57:26.232 -0400,1589911046.001041,41.34824643172077,-71.74497719712151,23.9609,21.39758,114.8780670166016,3.201844732758045,4.855175315073432,-9999,4495.373841375001,0.0279083251953125,-0.5557708740234375,-0.8153533935546875,1,0.97
2020-05-19 13:57:26.282 -0400,1589911046.001041,41.34824643172077,-71.74497719712151,23.9609,21.39758,114.8780670166016,3.201844732758045,4.855175315073432,-9999,4495.423730375001,0.0786895751953125,-0.5753173828125,-1.096237182617188,1,0.97
2020-05-19 13:57:26.332 -0400,1589911046.001041,41.34824643172077,-71.74497719712151,23.9609,21.39758,114.8780670166016,3.201844732758045,4.855175315073432,-9999,4495.473618375,0.0724945068359375,-0.5707855224609375,-0.8766021728515625,1,0.97
2020-05-19 13:57:26.382 -0400,1589911046.001041,41.34824643172077,-71.74497719712151,23.9609,21.39758,114.8780670166016,3.201844732758045,4.855175315073432,-9999,4495.523505375,0.1168975830078125,-0.5058441162109375,-0.9982757568359375,1,0.97
2020-05-19 13:57:26.432 -0400,1589911046.001041,41.34824643172077,-71.74497719712151,23.9609,21.39758,114.8780670166016,3.201844732758045,4.855175315073432,-9999,4495.573394375,0.07086181640625,-0.537750244140625,-0.879730224609375,1,0.97
2020-05-19 13:57:26.482 -0400,1589911046.001041,41.34824643172077,-71.74497719712151,23.9609,21.39758,114.8780670166016,3.201844732758045,4.855175315073432,-9999,4495.623285375001,0.0486602783203125,-0.5021209716796875,-0.7410125732421875,1,0.97
2020-05-19 13:57:26.532 -0400,1589911046.001041,41.34824643172077,-71.74497719712151,23.9609,21.39758,114.8780670166016,3.201844732758045,4.855175315073432,-9999,4495.673174375001,0.0990447998046875,-0.45123291015625,-0.7833099365234375,1,0.97
2020-05-19 13:57:26.582 -0400,1589911046.001041,41.34824643172077,-71.74497719712151,23.9609,21.39758,114.8780670166016,3.201844732758045,4.855175315073432,-9999,4495.723063375,0.1259765625,-0.51275634765625,-0.7619476318359375,1,0.97
2020-05-19 13:57:26.632 -0400,1589911046.001041,41.34824643172077,-71.74497719712151,23.9609,21.39758,114.8780670166016,3.201844732758045,4.855175315073432,-9999,4495.772952375,0.060546875,-0.4871978759765625,-0.8812408447265625,1,0.97
2020-05-19 13:57:26.682 -0400,1589911046.001041,41.34824643172077,-71.74497719712151,23.9609,21.39758,114.8780670166016,3.201844732758045,4.855175315073432,-9999,4495.822840375,0.1132049560546875,-0.5303802490234375,-0.834381103515625,1,0.97
2020-05-19 13:57:26.731 -0400,1589911046.001041,41.34824643172077,-71.74497719712151,23.9609,21.39758,114.8780670166016,3.201844732758045,4.855175315073432,-9999,4495.872730375,0.1095123291015625,-0.5603485107421875,-0.8544464111328125,1,0.97
2020-05-19 13:57:26.781 -0400,1589911046.001041,41.34824643172077,-71.74497719712151,23.9609,21.39758,114.8780670166016,3.201844732758045,4.855175315073432,-9999,4495.922616375,0.0776519775390625,-0.5136260986328125,-0.8367919921875,1,0.97
2020-05-19 13:57:26.834 -0400,1589911046.001041,41.34824643172077,-71.74497719712151,23.9609,21.39758,114.8780670166016,3.201844732758045,4.855175315073432,-9999,4495.972505375,0.04705810546875,-0.5135040283203125,-0.7880706787109375,1,0.97
2020-05-19 13:57:26.881 -0400,1589911046.001041,41.34824643172077,-71.74497719712151,23.9609,21.39758,114.8780670166016,3.201844732758045,4.855175315073432,-9999,4496.022391375001,0.1395416259765625,-0.5612335205078125,-0.93115234375,1,0.97
