loggingTime(txt),locationTimestamp_since1970(s),locationLatitude(WGS84),locationLongitude(WGS84),locationAltitude(m),locationSpeed(m/s),locationCourse(°),locationVerticalAccuracy(m),locationHorizontalAccuracy(m),locationFloor(Z),accelerometerTimestamp_sinceReboot(s),accelerometerAccelerationX(G),accelerometerAccelerationY(G),accelerometerAccelerationZ(G),batteryState,batteryLevel
2020-05-19 09:50:16.521 -0400,1589896216.001311,41.35200724640085,-71.84498788466253,14.26752,0.022177,18.16490187729181,14.50229123912417,7.650501278413772,-9999,63282.10170675001,-0.739654541015625,-0.6643524169921875,-0.0829620361328125,1,0.84
2020-05-19 09:50:16.556 -0400,1589896216.001311,41.35200724640085,-71.84498788466253,14.26752,0.022177,18.16490187729181,14.50229123912417,7.650501278413772,-9999,63282.15160075,-0.7360076904296875,-0.6691741943359375,-0.079925537109375,1,0.84
2020-05-19 09:50:16.606 -0400,1589896216.001311,41.35200724640085,-71.84498788466253,14.26752,0.022177,18.16490187729181,14.50229123912417,7.650501278413772,-9999,63282.20148875,-0.7352294921875,-0.672576904296875,-0.0846405029296875,1,0.84
2020-05-19 09:50:16.656 -0400,1589896216.001311,41.35200724640085,-71.84498788466253,14.26752,0.022177,18.16490187729181,14.50229123912417,7.650501278413772,-9999,63282.25138075001,-0.732421875,-0.699981689453125,-0.0778350830078125,1,0.84
2020-05-19 09:50:16.706 -0400,1589896216.001311,41.35200724640085,-71.84498788466253,14.26752,0.022177,18.16490187729181,14.50229123912417,7.650501278413772,-9999,63282.30127475,-0.72943115234375,-0.672637939453125,-0.0524444580078125,1,0.84
2020-05-19 09:50:16.755 -0400,1589896216.001311,41.35200724640085,-71.84498788466253,14.26752,0.022177,18.16490187729181,14.50229123912417,7.650501278413772,-9999,63282.35116775001,-0.7434234619140625,-0.686767578125,-0.0545196533203125,1,0.84
2020-05-19 09:50:16.805 -0400,1589896216.001311,41.35200724640085,-71.84498788466253,14.26752,0.022177,18.16490187729181,14.50229123912417,7.650501278413772,-9999,63282.40105975,-0.61846923828125,-0.68353271484375,-0.008453369140625,1,0.84
2020-05-19 09:50:16.855 -0400,1589896216.001311,41.35200724640085,-71.84498788466253,14.26752,0.022177,18.16490187729181,14.50229123912417,7.650501278413772,-9999,63282.45095175,-0.6527099609375,-0.7024688720703125,0.0370025634765625,1,0.84
2020-05-19 09:50:16.905 -0400,1589896216.001311,41.35200724640085,-71.84498788466253,14.26752,0.022177,18.16490187729181,14.50229123912417,7.650501278413772,-9999,63282.50084275001,-0.6707611083984375,-0.70623779296875,-0.0041046142578125,1,0.84
2020-05-19 09:50:16.955 -0400,1589896216.001311,41.35200724640085,-71.84498788466253,14.26752,0.022177,18.16490187729181,14.50229123912417,7.650501278413772,-9999,63282.55073075,-0.7434234619140625,-0.6441802978515625,-0.0836181640625,1,0.84
2020-05-19 09:50:17.005 -0400,1589896216.001311,41.35200724640085,-71.84498788466253,14.26752,0.022177,18.16490187729181,14.50229123912417,7.650501278413772,-9999,63282.60062075,-0.6869964599609375,-0.594696044921875,-0.127471923828125,1,0.84
2020-05-19 09:50:17.055 -0400,1589896216.001311,41.35200724640085,-71.84498788466253,14.26752,0.022177,18.16490187729181,14.50229123912417,7.650501278413772,-9999,63282.65051275001,-0.7071075439453125,-0.54534912109375,-0.16815185546875,1,0.84
2020-05-19 09:50:17.105 -0400,1589896216.001311,41.35200724640085,-71.84498788466253,14.26752,0.022177,18.16490187729181,14.50229123912417,7.650501278413772,-9999,63282.70040675,-0.686187744140625,-0.4944000244140625,-0.1485443115234375,1,0.84
2020-05-19 09:50:17.155 -0400,1589896216.001311,41.35200724640085,-71.84498788466253,14.26752,0.022177,18.16490187729181,14.50229123912417,7.650501278413772,-9999,63282.75029975001,-0.7594451904296875,-0.4672698974609375,-0.1970367431640625,1,0.84
2020-05-19 09:50:17.205 -0400,1589896216.001311,41.35200724640085,-71.84498788466253,14.26752,0.022177,18.16490187729181,14.50229123912417,7.650501278413772,-9999,63282.80019375,-0.7706298828125,-0.420684814453125,-0.335723876953125,1,0.84
2020-05-19 09:50:17.254 -0400,1589896216.001311,41.35200724640085,-71.84498788466253,14.26752,0.022177,18.16490187729181,14.50229123912417,7.650501278413772,-9999,63282.85008775,-0.8271026611328125,-0.383697509765625,-0.427093505859375,1,0.84
2020-05-19 09:50:17.304 -0400,1589896217.001241,41.35200705666843,-71.84498796727804,14.26752,0,18.16490182270912,24.10280776180065,12.93773758048046,-9999,63282.89997975001,-0.816162109375,-0.248321533203125,-0.6213226318359375,1,0.84
2020-05-19 09:50:17.354 -0400,1589896217.001241,41.35200705666843,-71.84498796727804,14.26752,0,18.16490182270912,24.10280776180065,12.93773758048046,-9999,63282.94987212501,-0.709716796875,-0.27838134765625,-0.6314544677734375,1,0.84
2020-05-19 09:50:17.404 -0400,1589896217.001241,41.35200705666843,-71.84498796727804,14.26752,0,18.16490182270912,24.10280776180065,12.93773758048046,-9999,63282.999765125,-0.81884765625,-0.0514373779296875,-0.8169097900390625,1,0.84
2020-05-19 09:50:17.454 -0400,1589896217.001241,41.35200705666843,-71.84498796727804,14.26752,0,18.16490182270912,24.10280776180065,12.93773758048046,-9999,63283.049657125,-0.837127685546875,0.0970458984375,-0.78021240234375,1,0.84
2020-05-19 09:50:17.504 -0400,1589896217.001241,41.35200705666843,-71.84498796727804,14.26752,0,18.16490182270912,24.10280776180065,12.93773758048046,-9999,63283.09954912501,-0.7944488525390625,0.1490631103515625,-0.86639404296875,1,0.84
2020-05-19 09:50:17.554 -0400,1589896217.001241,41.35200705666843,-71.84498796727804,14.26752,0,18.16490182270912,24.10280776180065,12.93773758048046,-9999,63283.149440125,-0.6680908203125,0.091461181640625,-0.962493896484375,1,0.84
2020-05-19 09:50:17.604 -0400,1589896217.001241,41.35200705666843,-71.84498796727804,14.26752,0,18.16490182270912,24.10280776180065,12.93773758048046,-9999,63283.199330125,-0.5868988037109375,-0.1134490966796875,-0.8021240234375,1,0.84
2020-05-19 09:50:17.653 -0400,1589896217.001241,41.35200705666843,-71.84498796727804,14.26752,0,18.16490182270912,24.10280776180065,12.93773758048046,-9999,63283.24922412501,-0.6416473388671875,0.0824432373046875,-0.741424560546875,1,0.84
2020-05-19 09:50:17.704 -0400,1589896217.001241,41.35200705666843,-71.84498796727804,14.26752,0,18.16490182270912,24.10280776180065,12.93773758048046,-9999,63283.299117125,-0.7007293701171875,0.189697265625,-0.7131500244140625,1,0.84
2020-05-19 09:50:17.754 -0400,1589896217.001241,41.35200705666843,-71.84498796727804,14.26752,0,18.16490182270912,24.10280776180065,12.93773758048046,-9999,63283.349006125,-0.7022552490234375,0.2337799072265625,-0.745941162109375,1,0.84
2020-05-19 09:50:17.803 -0400,1589896217.001241,41.35200705666843,-71.84498796727804,14.26752,0,18.16490182270912,24.10280776180065,12.93773758048046,-9999,63283.398900125,-0.586395263671875,0.1885223388671875,-0.826324462890625,1,0.84
2020-05-19 09:50:17.853 -0400,1589896217.001241,41.35200705666843,-71.84498796727804,14.26752,0,18.16490182270912,24.10280776180065,12.93773758048046,-9999,63283.448792125,-0.588043212890625,0.102996826171875,-0.7635955810546875,1,0.84
2020-05-19 09:50:17.903 -0400,1589896217.001241,41.35200705666843,-71.84498796727804,14.26752,0,18.16490182270912,24.10280776180065,12.93773758048046,-9999,63283.49868612501,-0.6634063720703125,0.146453857421875,-0.6792755126953125,1,0.84
2020-05-19 09:50:17.953 -0400,1589896217.001241,41.35200705666843,-71.84498796727804,14.26752,0,18.16490182270912,24.10280776180065,12.93773758048046,-9999,63283.548581125,-0.8257598876953125,0.100311279296875,-0.58038330078125,1,0.84
2020-05-19 09:50:18.003 -0400,1589896217.001241,41.35200705666843,-71.84498796727804,14.26752,0,18.16490182270912,24.10280776180065,12.93773758048046,-9999,63283.59847612501,-0.6994781494140625,0.103851318359375,-0.8023223876953125,1,0.84
2020-05-19 09:50:18.053 -0400,1589896217.001241,41.35200705666843,-71.84498796727804,14.26752,0,18.16490182270912,24.10280776180065,12.93773758048046,-9999,63283.648370125,-0.7071075439453125,-0.1033477783203125,-0.6638031005859375,1,0.84
2020-05-19 09:50:18.103 -0400,1589896217.001241,41.35200705666843,-71.84498796727804,14.26752,0,18.16490182270912,24.10280776180065,12.93773758048046,-9999,63283.69826312501,-0.7521209716796875,0.461761474609375,-0.5363311767578125,1,0.84
2020-05-19 09:50:18.153 -0400,1589896217.001241,41.35200705666843,-71.84498796727804,14.26752,0,18.16490182270912,24.10280776180065,12.93773758048046,-9999,63283.748156125,-0.671112060546875,0.6378326416015625,-0.57269287109375,1,0.84
2020-05-19 09:50:18.210 -0400,1589896217.001241,41.35200705666843,-71.84498796727804,14.26752,0,18.16490182270912,24.10280776180065,12.93773758048046,-9999,63283.798047125,-0.5975189208984375,0.4995574951171875,-0.6040496826171875,1,0.84
2020-05-19 09:50:18.253 -0400,1589896218.001181,41.35200705666843,-71.84498796727804,14.26752,0,18.16490182270912,11.84066114934106,6.293103961783975,-9999,63283.84793512501,-0.7158355712890625,0.4378204345703125,-0.3490142822265625,1,0.84
2020-05-19 09:50:18.303 -0400,1589896218.001181,41.35200705666843,-71.84498796727804,14.26752,0,18.16490182270912,11.84066114934106,6.293103961783975,-9999,63283.897826125,-0.6259002685546875,0.430389404296875,-0.676605224609375,1,0.84
2020-05-19 09:50:18.352 -0400,1589896218.001181,41.35200705666843,-71.84498796727804,14.26752,0,18.16490182270912,11.84066114934106,6.293103961783975,-9999,63283.947716875,-0.63604736328125,0.466583251953125,-0.5244140625,1,0.84
2020-05-19 09:50:18.402 -0400,1589896218.001181,41.35200705666843,-71.84498796727804,14.26752,0,18.16490182270912,11.84066114934106,6.293103961783975,-9999,63283.997607875,-0.6844635009765625,0.6082763671875,-0.6297607421875,1,0.84
2020-05-19 09:50:18.452 -0400,1589896218.001181,41.35200705666843,-71.84498796727804,14.26752,0,18.16490182270912,11.84066114934106,6.293103961783975,-9999,63284.04749787501,-0.7177886962890625,0.5255126953125,-0.4185791015625,1,0.84
2020-05-19 09:50:18.502 -0400,1589896218.001181,41.35200705666843,-71.84498796727804,14.26752,0,18.16490182270912,11.84066114934106,6.293103961783975,-9999,63284.097386875,-0.704132080078125,0.499908447265625,-0.5493316650390625,1,0.84
2020-05-19 09:50:18.552 -0400,1589896218.001181,41.35200705666843,-71.84498796727804,14.26752,0,18.16490182270912,11.84066114934106,6.293103961783975,-9999,63284.147275875,-0.6075286865234375,0.6907958984375,-0.8297882080078125,1,0.84
2020-05-19 09:50:18.602 -0400,1589896218.001181,41.35200705666843,-71.84498796727804,14.26752,0,18.16490182270912,11.84066114934106,6.293103961783975,-9999,63284.197160875,-0.7219696044921875,0.5313262939453125,-0.5521240234375,1,0.84
2020-05-19 09:50:18.652 -0400,1589896218.001181,41.35200705666843,-71.84498796727804,14.26752,0,18.16490182270912,11.84066114934106,6.293103961783975,-9999,63284.247048875,-0.7373809814453125,0.4080963134765625,-0.65875244140625,1,0.84
2020-05-19 09:50:18.710 -0400,1589896218.001181,41.35200705666843,-71.84498796727804,14.26752,0,18.16490182270912,11.84066114934106,6.293103961783975,-9999,63284.29693787501,-0.65167236328125,0.5355682373046875,-0.618316650390625,1,0.84
2020-05-19 09:50:18.752 -0400,1589896218.001181,41.35200705666843,-71.84498796727804,14.26752,0,18.16490182270912,11.84066114934106,6.293103961783975,-9999,63284.34682587501,-0.7169036865234375,0.3271636962890625,-0.467041015625,1,0.84
2020-05-19 09:50:18.802 -0400,1589896218.001181,41.35200705666843,-71.84498796727804,14.26752,0,18.16490182270912,11.84066114934106,6.293103961783975,-9999,63284.396712875,-0.6571502685546875,0.4483642578125,-0.61529541015625,1,0.84
2020-05-19 09:50:18.852 -0400,1589896218.001181,41.35200705666843,-71.84498796727804,14.26752,0,18.16490182270912,11.84066114934106,6.293103961783975,-9999,63284.446600875,-0.7300567626953125,0.5744171142578125,-0.5073089599609375,1,0.84
2020-05-19 09:50:18.901 -0400,1589896218.001181,41.35200705666843,-71.84498796727804,14.26752,0,18.16490182270912,11.84066114934106,6.293103961783975,-9999,63284.496485875,-0.673492431640625,0.5053558349609375,-0.5417022705078125,1,0.84
2020-05-19 09:50:18.951 -0400,1589896218.001181,41.35200705666843,-71.84498796727804,14.26752,0,18.16490182270912,11.84066114934106,6.293103961783975,-9999,63284.546372875,-0.718017578125,0.490966796875,-0.546417236328125,1,0.84
2020-05-19 09:50:19.001 -0400,1589896218.001181,41.35200705666843,-71.84498796727804,14.26752,0,18.16490182270912,11.84066114934106,6.293103961783975,-9999,63284.59626587501,-0.7426910400390625,0.4956207275390625,-0.59136962890625,1,0.84
2020-05-19 09:50:19.051 -0400,1589896218.001181,41.35200705666843,-71.84498796727804,14.26752,0,18.16490182270912,11.84066114934106,6.293103961783975,-9999,63284.646155875,-0.6905059814453125,0.3308563232421875,-0.5750885009765625,1,0.84
2020-05-19 09:50:19.101 -0400,1589896218.001181,41.35200705666843,-71.84498796727804,14.26752,0,18.16490182270912,11.84066114934106,6.293103961783975,-9999,63284.696045875,-0.6867828369140625,0.3345947265625,-0.5977783203125,1,0.84
2020-05-19 09:50:19.151 -0400,1589896218.001181,41.35200705666843,-71.84498796727804,14.26752,0,18.16490182270912,11.84066114934106,6.293103961783975,-9999,63284.745933875,-0.7112884521484375,0.352264404296875,-0.6128082275390625,1,0.84
2020-05-19 09:50:19.210 -0400,1589896218.001181,41.35200705666843,-71.84498796727804,14.26752,0,18.16490182270912,11.84066114934106,6.293103961783975,-9999,63284.79582187501,-0.743896484375,0.3729400634765625,-0.605133056640625,1,0.84
2020-05-19 09:50:19.251 -0400,1589896219.001112,41.35200172525707,-71.84498722803224,14.50995,0.02704966,122.295484733302,26.32251511798673,13.81062493810976,-9999,63284.845709875,-0.731109619140625,0.3367919921875,-0.5424957275390625,1,0.84
2020-05-19 09:50:19.300 -0400,1589896219.001112,41.35200172525707,-71.84498722803224,14.50995,0.02704966,122.295484733302,26.32251511798673,13.81062493810976,-9999,63284.895595875,-0.680145263671875,0.312408447265625,-0.6295166015625,1,0.84
2020-05-19 09:50:19.350 -0400,1589896219.001112,41.35200172525707,-71.84498722803224,14.50995,0.02704966,122.295484733302,26.32251511798673,13.81062493810976,-9999,63284.945483,-0.6910400390625,0.309722900390625,-0.600250244140625,1,0.84
2020-05-19 09:50:19.400 -0400,1589896219.001112,41.35200172525707,-71.84498722803224,14.50995,0.02704966,122.295484733302,26.32251511798673,13.81062493810976,-9999,63284.99537,-0.808929443359375,0.27777099609375,-0.624603271484375,1,0.84
2020-05-19 09:50:19.450 -0400,1589896219.001112,41.35200172525707,-71.84498722803224,14.50995,0.02704966,122.295484733302,26.32251511798673,13.81062493810976,-9999,63285.04525800001,-0.7104339599609375,0.21417236328125,-0.6135711669921875,1,0.84
2020-05-19 09:50:19.500 -0400,1589896219.001112,41.35200172525707,-71.84498722803224,14.50995,0.02704966,122.295484733302,26.32251511798673,13.81062493810976,-9999,63285.09514400001,-0.7412567138671875,0.31927490234375,-0.546234130859375,1,0.84
2020-05-19 09:50:19.550 -0400,1589896219.001112,41.35200172525707,-71.84498722803224,14.50995,0.02704966,122.295484733302,26.32251511798673,13.81062493810976,-9999,63285.14503100001,-0.7310791015625,0.33795166015625,-0.660491943359375,1,0.84
2020-05-19 09:50:19.600 -0400,1589896219.001112,41.35200172525707,-71.84498722803224,14.50995,0.02704966,122.295484733302,26.32251511798673,13.81062493810976,-9999,63285.194916,-0.669769287109375,0.242431640625,-0.684967041015625,1,0.84
2020-05-19 09:50:19.650 -0400,1589896219.001112,41.35200172525707,-71.84498722803224,14.50995,0.02704966,122.295484733302,26.32251511798673,13.81062493810976,-9999,63285.244805,-0.7541351318359375,0.3245391845703125,-0.5526123046875,1,0.84
2020-05-19 09:50:19.709 -0400,1589896219.001112,41.35200172525707,-71.84498722803224,14.50995,0.02704966,122.295484733302,26.32251511798673,13.81062493810976,-9999,63285.294689,-0.7772369384765625,0.33905029296875,-0.5860748291015625,1,0.84
2020-05-19 09:50:19.750 -0400,1589896219.001112,41.35200172525707,-71.84498722803224,14.50995,0.02704966,122.295484733302,26.32251511798673,13.81062493810976,-9999,63285.344577,-0.6796417236328125,0.2905120849609375,-0.7089691162109375,1,0.84
2020-05-19 09:50:19.799 -0400,1589896219.001112,41.35200172525707,-71.84498722803224,14.50995,0.02704966,122.295484733302,26.32251511798673,13.81062493810976,-9999,63285.394463,-0.72503662109375,0.322662353515625,-0.63702392578125,1,0.84
2020-05-19 09:50:19.849 -0400,1589896219.001112,41.35200172525707,-71.84498722803224,14.50995,0.02704966,122.295484733302,26.32251511798673,13.81062493810976,-9999,63285.444349,-0.7162017822265625,0.2737884521484375,-0.6218109130859375,1,0.84
2020-05-19 09:50:19.899 -0400,1589896219.001112,41.35200172525707,-71.84498722803224,14.50995,0.02704966,122.295484733302,26.32251511798673,13.81062493810976,-9999,63285.49423600001,-0.7161865234375,0.3031158447265625,-0.62457275390625,1,0.84
2020-05-19 09:50:19.949 -0400,1589896219.001112,41.35200172525707,-71.84498722803224,14.50995,0.02704966,122.295484733302,26.32251511798673,13.81062493810976,-9999,63285.54412200001,-0.71624755859375,0.285675048828125,-0.6417236328125,1,0.84
2020-05-19 09:50:19.999 -0400,1589896219.001112,41.35200172525707,-71.84498722803224,14.50995,0.02704966,122.295484733302,26.32251511798673,13.81062493810976,-9999,63285.594012,-0.72271728515625,0.2934112548828125,-0.614410400390625,1,0.84
2020-05-19 09:50:20.049 -0400,1589896219.001112,41.35200172525707,-71.84498722803224,14.50995,0.02704966,122.295484733302,26.32251511798673,13.81062493810976,-9999,63285.643905,-0.7212066650390625,0.31268310546875,-0.6414947509765625,1,0.84
2020-05-19 09:50:20.099 -0400,1589896219.001112,41.35200172525707,-71.84498722803224,14.50995,0.02704966,122.295484733302,26.32251511798673,13.81062493810976,-9999,63285.69379600001,-0.723480224609375,0.290985107421875,-0.620361328125,1,0.84
2020-05-19 09:50:20.149 -0400,1589896219.001112,41.35200172525707,-71.84498722803224,14.50995,0.02704966,122.295484733302,26.32251511798673,13.81062493810976,-9999,63285.743684,-0.7272186279296875,0.269378662109375,-0.619964599609375,1,0.84
2020-05-19 09:50:20.210 -0400,1589896219.001112,41.35200172525707,-71.84498722803224,14.50995,0.02704966,122.295484733302,26.32251511798673,13.81062493810976,-9999,63285.793571,-0.69970703125,0.2970428466796875,-0.6573028564453125,1,0.84
2020-05-19 09:50:20.248 -0400,1589896219.001112,41.35200172525707,-71.84498722803224,14.50995,0.02704966,122.295484733302,26.32251511798673,13.81062493810976,-9999,63285.843458,-0.730194091796875,0.3084564208984375,-0.6263275146484375,1,0.84
2020-05-19 09:50:20.298 -0400,1589896219.001112,41.35200172525707,-71.84498722803224,14.50995,0.02704966,122.295484733302,26.32251511798673,13.81062493810976,-9999,63285.893347,-0.726898193359375,0.305267333984375,-0.6242218017578125,1,0.84
2020-05-19 09:50:20.348 -0400,1589896219.001112,41.35200172525707,-71.84498722803224,14.50995,0.02704966,122.295484733302,26.32251511798673,13.81062493810976,-9999,63285.9432325,-0.711334228515625,0.30914306640625,-0.6485595703125,1,0.84
2020-05-19 09:50:20.398 -0400,1589896220.001058,41.3520066583248,-71.84497812757677,14.60817,0.09783676,152.0451625346926,16.64326385533296,8.563977021339905,-9999,63285.9931215,-0.7279510498046875,0.2933502197265625,-0.625244140625,1,0.84
2020-05-19 09:50:20.448 -0400,1589896220.001058,41.3520066583248,-71.84497812757677,14.60817,0.09783676,152.0451625346926,16.64326385533296,8.563977021339905,-9999,63286.0430095,-0.7138214111328125,0.2657470703125,-0.6501922607421875,1,0.84
2020-05-19 09:50:20.498 -0400,1589896220.001058,41.3520066583248,-71.84497812757677,14.60817,0.09783676,152.0451625346926,16.64326385533296,8.563977021339905,-9999,63286.09289650001,-0.7139892578125,0.29315185546875,-0.6478424072265625,1,0.84
2020-05-19 09:50:20.548 -0400,1589896220.001058,41.3520066583248,-71.84497812757677,14.60817,0.09783676,152.0451625346926,16.64326385533296,8.563977021339905,-9999,63286.14278450001,-0.73760986328125,0.294921875,-0.616607666015625,1,0.84
2020-05-19 09:50:20.598 -0400,1589896220.001058,41.3520066583248,-71.84497812757677,14.60817,0.09783676,152.0451625346926,16.64326385533296,8.563977021339905,-9999,63286.1926735,-0.7132720947265625,0.268707275390625,-0.6602630615234375,1,0.84
2020-05-19 09:50:20.647 -0400,1589896220.001058,41.3520066583248,-71.84497812757677,14.60817,0.09783676,152.0451625346926,16.64326385533296,8.563977021339905,-9999,63286.2425655,-0.72833251953125,0.2855682373046875,-0.6156768798828125,1,0.84
2020-05-19 09:50:20.709 -0400,1589896220.001058,41.3520066583248,-71.84497812757677,14.60817,0.09783676,152.0451625346926,16.64326385533296,8.563977021339905,-9999,63286.29245750001,-0.7048797607421875,0.27447509765625,-0.664306640625,1,0.84
2020-05-19 09:50:20.747 -0400,1589896220.001058,41.3520066583248,-71.84497812757677,14.60817,0.09783676,152.0451625346926,16.64326385533296,8.563977021339905,-9999,63286.3423445,-0.7296142578125,0.263427734375,-0.63165283203125,1,0.84
2020-05-19 09:50:20.797 -0400,1589896220.001058,41.3520066583248,-71.84497812757677,14.60817,0.09783676,152.0451625346926,16.64326385533296,8.563977021339905,-9999,63286.3922345,-0.7161407470703125,0.2485198974609375,-0.6470184326171875,1,0.84
2020-05-19 09:50:20.847 -0400,1589896220.001058,41.3520066583248,-71.84497812757677,14.60817,0.09783676,152.0451625346926,16.64326385533296,8.563977021339905,-9999,63286.4421225,-0.6938934326171875,0.2515106201171875,-0.67926025390625,1,0.84
2020-05-19 09:50:20.897 -0400,1589896220.001058,41.3520066583248,-71.84497812757677,14.60817,0.09783676,152.0451625346926,16.64326385533296,8.563977021339905,-9999,63286.49201050001,-0.738006591796875,0.2810516357421875,-0.6146087646484375,1,0.84
2020-05-19 09:50:20.947 -0400,1589896220.001058,41.3520066583248,-71.84497812757677,14.60817,0.09783676,152.0451625346926,16.64326385533296,8.563977021339905,-9999,63286.54189650001,-0.7095184326171875,0.2759552001953125,-0.6719207763671875,1,0.84
2020-05-19 09:50:20.997 -0400,1589896220.001058,41.3520066583248,-71.84497812757677,14.60817,0.09783676,152.0451625346926,16.64326385533296,8.563977021339905,-9999,63286.59178250001,-0.715850830078125,0.262420654296875,-0.6470794677734375,1,0.84
2020-05-19 09:50:21.046 -0400,1589896220.001058,41.3520066583248,-71.84497812757677,14.60817,0.09783676,152.0451625346926,16.64326385533296,8.563977021339905,-9999,63286.6416695,-0.722686767578125,0.2437286376953125,-0.64727783203125,1,0.84
2020-05-19 09:50:21.096 -0400,1589896220.001058,41.3520066583248,-71.84497812757677,14.60817,0.09783676,152.0451625346926,16.64326385533296,8.563977021339905,-9999,63286.6915565,-0.71258544921875,0.24981689453125,-0.6541290283203125,1,0.84
2020-05-19 09:50:21.146 -0400,1589896220.001058,41.3520066583248,-71.84497812757677,14.60817,0.09783676,152.0451625346926,16.64326385533296,8.563977021339905,-9999,63286.7414415,-0.7158966064453125,0.2493743896484375,-0.64752197265625,1,0.84
2020-05-19 09:50:21.205 -0400,1589896220.001058,41.3520066583248,-71.84497812757677,14.60817,0.09783676,152.0451625346926,16.64326385533296,8.563977021339905,-9999,63286.7913285,-0.7226409912109375,0.2692413330078125,-0.6404876708984375,1,0.84
2020-05-19 09:50:21.246 -0400,1589896221.001001,41.35201069379446,-71.84497243214945,14.80359,0.09854494,208.4840165162717,17.75107602615097,9.767033524892309,-9999,63286.8412155,-0.7176666259765625,0.2738494873046875,-0.641265869140625,1,0.84
2020-05-19 09:50:21.296 -0400,1589896221.001001,41.35201069379446,-71.84497243214945,14.80359,0.09854494,208.4840165162717,17.75107602615097,9.767033524892309,-9999,63286.8911015,-0.71807861328125,0.2710113525390625,-0.652191162109375,1,0.84
2020-05-19 09:50:21.346 -0400,1589896221.001001,41.35201069379446,-71.84497243214945,14.80359,0.09854494,208.4840165162717,17.75107602615097,9.767033524892309,-9999,63286.940987375,-0.71075439453125,0.2713623046875,-0.6428985595703125,1,0.84
2020-05-19 09:50:21.396 -0400,1589896221.001001,41.35201069379446,-71.84497243214945,14.80359,0.09854494,208.4840165162717,17.75107602615097,9.767033524892309,-9999,63286.990871375,-0.730743408203125,0.2987823486328125,-0.6314697265625,1,0.84
2020-05-19 09:50:21.446 -0400,1589896221.001001,41.35201069379446,-71.84497243214945,14.80359,0.09854494,208.4840165162717,17.75107602615097,9.767033524892309,-9999,63287.04076137501,-0.7236480712890625,0.2965850830078125,-0.6278533935546875,1,0.84
2020-05-19 09:50:21.495 -0400,1589896221.001001,41.35201069379446,-71.84497243214945,14.80359,0.09854494,208.4840165162717,17.75107602615097,9.767033524892309,-9999,63287.09064737501,-0.7122955322265625,0.2729339599609375,-0.6593780517578125,1,0.84
2020-05-19 09:50:21.546 -0400,1589896221.001001,41.35201069379446,-71.84497243214945,14.80359,0.09854494,208.4840165162717,17.75107602615097,9.767033524892309,-9999,63287.140535375,-0.7283477783203125,0.275177001953125,-0.6420135498046875,1,0.84
2020-05-19 09:50:21.595 -0400,1589896221.001001,41.35201069379446,-71.84497243214945,14.80359,0.09854494,208.4840165162717,17.75107602615097,9.767033524892309,-9999,63287.190422375,-0.6872100830078125,0.2103118896484375,-0.64727783203125,1,0.84
2020-05-19 09:50:21.645 -0400,1589896221.001001,41.35201069379446,-71.84497243214945,14.80359,0.09854494,208.4840165162717,17.75107602615097,9.767033524892309,-9999,63287.240309375,-0.736968994140625,0.304443359375,-0.6322784423828125,1,0.84
2020-05-19 09:50:21.709 -0400,1589896221.001001,41.35201069379446,-71.84497243214945,14.80359,0.09854494,208.4840165162717,17.75107602615097,9.767033524892309,-9999,63287.290196375,-0.725189208984375,0.3298797607421875,-0.63421630859375,1,0.84
2020-05-19 09:50:21.745 -0400,1589896221.001001,41.35201069379446,-71.84497243214945,14.80359,0.09854494,208.4840165162717,17.75107602615097,9.767033524892309,-9999,63287.34008337501,-0.7208709716796875,0.3223724365234375,-0.648529052734375,1,0.84
2020-05-19 09:50:21.795 -0400,1589896221.001001,41.35201069379446,-71.84497243214945,14.80359,0.09854494,208.4840165162717,17.75107602615097,9.767033524892309,-9999,63287.38997237501,-0.71527099609375,0.2675933837890625,-0.64495849609375,1,0.84
2020-05-19 09:50:21.845 -0400,1589896221.001001,41.35201069379446,-71.84497243214945,14.80359,0.09854494,208.4840165162717,17.75107602615097,9.767033524892309,-9999,63287.439862375,-0.7088470458984375,0.2740325927734375,-0.64019775390625,1,0.84
2020-05-19 09:50:21.894 -0400,1589896221.001001,41.35201069379446,-71.84497243214945,14.80359,0.09854494,208.4840165162717,17.75107602615097,9.767033524892309,-9999,63287.489750375,-0.7148895263671875,0.2681427001953125,-0.63916015625,1,0.84
2020-05-19 09:50:21.945 -0400,1589896221.001001,41.35201069379446,-71.84497243214945,14.80359,0.09854494,208.4840165162717,17.75107602615097,9.767033524892309,-9999,63287.539634375,-0.715087890625,0.2708740234375,-0.6460418701171875,1,0.84
2020-05-19 09:50:21.994 -0400,1589896221.001001,41.35201069379446,-71.84497243214945,14.80359,0.09854494,208.4840165162717,17.75107602615097,9.767033524892309,-9999,63287.58952337501,-0.7111968994140625,0.300018310546875,-0.6466064453125,1,0.84
2020-05-19 09:50:22.044 -0400,1589896221.001001,41.35201069379446,-71.84497243214945,14.80359,0.09854494,208.4840165162717,17.75107602615097,9.767033524892309,-9999,63287.63941337501,-0.7186737060546875,0.2849884033203125,-0.64263916015625,1,0.84
2020-05-19 09:50:22.094 -0400,1589896221.001001,41.35201069379446,-71.84497243214945,14.80359,0.09854494,208.4840165162717,17.75107602615097,9.767033524892309,-9999,63287.689302375,-0.720001220703125,0.2785797119140625,-0.63848876953125,1,0.84
2020-05-19 09:50:22.144 -0400,1589896221.001001,41.35201069379446,-71.84497243214945,14.80359,0.09854494,208.4840165162717,17.75107602615097,9.767033524892309,-9999,63287.739193375,-0.677978515625,0.2561492919921875,-0.7080841064453125,1,0.84
2020-05-19 09:50:22.194 -0400,1589896221.001001,41.35201069379446,-71.84497243214945,14.80359,0.09854494,208.4840165162717,17.75107602615097,9.767033524892309,-9999,63287.78908137501,-0.7168731689453125,0.2701873779296875,-0.66424560546875,1,0.84
2020-05-19 09:50:22.244 -0400,1589896221.001001,41.35201069379446,-71.84497243214945,14.80359,0.09854494,208.4840165162717,17.75107602615097,9.767033524892309,-9999,63287.83896937501,-0.7141265869140625,0.216705322265625,-0.6811981201171875,1,0.84
2020-05-19 09:50:22.294 -0400,1589896222.000953,41.35201431960203,-71.84497246407612,14.92741,0.1884287,252.9109456675264,15.08589637824923,8.350982394380887,-9999,63287.888855375,-0.6803131103515625,0.276611328125,-0.6933746337890625,1,0.84
2020-05-19 09:50:22.344 -0400,1589896222.000953,41.35201431960203,-71.84497246407612,14.92741,0.1884287,252.9109456675264,15.08589637824923,8.350982394380887,-9999,63287.93874341667,-0.7447509765625,0.35052490234375,-0.620849609375,1,0.84
2020-05-19 09:50:22.394 -0400,1589896222.000953,41.35201431960203,-71.84497246407612,14.92741,0.1884287,252.9109456675264,15.08589637824923,8.350982394380887,-9999,63287.98863241667,-0.721893310546875,0.3233184814453125,-0.6283721923828125,1,0.84
2020-05-19 09:50:22.443 -0400,1589896222.000953,41.35201431960203,-71.84497246407612,14.92741,0.1884287,252.9109456675264,15.08589637824923,8.350982394380887,-9999,63288.03852141667,-0.728485107421875,0.2934112548828125,-0.5231475830078125,1,0.84
2020-05-19 09:50:22.493 -0400,1589896222.000953,41.35201431960203,-71.84497246407612,14.92741,0.1884287,252.9109456675264,15.08589637824923,8.350982394380887,-9999,63288.08840541667,-0.7357025146484375,0.359527587890625,-0.57232666015625,1,0.84
2020-05-19 09:50:22.543 -0400,1589896222.000953,41.35201431960203,-71.84497246407612,14.92741,0.1884287,252.9109456675264,15.08589637824923,8.350982394380887,-9999,63288.13829041667,-0.749420166015625,0.3569793701171875,-0.5482635498046875,1,0.84
2020-05-19 09:50:22.593 -0400,1589896222.000953,41.35201431960203,-71.84497246407612,14.92741,0.1884287,252.9109456675264,15.08589637824923,8.350982394380887,-9999,63288.18817641667,-0.7413482666015625,0.408172607421875,-0.528594970703125,1,0.84
2020-05-19 09:50:22.643 -0400,1589896222.000953,41.35201431960203,-71.84497246407612,14.92741,0.1884287,252.9109456675264,15.08589637824923,8.350982394380887,-9999,63288.23806241667,-0.7575836181640625,0.442474365234375,-0.535003662109375,1,0.84
2020-05-19 09:50:22.693 -0400,1589896222.000953,41.35201431960203,-71.84497246407612,14.92741,0.1884287,252.9109456675264,15.08589637824923,8.350982394380887,-9999,63288.28794941667,-0.7225189208984375,0.3907470703125,-0.6001129150390625,1,0.84
2020-05-19 09:50:22.743 -0400,1589896222.000953,41.35201431960203,-71.84497246407612,14.92741,0.1884287,252.9109456675264,15.08589637824923,8.350982394380887,-9999,63288.33783541667,-0.7597198486328125,0.4141845703125,-0.5097808837890625,1,0.84
2020-05-19 09:50:22.793 -0400,1589896222.000953,41.35201431960203,-71.84497246407612,14.92741,0.1884287,252.9109456675264,15.08589637824923,8.350982394380887,-9999,63288.38772241667,-0.72125244140625,0.3840179443359375,-0.541015625,1,0.84
2020-05-19 09:50:22.843 -0400,1589896222.000953,41.35201431960203,-71.84497246407612,14.92741,0.1884287,252.9109456675264,15.08589637824923,8.350982394380887,-9999,63288.43760941667,-0.74591064453125,0.4160919189453125,-0.5619354248046875,1,0.84
2020-05-19 09:50:22.893 -0400,1589896222.000953,41.35201431960203,-71.84497246407612,14.92741,0.1884287,252.9109456675264,15.08589637824923,8.350982394380887,-9999,63288.48750041667,-0.7545013427734375,0.4642333984375,-0.504241943359375,1,0.84
2020-05-19 09:50:22.942 -0400,1589896222.000953,41.35201431960203,-71.84497246407612,14.92741,0.1884287,252.9109456675264,15.08589637824923,8.350982394380887,-9999,63288.53738841667,-0.7594451904296875,0.335693359375,-0.5630950927734375,1,0.84
2020-05-19 09:50:22.992 -0400,1589896222.000953,41.35201431960203,-71.84497246407612,14.92741,0.1884287,252.9109456675264,15.08589637824923,8.350982394380887,-9999,63288.58727541667,-0.7116851806640625,0.318145751953125,-0.552154541015625,1,0.84
2020-05-19 09:50:23.042 -0400,1589896222.000953,41.35201431960203,-71.84497246407612,14.92741,0.1884287,252.9109456675264,15.08589637824923,8.350982394380887,-9999,63288.63716041667,-0.717742919921875,0.3095245361328125,-0.6623382568359375,1,0.84
2020-05-19 09:50:23.092 -0400,1589896222.000953,41.35201431960203,-71.84497246407612,14.92741,0.1884287,252.9109456675264,15.08589637824923,8.350982394380887,-9999,63288.68704641667,-0.7031707763671875,0.37371826171875,-0.588623046875,1,0.84
2020-05-19 09:50:23.142 -0400,1589896222.000953,41.35201431960203,-71.84497246407612,14.92741,0.1884287,252.9109456675264,15.08589637824923,8.350982394380887,-9999,63288.73693241667,-0.8058929443359375,0.3755035400390625,-0.455596923828125,1,0.84
2020-05-19 09:50:23.192 -0400,1589896222.000953,41.35201431960203,-71.84497246407612,14.92741,0.1884287,252.9109456675264,15.08589637824923,8.350982394380887,-9999,63288.78682041667,-0.7422027587890625,0.380859375,-0.55859375,1,0.84
2020-05-19 09:50:23.242 -0400,1589896222.000953,41.35201431960203,-71.84497246407612,14.92741,0.1884287,252.9109456675264,15.08589637824923,8.350982394380887,-9999,63288.83670641667,-0.725830078125,0.3414459228515625,-0.5701904296875,1,0.84
2020-05-19 09:50:23.292 -0400,1589896222.000953,41.35201431960203,-71.84497246407612,14.92741,0.1884287,252.9109456675264,15.08589637824923,8.350982394380887,-9999,63288.88659241667,-0.71820068359375,0.3616485595703125,-0.6301727294921875,1,0.84
2020-05-19 09:50:23.341 -0400,1589896223.000901,41.35201564526352,-71.84496948570062,14.91608,0.006541381,344.2669022285474,17.75636486183656,9.460819606258459,-9999,63288.93648412501,-0.756439208984375,0.315460205078125,-0.5166473388671875,1,0.84
2020-05-19 09:50:23.391 -0400,1589896223.000901,41.35201564526352,-71.84496948570062,14.91608,0.006541381,344.2669022285474,17.75636486183656,9.460819606258459,-9999,63288.986375125,-0.678131103515625,0.466583251953125,-0.594451904296875,1,0.84
2020-05-19 09:50:23.441 -0400,1589896223.000901,41.35201564526352,-71.84496948570062,14.91608,0.006541381,344.2669022285474,17.75636486183656,9.460819606258459,-9999,63289.036263125,-0.7840576171875,0.361663818359375,-0.5375823974609375,1,0.84
2020-05-19 09:50:23.491 -0400,1589896223.000901,41.35201564526352,-71.84496948570062,14.91608,0.006541381,344.2669022285474,17.75636486183656,9.460819606258459,-9999,63289.086153125,-0.6959686279296875,0.3379058837890625,-0.6041717529296875,1,0.84
2020-05-19 09:50:23.541 -0400,1589896223.000901,41.35201564526352,-71.84496948570062,14.91608,0.006541381,344.2669022285474,17.75636486183656,9.460819606258459,-9999,63289.13604212501,-0.735748291015625,0.413116455078125,-0.5514984130859375,1,0.84
2020-05-19 09:50:23.591 -0400,1589896223.000901,41.35201564526352,-71.84496948570062,14.91608,0.006541381,344.2669022285474,17.75636486183656,9.460819606258459,-9999,63289.185933125,-0.73541259765625,0.4381256103515625,-0.56329345703125,1,0.84
2020-05-19 09:50:23.641 -0400,1589896223.000901,41.35201564526352,-71.84496948570062,14.91608,0.006541381,344.2669022285474,17.75636486183656,9.460819606258459,-9999,63289.235822125,-0.728912353515625,0.405426025390625,-0.5726165771484375,1,0.84
2020-05-19 09:50:23.690 -0400,1589896223.000901,41.35201564526352,-71.84496948570062,14.91608,0.006541381,344.2669022285474,17.75636486183656,9.460819606258459,-9999,63289.28571112501,-0.7402801513671875,0.3402252197265625,-0.5009918212890625,1,0.84
2020-05-19 09:50:23.741 -0400,1589896223.000901,41.35201564526352,-71.84496948570062,14.91608,0.006541381,344.2669022285474,17.75636486183656,9.460819606258459,-9999,63289.33559912501,-0.711456298828125,0.372955322265625,-0.639251708984375,1,0.84
2020-05-19 09:50:23.791 -0400,1589896223.000901,41.35201564526352,-71.84496948570062,14.91608,0.006541381,344.2669022285474,17.75636486183656,9.460819606258459,-9999,63289.385488125,-0.7040557861328125,0.352081298828125,-0.6421966552734375,1,0.84
2020-05-19 09:50:23.840 -0400,1589896223.000901,41.35201564526352,-71.84496948570062,14.91608,0.006541381,344.2669022285474,17.75636486183656,9.460819606258459,-9999,63289.435378125,-0.7217254638671875,0.3615875244140625,-0.6038818359375,1,0.84
2020-05-19 09:50:23.890 -0400,1589896223.000901,41.35201564526352,-71.84496948570062,14.91608,0.006541381,344.2669022285474,17.75636486183656,9.460819606258459,-9999,63289.48526912501,-0.703948974609375,0.3934783935546875,-0.5752410888671875,1,0.84
2020-05-19 09:50:23.940 -0400,1589896223.000901,41.35201564526352,-71.84496948570062,14.91608,0.006541381,344.2669022285474,17.75636486183656,9.460819606258459,-9999,63289.53515812501,-0.727630615234375,0.363372802734375,-0.5952301025390625,1,0.84
2020-05-19 09:50:23.990 -0400,1589896223.000901,41.35201564526352,-71.84496948570062,14.91608,0.006541381,344.2669022285474,17.75636486183656,9.460819606258459,-9999,63289.585051125,-0.7198638916015625,0.34967041015625,-0.59942626953125,1,0.84
2020-05-19 09:50:24.040 -0400,1589896223.000901,41.35201564526352,-71.84496948570062,14.91608,0.006541381,344.2669022285474,17.75636486183656,9.460819606258459,-9999,63289.634940125,-0.673980712890625,0.3581085205078125,-0.6255950927734375,1,0.84
2020-05-19 09:50:24.090 -0400,1589896223.000901,41.35201564526352,-71.84496948570062,14.91608,0.006541381,344.2669022285474,17.75636486183656,9.460819606258459,-9999,63289.68483112501,-0.7242431640625,0.3456573486328125,-0.5897979736328125,1,0.84
2020-05-19 09:50:24.139 -0400,1589896223.000901,41.35201564526352,-71.84496948570062,14.91608,0.006541381,344.2669022285474,17.75636486183656,9.460819606258459,-9999,63289.734721125,-0.7070159912109375,0.34722900390625,-0.6450042724609375,1,0.84
2020-05-19 09:50:24.189 -0400,1589896223.000901,41.35201564526352,-71.84496948570062,14.91608,0.006541381,344.2669022285474,17.75636486183656,9.460819606258459,-9999,63289.78461512501,-0.713226318359375,0.347381591796875,-0.600616455078125,1,0.84
2020-05-19 09:50:24.240 -0400,1589896224.00086,41.35201289178303,-71.84496863491391,14.84812,0.01904579,88.23000890814761,13.18114524804545,7.14578266228165,-9999,63289.834508125,-0.7161102294921875,0.3765106201171875,-0.60101318359375,1,0.84
2020-05-19 09:50:24.289 -0400,1589896224.00086,41.35201289178303,-71.84496863491391,14.84812,0.01904579,88.23000890814761,13.18114524804545,7.14578266228165,-9999,63289.884402125,-0.71600341796875,0.331878662109375,-0.65142822265625,1,0.84
2020-05-19 09:50:24.339 -0400,1589896224.00086,41.35201289178303,-71.84496863491391,14.84812,0.01904579,88.23000890814761,13.18114524804545,7.14578266228165,-9999,63289.93429316667,-0.7011260986328125,0.2989044189453125,-0.6182708740234375,1,0.84
2020-05-19 09:50:24.389 -0400,1589896224.00086,41.35201289178303,-71.84496863491391,14.84812,0.01904579,88.23000890814761,13.18114524804545,7.14578266228165,-9999,63289.98418416667,-0.7182159423828125,0.3585357666015625,-0.5425567626953125,1,0.84
2020-05-19 09:50:24.439 -0400,1589896224.00086,41.35201289178303,-71.84496863491391,14.84812,0.01904579,88.23000890814761,13.18114524804545,7.14578266228165,-9999,63290.03407416667,-0.723541259765625,0.3870697021484375,-0.6125335693359375,1,0.84
2020-05-19 09:50:24.489 -0400,1589896224.00086,41.35201289178303,-71.84496863491391,14.84812,0.01904579,88.23000890814761,13.18114524804545,7.14578266228165,-9999,63290.08396316667,-0.7322540283203125,0.37322998046875,-0.551727294921875,1,0.84
2020-05-19 09:50:24.539 -0400,1589896224.00086,41.35201289178303,-71.84496863491391,14.84812,0.01904579,88.23000890814761,13.18114524804545,7.14578266228165,-9999,63290.13385516667,-0.6923828125,0.3868255615234375,-0.5889434814453125,1,0.84
2020-05-19 09:50:24.589 -0400,1589896224.00086,41.35201289178303,-71.84496863491391,14.84812,0.01904579,88.23000890814761,13.18114524804545,7.14578266228165,-9999,63290.18374716667,-0.6904449462890625,0.215850830078125,-0.5871124267578125,1,0.84
2020-05-19 09:50:24.639 -0400,1589896224.00086,41.35201289178303,-71.84496863491391,14.84812,0.01904579,88.23000890814761,13.18114524804545,7.14578266228165,-9999,63290.23363716667,-0.696258544921875,0.394073486328125,-0.56646728515625,1,0.84
2020-05-19 09:50:24.688 -0400,1589896224.00086,41.35201289178303,-71.84496863491391,14.84812,0.01904579,88.23000890814761,13.18114524804545,7.14578266228165,-9999,63290.28352716667,-0.66900634765625,0.5055084228515625,-0.697509765625,1,0.84
2020-05-19 09:50:24.738 -0400,1589896224.00086,41.35201289178303,-71.84496863491391,14.84812,0.01904579,88.23000890814761,13.18114524804545,7.14578266228165,-9999,63290.33341716667,-0.6754302978515625,0.39154052734375,-0.61346435546875,1,0.84
2020-05-19 09:50:24.788 -0400,1589896224.00086,41.35201289178303,-71.84496863491391,14.84812,0.01904579,88.23000890814761,13.18114524804545,7.14578266228165,-9999,63290.38330816667,-0.6923675537109375,0.3823699951171875,-0.592498779296875,1,0.84
2020-05-19 09:50:24.838 -0400,1589896224.00086,41.35201289178303,-71.84496863491391,14.84812,0.01904579,88.23000890814761,13.18114524804545,7.14578266228165,-9999,63290.43319916667,-0.6555633544921875,0.36572265625,-0.712860107421875,1,0.84
2020-05-19 09:50:24.888 -0400,1589896224.00086,41.35201289178303,-71.84496863491391,14.84812,0.01904579,88.23000890814761,13.18114524804545,7.14578266228165,-9999,63290.48308916667,-0.6920013427734375,0.3618927001953125,-0.6187896728515625,1,0.84
2020-05-19 09:50:24.938 -0400,1589896224.00086,41.35201289178303,-71.84496863491391,14.84812,0.01904579,88.23000890814761,13.18114524804545,7.14578266228165,-9999,63290.53298216667,-0.658050537109375,0.381072998046875,-0.6705169677734375,1,0.84
2020-05-19 09:50:24.988 -0400,1589896224.00086,41.35201289178303,-71.84496863491391,14.84812,0.01904579,88.23000890814761,13.18114524804545,7.14578266228165,-9999,63290.58287416667,-0.70782470703125,0.385955810546875,-0.6344146728515625,1,0.84
2020-05-19 09:50:25.038 -0400,1589896224.00086,41.35201289178303,-71.84496863491391,14.84812,0.01904579,88.23000890814761,13.18114524804545,7.14578266228165,-9999,63290.63276516667,-0.6980133056640625,0.3548431396484375,-0.6078643798828125,1,0.84
2020-05-19 09:50:25.088 -0400,1589896224.00086,41.35201289178303,-71.84496863491391,14.84812,0.01904579,88.23000890814761,13.18114524804545,7.14578266228165,-9999,63290.68265816667,-0.68133544921875,0.3248291015625,-0.6381988525390625,1,0.84
2020-05-19 09:50:25.138 -0400,1589896224.00086,41.35201289178303,-71.84496863491391,14.84812,0.01904579,88.23000890814761,13.18114524804545,7.14578266228165,-9999,63290.73254716667,-0.6909027099609375,0.37408447265625,-0.6367034912109375,1,0.84
2020-05-19 09:50:25.187 -0400,1589896224.00086,41.35201289178303,-71.84496863491391,14.84812,0.01904579,88.23000890814761,13.18114524804545,7.14578266228165,-9999,63290.78243716667,-0.6547393798828125,0.3504638671875,-0.68212890625,1,0.84
2020-05-19 09:50:25.237 -0400,1589896224.00086,41.35201289178303,-71.84496863491391,14.84812,0.01904579,88.23000890814761,13.18114524804545,7.14578266228165,-9999,63290.83232516667,-0.69647216796875,0.345428466796875,-0.5829925537109375,1,0.84
2020-05-19 09:50:25.287 -0400,1589896224.00086,41.35201289178303,-71.84496863491391,14.84812,0.01904579,88.23000890814761,13.18114524804545,7.14578266228165,-9999,63290.88221516667,-0.665740966796875,0.3714447021484375,-0.6652679443359375,1,0.84
2020-05-19 09:50:25.337 -0400,1589896225.000819,41.35200787087233,-71.84496697857605,14.8294,0.05914384,186.3322751151669,12.59188839249022,6.570108730410493,-9999,63290.93210316667,-0.6981201171875,0.3518218994140625,-0.649810791015625,1,0.84
2020-05-19 09:50:25.387 -0400,1589896225.000819,41.35200787087233,-71.84496697857605,14.8294,0.05914384,186.3322751151669,12.59188839249022,6.570108730410493,-9999,63290.98199162501,-0.6715850830078125,0.33209228515625,-0.66558837890625,1,0.84
2020-05-19 09:50:25.437 -0400,1589896225.000819,41.35200787087233,-71.84496697857605,14.8294,0.05914384,186.3322751151669,12.59188839249022,6.570108730410493,-9999,63291.03188162501,-0.6600189208984375,0.31671142578125,-0.7168121337890625,1,0.84
2020-05-19 09:50:25.487 -0400,1589896225.000819,41.35200787087233,-71.84496697857605,14.8294,0.05914384,186.3322751151669,12.59188839249022,6.570108730410493,-9999,63291.081771625,-0.6864471435546875,0.3195953369140625,-0.6570892333984375,1,0.84
2020-05-19 09:50:25.537 -0400,1589896225.000819,41.35200787087233,-71.84496697857605,14.8294,0.05914384,186.3322751151669,12.59188839249022,6.570108730410493,-9999,63291.131659625,-0.677398681640625,0.2945098876953125,-0.6787109375,1,0.84
2020-05-19 09:50:25.587 -0400,1589896225.000819,41.35200787087233,-71.84496697857605,14.8294,0.05914384,186.3322751151669,12.59188839249022,6.570108730410493,-9999,63291.18154962501,-0.642608642578125,0.3539276123046875,-0.67559814453125,1,0.84
2020-05-19 09:50:25.637 -0400,1589896225.000819,41.35200787087233,-71.84496697857605,14.8294,0.05914384,186.3322751151669,12.59188839249022,6.570108730410493,-9999,63291.231439625,-0.6839599609375,0.280120849609375,-0.6592254638671875,1,0.84
2020-05-19 09:50:25.686 -0400,1589896225.000819,41.35200787087233,-71.84496697857605,14.8294,0.05914384,186.3322751151669,12.59188839249022,6.570108730410493,-9999,63291.281326625,-0.685089111328125,0.277618408203125,-0.67034912109375,1,0.84
2020-05-19 09:50:25.736 -0400,1589896225.000819,41.35200787087233,-71.84496697857605,14.8294,0.05914384,186.3322751151669,12.59188839249022,6.570108730410493,-9999,63291.331215625,-0.6637115478515625,0.2629852294921875,-0.700225830078125,1,0.84
2020-05-19 09:50:25.786 -0400,1589896225.000819,41.35200787087233,-71.84496697857605,14.8294,0.05914384,186.3322751151669,12.59188839249022,6.570108730410493,-9999,63291.38110662501,-0.6916351318359375,0.278961181640625,-0.6652069091796875,1,0.84
2020-05-19 09:50:25.836 -0400,1589896225.000819,41.35200787087233,-71.84496697857605,14.8294,0.05914384,186.3322751151669,12.59188839249022,6.570108730410493,-9999,63291.43099462501,-0.6755828857421875,0.281951904296875,-0.64837646484375,1,0.84
2020-05-19 09:50:25.886 -0400,1589896225.000819,41.35200787087233,-71.84496697857605,14.8294,0.05914384,186.3322751151669,12.59188839249022,6.570108730410493,-9999,63291.480885625,-0.6769866943359375,0.30670166015625,-0.67486572265625,1,0.84
2020-05-19 09:50:25.936 -0400,1589896225.000819,41.35200787087233,-71.84496697857605,14.8294,0.05914384,186.3322751151669,12.59188839249022,6.570108730410493,-9999,63291.530775625,-0.6818389892578125,0.32708740234375,-0.6869049072265625,1,0.84
2020-05-19 09:50:25.986 -0400,1589896225.000819,41.35200787087233,-71.84496697857605,14.8294,0.05914384,186.3322751151669,12.59188839249022,6.570108730410493,-9999,63291.58066662501,-0.677490234375,0.279815673828125,-0.6617279052734375,1,0.84
2020-05-19 09:50:26.036 -0400,1589896225.000819,41.35200787087233,-71.84496697857605,14.8294,0.05914384,186.3322751151669,12.59188839249022,6.570108730410493,-9999,63291.630555625,-0.676727294921875,0.2738189697265625,-0.680694580078125,1,0.84
2020-05-19 09:50:26.085 -0400,1589896225.000819,41.35200787087233,-71.84496697857605,14.8294,0.05914384,186.3322751151669,12.59188839249022,6.570108730410493,-9999,63291.680444625,-0.681365966796875,0.312408447265625,-0.7021026611328125,1,0.84
2020-05-19 09:50:26.135 -0400,1589896225.000819,41.35200787087233,-71.84496697857605,14.8294,0.05914384,186.3322751151669,12.59188839249022,6.570108730410493,-9999,63291.730334625,-0.676177978515625,0.3219451904296875,-0.7038421630859375,1,0.84
2020-05-19 09:50:26.185 -0400,1589896225.000819,41.35200787087233,-71.84496697857605,14.8294,0.05914384,186.3322751151669,12.59188839249022,6.570108730410493,-9999,63291.78022462501,-0.69091796875,0.2477264404296875,-0.6471405029296875,1,0.84
2020-05-19 09:50:26.236 -0400,1589896225.000819,41.35200787087233,-71.84496697857605,14.8294,0.05914384,186.3322751151669,12.59188839249022,6.570108730410493,-9999,63291.830114625,-0.67425537109375,0.251708984375,-0.6594390869140625,1,0.84
2020-05-19 09:50:26.285 -0400,1589896225.000819,41.35200787087233,-71.84496697857605,14.8294,0.05914384,186.3322751151669,12.59188839249022,6.570108730410493,-9999,63291.880002625,-0.680267333984375,0.3031158447265625,-0.6862640380859375,1,0.84
2020-05-19 09:50:26.335 -0400,1589896226.000782,41.35200761653107,-71.84496397002903,14.84051,0.06136613,147.2722642479184,18.34665977308538,9.748485549608507,-9999,63291.92989562501,-0.67327880859375,0.3014678955078125,-0.6805267333984375,1,0.84
2020-05-19 09:50:26.385 -0400,1589896226.000782,41.35200761653107,-71.84496397002903,14.84051,0.06136613,147.2722642479184,18.34665977308538,9.748485549608507,-9999,63291.97978441667,-0.68121337890625,0.2504730224609375,-0.6930389404296875,1,0.84
2020-05-19 09:50:26.435 -0400,1589896226.000782,41.35200761653107,-71.84496397002903,14.84051,0.06136613,147.2722642479184,18.34665977308538,9.748485549608507,-9999,63292.02967541667,-0.68133544921875,0.311370849609375,-0.6660614013671875,1,0.84
2020-05-19 09:50:26.484 -0400,1589896226.000782,41.35200761653107,-71.84496397002903,14.84051,0.06136613,147.2722642479184,18.34665977308538,9.748485549608507,-9999,63292.07956841667,-0.684234619140625,0.2852020263671875,-0.6990966796875,1,0.84
2020-05-19 09:50:26.535 -0400,1589896226.000782,41.35200761653107,-71.84496397002903,14.84051,0.06136613,147.2722642479184,18.34665977308538,9.748485549608507,-9999,63292.12945841667,-0.68121337890625,0.2783203125,-0.6755523681640625,1,0.84
2020-05-19 09:50:26.584 -0400,1589896226.000782,41.35200761653107,-71.84496397002903,14.84051,0.06136613,147.2722642479184,18.34665977308538,9.748485549608507,-9999,63292.17935041667,-0.6725921630859375,0.3065643310546875,-0.70928955078125,1,0.84
2020-05-19 09:50:26.634 -0400,1589896226.000782,41.35200761653107,-71.84496397002903,14.84051,0.06136613,147.2722642479184,18.34665977308538,9.748485549608507,-9999,63292.22924241667,-0.6721343994140625,0.2499847412109375,-0.6624298095703125,1,0.84
2020-05-19 09:50:26.684 -0400,1589896226.000782,41.35200761653107,-71.84496397002903,14.84051,0.06136613,147.2722642479184,18.34665977308538,9.748485549608507,-9999,63292.27913241667,-0.67437744140625,0.279937744140625,-0.7044677734375,1,0.84
2020-05-19 09:50:26.734 -0400,1589896226.000782,41.35200761653107,-71.84496397002903,14.84051,0.06136613,147.2722642479184,18.34665977308538,9.748485549608507,-9999,63292.32902341667,-0.672393798828125,0.27496337890625,-0.692047119140625,1,0.84
2020-05-19 09:50:26.784 -0400,1589896226.000782,41.35200761653107,-71.84496397002903,14.84051,0.06136613,147.2722642479184,18.34665977308538,9.748485549608507,-9999,63292.37890941667,-0.6775970458984375,0.28082275390625,-0.666473388671875,1,0.84
2020-05-19 09:50:26.834 -0400,1589896226.000782,41.35200761653107,-71.84496397002903,14.84051,0.06136613,147.2722642479184,18.34665977308538,9.748485549608507,-9999,63292.42879641667,-0.6797637939453125,0.268768310546875,-0.6929473876953125,1,0.84
2020-05-19 09:50:26.884 -0400,1589896226.000782,41.35200761653107,-71.84496397002903,14.84051,0.06136613,147.2722642479184,18.34665977308538,9.748485549608507,-9999,63292.47868941667,-0.67431640625,0.258880615234375,-0.6793365478515625,1,0.84
2020-05-19 09:50:26.934 -0400,1589896226.000782,41.35200761653107,-71.84496397002903,14.84051,0.06136613,147.2722642479184,18.34665977308538,9.748485549608507,-9999,63292.52857941667,-0.68402099609375,0.2911529541015625,-0.6769866943359375,1,0.84
2020-05-19 09:50:26.984 -0400,1589896226.000782,41.35200761653107,-71.84496397002903,14.84051,0.06136613,147.2722642479184,18.34665977308538,9.748485549608507,-9999,63292.57847041667,-0.670196533203125,0.264404296875,-0.699188232421875,1,0.84
2020-05-19 09:50:27.034 -0400,1589896226.000782,41.35200761653107,-71.84496397002903,14.84051,0.06136613,147.2722642479184,18.34665977308538,9.748485549608507,-9999,63292.62836241667,-0.6772613525390625,0.2645416259765625,-0.6843719482421875,1,0.84
2020-05-19 09:50:27.083 -0400,1589896226.000782,41.35200761653107,-71.84496397002903,14.84051,0.06136613,147.2722642479184,18.34665977308538,9.748485549608507,-9999,63292.67825441667,-0.6759796142578125,0.2806396484375,-0.691986083984375,1,0.84
2020-05-19 09:50:27.133 -0400,1589896226.000782,41.35200761653107,-71.84496397002903,14.84051,0.06136613,147.2722642479184,18.34665977308538,9.748485549608507,-9999,63292.72814641667,-0.673187255859375,0.2805023193359375,-0.698699951171875,1,0.84
2020-05-19 09:50:27.183 -0400,1589896226.000782,41.35200761653107,-71.84496397002903,14.84051,0.06136613,147.2722642479184,18.34665977308538,9.748485549608507,-9999,63292.77803641667,-0.674468994140625,0.30584716796875,-0.727935791015625,1,0.84
2020-05-19 09:50:27.233 -0400,1589896226.000782,41.35200761653107,-71.84496397002903,14.84051,0.06136613,147.2722642479184,18.34665977308538,9.748485549608507,-9999,63292.82792841667,-0.6697998046875,0.2469024658203125,-0.6945953369140625,1,0.84
2020-05-19 09:50:27.283 -0400,1589896227.000747,41.35200716733939,-71.84496863333544,14.84255,0.01954938,288.0331519327475,13.39629858508999,7.028183551809827,-9999,63292.87782141667,-0.6860809326171875,0.294403076171875,-0.7466583251953125,1,0.84
2020-05-19 09:50:27.333 -0400,1589896227.000747,41.35200716733939,-71.84496863333544,14.84255,0.01954938,288.0331519327475,13.39629858508999,7.028183551809827,-9999,63292.92771341667,-0.675445556640625,0.241363525390625,-0.684600830078125,1,0.84
2020-05-19 09:50:27.383 -0400,1589896227.000747,41.35200716733939,-71.84496863333544,14.84255,0.01954938,288.0331519327475,13.39629858508999,7.028183551809827,-9999,63292.97760391667,-0.71160888671875,0.1681365966796875,-0.6433563232421875,1,0.84
2020-05-19 09:50:27.433 -0400,1589896227.000747,41.35200716733939,-71.84496863333544,14.84255,0.01954938,288.0331519327475,13.39629858508999,7.028183551809827,-9999,63293.02749591667,-0.707366943359375,0.2097015380859375,-0.618865966796875,1,0.84
2020-05-19 09:50:27.483 -0400,1589896227.000747,41.35200716733939,-71.84496863333544,14.84255,0.01954938,288.0331519327475,13.39629858508999,7.028183551809827,-9999,63293.07738491667,-0.7087860107421875,0.1715087890625,-0.654937744140625,1,0.84
2020-05-19 09:50:27.532 -0400,1589896227.000747,41.35200716733939,-71.84496863333544,14.84255,0.01954938,288.0331519327475,13.39629858508999,7.028183551809827,-9999,63293.12727591667,-0.7006072998046875,0.2547760009765625,-0.694244384765625,1,0.84
2020-05-19 09:50:27.582 -0400,1589896227.000747,41.35200716733939,-71.84496863333544,14.84255,0.01954938,288.0331519327475,13.39629858508999,7.028183551809827,-9999,63293.17716791667,-0.6982574462890625,0.25738525390625,-0.6621856689453125,1,0.84
2020-05-19 09:50:27.632 -0400,1589896227.000747,41.35200716733939,-71.84496863333544,14.84255,0.01954938,288.0331519327475,13.39629858508999,7.028183551809827,-9999,63293.22706091667,-0.711944580078125,0.269805908203125,-0.6828460693359375,1,0.84
2020-05-19 09:50:27.682 -0400,1589896227.000747,41.35200716733939,-71.84496863333544,14.84255,0.01954938,288.0331519327475,13.39629858508999,7.028183551809827,-9999,63293.27695591667,-0.7252960205078125,0.263916015625,-0.6392059326171875,1,0.84
2020-05-19 09:50:27.732 -0400,1589896227.000747,41.35200716733939,-71.84496863333544,14.84255,0.01954938,288.0331519327475,13.39629858508999,7.028183551809827,-9999,63293.32685191667,-0.7021942138671875,0.2586517333984375,-0.6717681884765625,1,0.84
2020-05-19 09:50:27.782 -0400,1589896227.000747,41.35200716733939,-71.84496863333544,14.84255,0.01954938,288.0331519327475,13.39629858508999,7.028183551809827,-9999,63293.37674591667,-0.712310791015625,0.27642822265625,-0.6418914794921875,1,0.84
2020-05-19 09:50:27.832 -0400,1589896227.000747,41.35200716733939,-71.84496863333544,14.84255,0.01954938,288.0331519327475,13.39629858508999,7.028183551809827,-9999,63293.42663891667,-0.690673828125,0.208465576171875,-0.6732940673828125,1,0.84
2020-05-19 09:50:27.882 -0400,1589896227.000747,41.35200716733939,-71.84496863333544,14.84255,0.01954938,288.0331519327475,13.39629858508999,7.028183551809827,-9999,63293.47653191667,-0.7214508056640625,0.25335693359375,-0.62652587890625,1,0.84
2020-05-19 09:50:27.931 -0400,1589896227.000747,41.35200716733939,-71.84496863333544,14.84255,0.01954938,288.0331519327475,13.39629858508999,7.028183551809827,-9999,63293.52642291667,-0.7116546630859375,0.3136138916015625,-0.66070556640625,1,0.84
2020-05-19 09:50:27.981 -0400,1589896227.000747,41.35200716733939,-71.84496863333544,14.84255,0.01954938,288.0331519327475,13.39629858508999,7.028183551809827,-9999,63293.57631291667,-0.7165069580078125,0.2911224365234375,-0.6147918701171875,1,0.84
2020-05-19 09:50:28.031 -0400,1589896227.000747,41.35200716733939,-71.84496863333544,14.84255,0.01954938,288.0331519327475,13.39629858508999,7.028183551809827,-9999,63293.62620491667,-0.7093963623046875,0.2807159423828125,-0.645599365234375,1,0.84
2020-05-19 09:50:28.081 -0400,1589896227.000747,41.35200716733939,-71.84496863333544,14.84255,0.01954938,288.0331519327475,13.39629858508999,7.028183551809827,-9999,63293.67609591667,-0.7061767578125,0.2663116455078125,-0.6481781005859375,1,0.84
2020-05-19 09:50:28.131 -0400,1589896227.000747,41.35200716733939,-71.84496863333544,14.84255,0.01954938,288.0331519327475,13.39629858508999,7.028183551809827,-9999,63293.72598791667,-0.702117919921875,0.2530517578125,-0.6822357177734375,1,0.84
2020-05-19 09:50:28.181 -0400,1589896227.000747,41.35200716733939,-71.84496863333544,14.84255,0.01954938,288.0331519327475,13.39629858508999,7.028183551809827,-9999,63293.77587991667,-0.7081298828125,0.308746337890625,-0.6456298828125,1,0.84
2020-05-19 09:50:28.231 -0400,1589896227.000747,41.35200716733939,-71.84496863333544,14.84255,0.01954938,288.0331519327475,13.39629858508999,7.028183551809827,-9999,63293.82577391667,-0.6803741455078125,0.2276611328125,-0.685791015625,1,0.84
2020-05-19 09:50:28.281 -0400,1589896228.000713,41.35200770407188,-71.84496733765869,14.89208,0.01466046,272.9405418727251,12.04159004042591,6.096097352392117,-9999,63293.87566491667,-0.7214508056640625,0.28179931640625,-0.635406494140625,1,0.84
2020-05-19 09:50:28.331 -0400,1589896228.000713,41.35200770407188,-71.84496733765869,14.89208,0.01466046,272.9405418727251,12.04159004042591,6.096097352392117,-9999,63293.92555391667,-0.6913299560546875,0.293701171875,-0.698699951171875,1,0.84
2020-05-19 09:50:28.380 -0400,1589896228.000713,41.35200770407188,-71.84496733765869,14.89208,0.01466046,272.9405418727251,12.04159004042591,6.096097352392117,-9999,63293.975445125,-0.7077789306640625,0.2688751220703125,-0.6544342041015625,1,0.84
2020-05-19 09:50:28.430 -0400,1589896228.000713,41.35200770407188,-71.84496733765869,14.89208,0.01466046,272.9405418727251,12.04159004042591,6.096097352392117,-9999,63294.025339125,-0.69537353515625,0.2354736328125,-0.6507720947265625,1,0.84
2020-05-19 09:50:28.480 -0400,1589896228.000713,41.35200770407188,-71.84496733765869,14.89208,0.01466046,272.9405418727251,12.04159004042591,6.096097352392117,-9999,63294.075231125,-0.70989990234375,0.2960205078125,-0.66015625,1,0.84
2020-05-19 09:50:28.530 -0400,1589896228.000713,41.35200770407188,-71.84496733765869,14.89208,0.01466046,272.9405418727251,12.04159004042591,6.096097352392117,-9999,63294.12512512501,-0.694976806640625,0.228057861328125,-0.67388916015625,1,0.84
2020-05-19 09:50:28.580 -0400,1589896228.000713,41.35200770407188,-71.84496733765869,14.89208,0.01466046,272.9405418727251,12.04159004042591,6.096097352392117,-9999,63294.175018125,-0.7248077392578125,0.2666168212890625,-0.6369781494140625,1,0.84
2020-05-19 09:50:28.630 -0400,1589896228.000713,41.35200770407188,-71.84496733765869,14.89208,0.01466046,272.9405418727251,12.04159004042591,6.096097352392117,-9999,63294.224908125,-0.694793701171875,0.2432861328125,-0.6728973388671875,1,0.84
2020-05-19 09:50:28.680 -0400,1589896228.000713,41.35200770407188,-71.84496733765869,14.89208,0.01466046,272.9405418727251,12.04159004042591,6.096097352392117,-9999,63294.27479812501,-0.68524169921875,0.2533111572265625,-0.697601318359375,1,0.84
2020-05-19 09:50:28.730 -0400,1589896228.000713,41.35200770407188,-71.84496733765869,14.89208,0.01466046,272.9405418727251,12.04159004042591,6.096097352392117,-9999,63294.324688125,-0.6984710693359375,0.2245635986328125,-0.6878662109375,1,0.84
2020-05-19 09:50:28.780 -0400,1589896228.000713,41.35200770407188,-71.84496733765869,14.89208,0.01466046,272.9405418727251,12.04159004042591,6.096097352392117,-9999,63294.374580125,-0.6764373779296875,0.232269287109375,-0.698486328125,1,0.84
2020-05-19 09:50:28.830 -0400,1589896228.000713,41.35200770407188,-71.84496733765869,14.89208,0.01466046,272.9405418727251,12.04159004042591,6.096097352392117,-9999,63294.42447112501,-0.6866607666015625,0.21856689453125,-0.7049560546875,1,0.84
2020-05-19 09:50:28.879 -0400,1589896228.000713,41.35200770407188,-71.84496733765869,14.89208,0.01466046,272.9405418727251,12.04159004042591,6.096097352392117,-9999,63294.474360125,-0.6991729736328125,0.2443084716796875,-0.6438140869140625,1,0.84
2020-05-19 09:50:28.929 -0400,1589896228.000713,41.35200770407188,-71.84496733765869,14.89208,0.01466046,272.9405418727251,12.04159004042591,6.096097352392117,-9999,63294.524252125,-0.696441650390625,0.2768707275390625,-0.667449951171875,1,0.84
2020-05-19 09:50:28.979 -0400,1589896228.000713,41.35200770407188,-71.84496733765869,14.89208,0.01466046,272.9405418727251,12.04159004042591,6.096097352392117,-9999,63294.57414412501,-0.6764984130859375,0.22003173828125,-0.6756591796875,1,0.84
2020-05-19 09:50:29.029 -0400,1589896228.000713,41.35200770407188,-71.84496733765869,14.89208,0.01466046,272.9405418727251,12.04159004042591,6.096097352392117,-9999,63294.624036125,-0.6992950439453125,0.262359619140625,-0.6902923583984375,1,0.84
2020-05-19 09:50:29.079 -0400,1589896228.000713,41.35200770407188,-71.84496733765869,14.89208,0.01466046,272.9405418727251,12.04159004042591,6.096097352392117,-9999,63294.673926125,-0.712158203125,0.2599029541015625,-0.65643310546875,1,0.84
2020-05-19 09:50:29.129 -0400,1589896228.000713,41.35200770407188,-71.84496733765869,14.89208,0.01466046,272.9405418727251,12.04159004042591,6.096097352392117,-9999,63294.72381912501,-0.6736602783203125,0.2933349609375,-0.71112060546875,1,0.84
2020-05-19 09:50:29.179 -0400,1589896228.000713,41.35200770407188,-71.84496733765869,14.89208,0.01466046,272.9405418727251,12.04159004042591,6.096097352392117,-9999,63294.773711125,-0.6889190673828125,0.2093505859375,-0.671417236328125,1,0.84
2020-05-19 09:50:29.228 -0400,1589896228.000713,41.35200770407188,-71.84496733765869,14.89208,0.01466046,272.9405418727251,12.04159004042591,6.096097352392117,-9999,63294.823602125,-0.696136474609375,0.223785400390625,-0.645782470703125,1,0.84
2020-05-19 09:50:29.278 -0400,1589896228.000713,41.35200770407188,-71.84496733765869,14.89208,0.01466046,272.9405418727251,12.04159004042591,6.096097352392117,-9999,63294.87349312501,-0.69732666015625,0.304107666015625,-0.628021240234375,1,0.84
2020-05-19 09:50:29.328 -0400,1589896229.000685,41.35200614039562,-71.84496409337288,14.93474,0.01013569,171.029256323453,17.8776102223909,8.887937256267605,-9999,63294.923386125,-0.6813507080078125,0.3003387451171875,-0.6832733154296875,1,0.84
2020-05-19 09:50:29.378 -0400,1589896229.000685,41.35200614039562,-71.84496409337288,14.93474,0.01013569,171.029256323453,17.8776102223909,8.887937256267605,-9999,63294.97327754167,-0.6690216064453125,0.29144287109375,-0.6856842041015625,1,0.84
2020-05-19 09:50:29.428 -0400,1589896229.000685,41.35200614039562,-71.84496409337288,14.93474,0.01013569,171.029256323453,17.8776102223909,8.887937256267605,-9999,63295.02316554167,-0.68780517578125,0.3568572998046875,-0.6625518798828125,1,0.84
2020-05-19 09:50:29.478 -0400,1589896229.000685,41.35200614039562,-71.84496409337288,14.93474,0.01013569,171.029256323453,17.8776102223909,8.887937256267605,-9999,63295.07305654167,-0.6759796142578125,0.3509979248046875,-0.6636962890625,1,0.84
2020-05-19 09:50:29.528 -0400,1589896229.000685,41.35200614039562,-71.84496409337288,14.93474,0.01013569,171.029256323453,17.8776102223909,8.887937256267605,-9999,63295.12294854167,-0.6819305419921875,0.283782958984375,-0.6590118408203125,1,0.84
2020-05-19 09:50:29.578 -0400,1589896229.000685,41.35200614039562,-71.84496409337288,14.93474,0.01013569,171.029256323453,17.8776102223909,8.887937256267605,-9999,63295.17283754167,-0.67205810546875,0.3145751953125,-0.670135498046875,1,0.84
2020-05-19 09:50:29.628 -0400,1589896229.000685,41.35200614039562,-71.84496409337288,14.93474,0.01013569,171.029256323453,17.8776102223909,8.887937256267605,-9999,63295.22272754167,-0.6920928955078125,0.3011932373046875,-0.639984130859375,1,0.84
2020-05-19 09:50:29.678 -0400,1589896229.000685,41.35200614039562,-71.84496409337288,14.93474,0.01013569,171.029256323453,17.8776102223909,8.887937256267605,-9999,63295.27261654167,-0.696746826171875,0.3637542724609375,-0.644500732421875,1,0.84
2020-05-19 09:50:29.727 -0400,1589896229.000685,41.35200614039562,-71.84496409337288,14.93474,0.01013569,171.029256323453,17.8776102223909,8.887937256267605,-9999,63295.32250354167,-0.684844970703125,0.4386444091796875,-0.5604248046875,1,0.84
2020-05-19 09:50:29.778 -0400,1589896229.000685,41.35200614039562,-71.84496409337288,14.93474,0.01013569,171.029256323453,17.8776102223909,8.887937256267605,-9999,63295.37239554167,-0.6615447998046875,0.4764556884765625,-0.634613037109375,1,0.84
2020-05-19 09:50:29.827 -0400,1589896229.000685,41.35200614039562,-71.84496409337288,14.93474,0.01013569,171.029256323453,17.8776102223909,8.887937256267605,-9999,63295.42228654167,-0.7284088134765625,0.414581298828125,-0.509490966796875,1,0.84
2020-05-19 09:50:29.877 -0400,1589896229.000685,41.35200614039562,-71.84496409337288,14.93474,0.01013569,171.029256323453,17.8776102223909,8.887937256267605,-9999,63295.47217854167,-0.6697235107421875,0.45233154296875,-0.5698089599609375,1,0.84
2020-05-19 09:50:29.927 -0400,1589896229.000685,41.35200614039562,-71.84496409337288,14.93474,0.01013569,171.029256323453,17.8776102223909,8.887937256267605,-9999,63295.52207054167,-0.6710052490234375,0.5107574462890625,-0.586151123046875,1,0.84
2020-05-19 09:50:29.977 -0400,1589896229.000685,41.35200614039562,-71.84496409337288,14.93474,0.01013569,171.029256323453,17.8776102223909,8.887937256267605,-9999,63295.57196054167,-0.6590728759765625,0.5050048828125,-0.59564208984375,1,0.84
2020-05-19 09:50:30.027 -0400,1589896229.000685,41.35200614039562,-71.84496409337288,14.93474,0.01013569,171.029256323453,17.8776102223909,8.887937256267605,-9999,63295.62184854167,-0.696533203125,0.47882080078125,-0.5130157470703125,1,0.84
2020-05-19 09:50:30.077 -0400,1589896229.000685,41.35200614039562,-71.84496409337288,14.93474,0.01013569,171.029256323453,17.8776102223909,8.887937256267605,-9999,63295.67173654167,-0.65716552734375,0.4891204833984375,-0.606109619140625,1,0.84
2020-05-19 09:50:30.126 -0400,1589896229.000685,41.35200614039562,-71.84496409337288,14.93474,0.01013569,171.029256323453,17.8776102223909,8.887937256267605,-9999,63295.72162554167,-0.671478271484375,0.51666259765625,-0.569854736328125,1,0.84
2020-05-19 09:50:30.176 -0400,1589896229.000685,41.35200614039562,-71.84496409337288,14.93474,0.01013569,171.029256323453,17.8776102223909,8.887937256267605,-9999,63295.77151054167,-0.6834716796875,0.4629364013671875,-0.54754638671875,1,0.84
2020-05-19 09:50:30.226 -0400,1589896229.000685,41.35200614039562,-71.84496409337288,14.93474,0.01013569,171.029256323453,17.8776102223909,8.887937256267605,-9999,63295.82139754167,-0.6726226806640625,0.45404052734375,-0.5274505615234375,1,0.84
2020-05-19 09:50:30.276 -0400,1589896230.000657,41.35200865568941,-71.84496496555501,15.03419,0.01714711,286.4587977174468,9.623759656248149,4.730396027797645,-9999,63295.87128454167,-0.649688720703125,0.4664459228515625,-0.615325927734375,1,0.84
2020-05-19 09:50:30.326 -0400,1589896230.000657,41.35200865568941,-71.84496496555501,15.03419,0.01714711,286.4587977174468,9.623759656248149,4.730396027797645,-9999,63295.92117254167,-0.6801605224609375,0.492218017578125,-0.5530548095703125,1,0.84
2020-05-19 09:50:30.376 -0400,1589896230.000657,41.35200865568941,-71.84496496555501,15.03419,0.01714711,286.4587977174468,9.623759656248149,4.730396027797645,-9999,63295.97105891667,-0.6707916259765625,0.456390380859375,-0.6255340576171875,1,0.84
2020-05-19 09:50:30.426 -0400,1589896230.000657,41.35200865568941,-71.84496496555501,15.03419,0.01714711,286.4587977174468,9.623759656248149,4.730396027797645,-9999,63296.02094591667,-0.3531036376953125,0.3877716064453125,-1.008270263671875,1,0.84
2020-05-19 09:50:30.475 -0400,1589896230.000657,41.35200865568941,-71.84496496555501,15.03419,0.01714711,286.4587977174468,9.623759656248149,4.730396027797645,-9999,63296.07083491667,-0.71484375,0.4533843994140625,-0.6115264892578125,1,0.84
2020-05-19 09:50:30.526 -0400,1589896230.000657,41.35200865568941,-71.84496496555501,15.03419,0.01714711,286.4587977174468,9.623759656248149,4.730396027797645,-9999,63296.12071891667,-0.7255859375,0.4347991943359375,-0.4947509765625,1,0.84
2020-05-19 09:50:30.575 -0400,1589896230.000657,41.35200865568941,-71.84496496555501,15.03419,0.01714711,286.4587977174468,9.623759656248149,4.730396027797645,-9999,63296.17060291667,-0.6334075927734375,0.3596038818359375,-0.6885223388671875,1,0.84
2020-05-19 09:50:30.625 -0400,1589896230.000657,41.35200865568941,-71.84496496555501,15.03419,0.01714711,286.4587977174468,9.623759656248149,4.730396027797645,-9999,63296.22048791667,-0.6805267333984375,0.347076416015625,-0.6407012939453125,1,0.84
2020-05-19 09:50:30.675 -0400,1589896230.000657,41.35200865568941,-71.84496496555501,15.03419,0.01714711,286.4587977174468,9.623759656248149,4.730396027797645,-9999,63296.27037391667,-0.65728759765625,0.36505126953125,-0.636688232421875,1,0.84
2020-05-19 09:50:30.725 -0400,1589896230.000657,41.35200865568941,-71.84496496555501,15.03419,0.01714711,286.4587977174468,9.623759656248149,4.730396027797645,-9999,63296.32026291667,-0.6659088134765625,0.4266204833984375,-0.6888275146484375,1,0.84
2020-05-19 09:50:30.775 -0400,1589896230.000657,41.35200865568941,-71.84496496555501,15.03419,0.01714711,286.4587977174468,9.623759656248149,4.730396027797645,-9999,63296.37015191667,-0.66253662109375,0.3139801025390625,-0.6738739013671875,1,0.84
2020-05-19 09:50:30.825 -0400,1589896230.000657,41.35200865568941,-71.84496496555501,15.03419,0.01714711,286.4587977174468,9.623759656248149,4.730396027797645,-9999,63296.42003991667,-0.65985107421875,0.3485107421875,-0.691925048828125,1,0.84
2020-05-19 09:50:30.875 -0400,1589896230.000657,41.35200865568941,-71.84496496555501,15.03419,0.01714711,286.4587977174468,9.623759656248149,4.730396027797645,-9999,63296.46993191667,-0.673187255859375,0.26800537109375,-0.6874847412109375,1,0.84
2020-05-19 09:50:30.925 -0400,1589896230.000657,41.35200865568941,-71.84496496555501,15.03419,0.01714711,286.4587977174468,9.623759656248149,4.730396027797645,-9999,63296.51982291667,-0.6980133056640625,0.3056488037109375,-0.6235504150390625,1,0.84
2020-05-19 09:50:30.974 -0400,1589896230.000657,41.35200865568941,-71.84496496555501,15.03419,0.01714711,286.4587977174468,9.623759656248149,4.730396027797645,-9999,63296.56971491667,-0.6945648193359375,0.3321533203125,-0.6107330322265625,1,0.84
2020-05-19 09:50:31.025 -0400,1589896230.000657,41.35200865568941,-71.84496496555501,15.03419,0.01714711,286.4587977174468,9.623759656248149,4.730396027797645,-9999,63296.61960591667,-0.6885528564453125,0.3139495849609375,-0.6324920654296875,1,0.84
2020-05-19 09:50:31.074 -0400,1589896230.000657,41.35200865568941,-71.84496496555501,15.03419,0.01714711,286.4587977174468,9.623759656248149,4.730396027797645,-9999,63296.66949491667,-0.6887054443359375,0.29693603515625,-0.676971435546875,1,0.84
2020-05-19 09:50:31.124 -0400,1589896230.000657,41.35200865568941,-71.84496496555501,15.03419,0.01714711,286.4587977174468,9.623759656248149,4.730396027797645,-9999,63296.71938291667,-0.66717529296875,0.2817535400390625,-0.704681396484375,1,0.84
2020-05-19 09:50:31.174 -0400,1589896230.000657,41.35200865568941,-71.84496496555501,15.03419,0.01714711,286.4587977174468,9.623759656248149,4.730396027797645,-9999,63296.76927291667,-0.6791229248046875,0.295074462890625,-0.6776123046875,1,0.84
2020-05-19 09:50:31.224 -0400,1589896230.000657,41.35200865568941,-71.84496496555501,15.03419,0.01714711,286.4587977174468,9.623759656248149,4.730396027797645,-9999,63296.81916291667,-0.677734375,0.2963104248046875,-0.66241455078125,1,0.84
2020-05-19 09:50:31.274 -0400,1589896230.000657,41.35200865568941,-71.84496496555501,15.03419,0.01714711,286.4587977174468,9.623759656248149,4.730396027797645,-9999,63296.86905391667,-0.6768951416015625,0.303680419921875,-0.6790771484375,1,0.84
2020-05-19 09:50:31.324 -0400,1589896231.000628,41.35201330787737,-71.8449628726607,15.52203,0.09128817,-1,3.480270635363406,4.659640902195794,-9999,63296.91894491667,-0.6822052001953125,0.30279541015625,-0.670867919921875,1,0.84
2020-05-19 09:50:31.374 -0400,1589896231.000628,41.35201330787737,-71.8449628726607,15.52203,0.09128817,-1,3.480270635363406,4.659640902195794,-9999,63296.96883554167,-0.6734771728515625,0.2806854248046875,-0.67486572265625,1,0.84
2020-05-19 09:50:31.424 -0400,1589896231.000628,41.35201330787737,-71.8449628726607,15.52203,0.09128817,-1,3.480270635363406,4.659640902195794,-9999,63297.01872254167,-0.6668243408203125,0.304290771484375,-0.7048187255859375,1,0.84
2020-05-19 09:50:31.474 -0400,1589896231.000628,41.35201330787737,-71.8449628726607,15.52203,0.09128817,-1,3.480270635363406,4.659640902195794,-9999,63297.06860854167,-0.6787567138671875,0.279754638671875,-0.663482666015625,1,0.84
2020-05-19 09:50:31.524 -0400,1589896231.000628,41.35201330787737,-71.8449628726607,15.52203,0.09128817,-1,3.480270635363406,4.659640902195794,-9999,63297.11849554167,-0.6725311279296875,0.274627685546875,-0.6835174560546875,1,0.84
2020-05-19 09:50:31.573 -0400,1589896231.000628,41.35201330787737,-71.8449628726607,15.52203,0.09128817,-1,3.480270635363406,4.659640902195794,-9999,63297.16838354167,-0.6807403564453125,0.31988525390625,-0.6801910400390625,1,0.84
2020-05-19 09:50:31.623 -0400,1589896231.000628,41.35201330787737,-71.8449628726607,15.52203,0.09128817,-1,3.480270635363406,4.659640902195794,-9999,63297.21827254167,-0.680450439453125,0.272552490234375,-0.6735382080078125,1,0.84
2020-05-19 09:50:31.673 -0400,1589896231.000628,41.35201330787737,-71.8449628726607,15.52203,0.09128817,-1,3.480270635363406,4.659640902195794,-9999,63297.26816154167,-0.6637420654296875,0.2833404541015625,-0.6906280517578125,1,0.84
2020-05-19 09:50:31.723 -0400,1589896231.000628,41.35201330787737,-71.8449628726607,15.52203,0.09128817,-1,3.480270635363406,4.659640902195794,-9999,63297.31805054167,-0.6837921142578125,0.2932281494140625,-0.680908203125,1,0.84
2020-05-19 09:50:31.773 -0400,1589896231.000628,41.35201330787737,-71.8449628726607,15.52203,0.09128817,-1,3.480270635363406,4.659640902195794,-9999,63297.36793854167,-0.6570587158203125,0.2254791259765625,-0.7012176513671875,1,0.84
2020-05-19 09:50:31.822 -0400,1589896231.000628,41.35201330787737,-71.8449628726607,15.52203,0.09128817,-1,3.480270635363406,4.659640902195794,-9999,63297.41782754167,-0.675872802734375,0.2461090087890625,-0.685546875,1,0.84
2020-05-19 09:50:31.872 -0400,1589896231.000628,41.35201330787737,-71.8449628726607,15.52203,0.09128817,-1,3.480270635363406,4.659640902195794,-9999,63297.46771954167,-0.6623687744140625,0.2872314453125,-0.69342041015625,1,0.84
2020-05-19 09:50:31.922 -0400,1589896231.000628,41.35201330787737,-71.8449628726607,15.52203,0.09128817,-1,3.480270635363406,4.659640902195794,-9999,63297.51761054167,-0.668121337890625,0.2934417724609375,-0.7063140869140625,1,0.84
2020-05-19 09:50:31.972 -0400,1589896231.000628,41.35201330787737,-71.8449628726607,15.52203,0.09128817,-1,3.480270635363406,4.659640902195794,-9999,63297.56750054167,-0.664398193359375,0.2583770751953125,-0.7273406982421875,1,0.84
2020-05-19 09:50:32.022 -0400,1589896231.000628,41.35201330787737,-71.8449628726607,15.52203,0.09128817,-1,3.480270635363406,4.659640902195794,-9999,63297.61738854167,-0.659423828125,0.1920623779296875,-0.725677490234375,1,0.84
2020-05-19 09:50:32.072 -0400,1589896231.000628,41.35201330787737,-71.8449628726607,15.52203,0.09128817,-1,3.480270635363406,4.659640902195794,-9999,63297.66727954167,-0.6644439697265625,0.201171875,-0.7965087890625,1,0.84
2020-05-19 09:50:32.122 -0400,1589896231.000628,41.35201330787737,-71.8449628726607,15.52203,0.09128817,-1,3.480270635363406,4.659640902195794,-9999,63297.71716854167,-0.6645355224609375,0.2253570556640625,-0.7126617431640625,1,0.84
2020-05-19 09:50:32.172 -0400,1589896231.000628,41.35201330787737,-71.8449628726607,15.52203,0.09128817,-1,3.480270635363406,4.659640902195794,-9999,63297.76705954167,-0.6239013671875,0.2121124267578125,-0.6426544189453125,1,0.84
2020-05-19 09:50:32.222 -0400,1589896231.000628,41.35201330787737,-71.8449628726607,15.52203,0.09128817,-1,3.480270635363406,4.659640902195794,-9999,63297.81694854167,-0.6195068359375,0.1963348388671875,-0.809478759765625,1,0.84
2020-05-19 09:50:32.272 -0400,1589896231.000628,41.35201330787737,-71.8449628726607,15.52203,0.09128817,-1,3.480270635363406,4.659640902195794,-9999,63297.86683654167,-0.664520263671875,0.416473388671875,-0.5582122802734375,1,0.84
2020-05-19 09:50:32.321 -0400,1589896231.000628,41.35201330787737,-71.8449628726607,15.52203,0.09128817,-1,3.480270635363406,4.659640902195794,-9999,63297.91672554167,-0.640533447265625,0.47528076171875,-0.5730133056640625,1,0.84
2020-05-19 09:50:32.371 -0400,1589896232.00062,41.35201317733618,-71.84496112572296,15.20047,0.05983474,-1,3.490160913240977,4.652237508175366,-9999,63297.966616375,-0.7052001953125,0.682830810546875,-0.4768218994140625,1,0.84
2020-05-19 09:50:32.421 -0400,1589896232.00062,41.35201317733618,-71.84496112572296,15.20047,0.05983474,-1,3.490160913240977,4.652237508175366,-9999,63298.016506375,-0.7624969482421875,0.4562530517578125,-0.2988128662109375,1,0.84
2020-05-19 09:50:32.471 -0400,1589896232.00062,41.35201317733618,-71.84496112572296,15.20047,0.05983474,-1,3.490160913240977,4.652237508175366,-9999,63298.066396375,-0.71636962890625,0.4611358642578125,-0.3367767333984375,1,0.84
2020-05-19 09:50:32.521 -0400,1589896232.00062,41.35201317733618,-71.84496112572296,15.20047,0.05983474,-1,3.490160913240977,4.652237508175366,-9999,63298.11628337501,-0.6192474365234375,0.3862152099609375,-0.787567138671875,1,0.84
2020-05-19 09:50:32.571 -0400,1589896232.00062,41.35201317733618,-71.84496112572296,15.20047,0.05983474,-1,3.490160913240977,4.652237508175366,-9999,63298.16616937501,-0.45574951171875,0.079498291015625,-1.116973876953125,1,0.84
2020-05-19 09:50:32.621 -0400,1589896232.00062,41.35201317733618,-71.84496112572296,15.20047,0.05983474,-1,3.490160913240977,4.652237508175366,-9999,63298.21605537501,-0.500396728515625,0.052734375,-0.8923797607421875,1,0.84
2020-05-19 09:50:32.670 -0400,1589896232.00062,41.35201317733618,-71.84496112572296,15.20047,0.05983474,-1,3.490160913240977,4.652237508175366,-9999,63298.265942375,-0.5894775390625,0.202239990234375,-0.7771759033203125,1,0.84
2020-05-19 09:50:32.720 -0400,1589896232.00062,41.35201317733618,-71.84496112572296,15.20047,0.05983474,-1,3.490160913240977,4.652237508175366,-9999,63298.315830375,-0.5774993896484375,0.1930389404296875,-0.7712554931640625,1,0.84
2020-05-19 09:50:32.770 -0400,1589896232.00062,41.35201317733618,-71.84496112572296,15.20047,0.05983474,-1,3.490160913240977,4.652237508175366,-9999,63298.365716375,-0.5615997314453125,0.041046142578125,-0.7944488525390625,1,0.84
2020-05-19 09:50:32.820 -0400,1589896232.00062,41.35201317733618,-71.84496112572296,15.20047,0.05983474,-1,3.490160913240977,4.652237508175366,-9999,63298.415605375,-0.5394287109375,0.0316925048828125,-0.8697662353515625,1,0.84
2020-05-19 09:50:32.870 -0400,1589896232.00062,41.35201317733618,-71.84496112572296,15.20047,0.05983474,-1,3.490160913240977,4.652237508175366,-9999,63298.46549437501,-0.54449462890625,0.0501861572265625,-0.830108642578125,1,0.84
2020-05-19 09:50:32.920 -0400,1589896232.00062,41.35201317733618,-71.84496112572296,15.20047,0.05983474,-1,3.490160913240977,4.652237508175366,-9999,63298.515383375,-0.5751800537109375,0.10577392578125,-0.850830078125,1,0.84
2020-05-19 09:50:32.970 -0400,1589896232.00062,41.35201317733618,-71.84496112572296,15.20047,0.05983474,-1,3.490160913240977,4.652237508175366,-9999,63298.565272375,-0.5513153076171875,0.029144287109375,-0.80059814453125,1,0.84
2020-05-19 09:50:33.020 -0400,1589896232.00062,41.35201317733618,-71.84496112572296,15.20047,0.05983474,-1,3.490160913240977,4.652237508175366,-9999,63298.615160375,-0.537750244140625,0.0558929443359375,-0.861785888671875,1,0.84
2020-05-19 09:50:33.069 -0400,1589896232.00062,41.35201317733618,-71.84496112572296,15.20047,0.05983474,-1,3.490160913240977,4.652237508175366,-9999,63298.66505037501,-0.52459716796875,0.0374603271484375,-0.850311279296875,1,0.84
2020-05-19 09:50:33.119 -0400,1589896232.00062,41.35201317733618,-71.84496112572296,15.20047,0.05983474,-1,3.490160913240977,4.652237508175366,-9999,63298.71493637501,-0.536590576171875,0.0761566162109375,-0.8431396484375,1,0.84
2020-05-19 09:50:33.169 -0400,1589896232.00062,41.35201317733618,-71.84496112572296,15.20047,0.05983474,-1,3.490160913240977,4.652237508175366,-9999,63298.764825375,-0.55218505859375,-0.1671905517578125,-0.76312255859375,1,0.84
2020-05-19 09:50:33.231 -0400,1589896232.00062,41.35201317733618,-71.84496112572296,15.20047,0.05983474,-1,3.490160913240977,4.652237508175366,-9999,63298.814714375,-0.5450897216796875,-0.1249542236328125,-0.79217529296875,1,0.84
2020-05-19 09:50:33.269 -0400,1589896233.000582,41.35201136392327,-71.84495547832724,15.54479,0.05774187,-1,3.497624902335943,4.646628570840186,-9999,63298.86460437501,-0.5077362060546875,-0.070953369140625,-0.9047698974609375,1,0.84
2020-05-19 09:50:33.319 -0400,1589896233.000582,41.35201136392327,-71.84495547832724,15.54479,0.05774187,-1,3.497624902335943,4.646628570840186,-9999,63298.914497375,-0.5111846923828125,-0.0969696044921875,-0.875335693359375,1,0.84
2020-05-19 09:50:33.369 -0400,1589896233.000582,41.35201136392327,-71.84495547832724,15.54479,0.05774187,-1,3.497624902335943,4.646628570840186,-9999,63298.96439225,-0.5658416748046875,0.110137939453125,-0.825164794921875,1,0.84
2020-05-19 09:50:33.419 -0400,1589896233.000582,41.35201136392327,-71.84495547832724,15.54479,0.05774187,-1,3.497624902335943,4.646628570840186,-9999,63299.01428525001,-0.5346832275390625,0.100830078125,-0.806427001953125,1,0.84
2020-05-19 09:50:33.469 -0400,1589896233.000582,41.35201136392327,-71.84495547832724,15.54479,0.05774187,-1,3.497624902335943,4.646628570840186,-9999,63299.06418025,-0.5473175048828125,0.0257568359375,-0.812957763671875,1,0.84
2020-05-19 09:50:33.519 -0400,1589896233.000582,41.35201136392327,-71.84495547832724,15.54479,0.05774187,-1,3.497624902335943,4.646628570840186,-9999,63299.11407425001,-0.5683441162109375,-0.003692626953125,-0.805511474609375,1,0.84
2020-05-19 09:50:33.568 -0400,1589896233.000582,41.35201136392327,-71.84495547832724,15.54479,0.05774187,-1,3.497624902335943,4.646628570840186,-9999,63299.16396425,-0.51580810546875,0.0425872802734375,-0.8959808349609375,1,0.84
2020-05-19 09:50:33.618 -0400,1589896233.000582,41.35201136392327,-71.84495547832724,15.54479,0.05774187,-1,3.497624902335943,4.646628570840186,-9999,63299.21385625,-0.5441131591796875,0.0593109130859375,-0.8040618896484375,1,0.84
2020-05-19 09:50:33.668 -0400,1589896233.000582,41.35201136392327,-71.84495547832724,15.54479,0.05774187,-1,3.497624902335943,4.646628570840186,-9999,63299.26374525001,-0.5835723876953125,0.050537109375,-0.820526123046875,1,0.84
2020-05-19 09:50:33.718 -0400,1589896233.000582,41.35201136392327,-71.84495547832724,15.54479,0.05774187,-1,3.497624902335943,4.646628570840186,-9999,63299.31364025,-0.5402679443359375,0.0123138427734375,-0.846466064453125,1,0.84
2020-05-19 09:50:33.768 -0400,1589896233.000582,41.35201136392327,-71.84495547832724,15.54479,0.05774187,-1,3.497624902335943,4.646628570840186,-9999,63299.36353225,-0.5456695556640625,0.04254150390625,-0.8441925048828125,1,0.84
2020-05-19 09:50:33.818 -0400,1589896233.000582,41.35201136392327,-71.84495547832724,15.54479,0.05774187,-1,3.497624902335943,4.646628570840186,-9999,63299.41342525,-0.5437469482421875,0.02813720703125,-0.836090087890625,1,0.84
2020-05-19 09:50:33.868 -0400,1589896233.000582,41.35201136392327,-71.84495547832724,15.54479,0.05774187,-1,3.497624902335943,4.646628570840186,-9999,63299.46331725,-0.531097412109375,-0.032440185546875,-0.8591156005859375,1,0.84
2020-05-19 09:50:33.918 -0400,1589896233.000582,41.35201136392327,-71.84495547832724,15.54479,0.05774187,-1,3.497624902335943,4.646628570840186,-9999,63299.51320925001,-0.531829833984375,-0.0124053955078125,-0.84747314453125,1,0.84
2020-05-19 09:50:33.968 -0400,1589896233.000582,41.35201136392327,-71.84495547832724,15.54479,0.05774187,-1,3.497624902335943,4.646628570840186,-9999,63299.56310025,-0.5441436767578125,0.0157470703125,-0.8409881591796875,1,0.84
2020-05-19 09:50:34.018 -0400,1589896233.000582,41.35201136392327,-71.84495547832724,15.54479,0.05774187,-1,3.497624902335943,4.646628570840186,-9999,63299.61298925,-0.5434112548828125,-0.007568359375,-0.8582305908203125,1,0.84
2020-05-19 09:50:34.067 -0400,1589896233.000582,41.35201136392327,-71.84495547832724,15.54479,0.05774187,-1,3.497624902335943,4.646628570840186,-9999,63299.66288125001,-0.533843994140625,-0.036865234375,-0.8152008056640625,1,0.84
2020-05-19 09:50:34.117 -0400,1589896233.000582,41.35201136392327,-71.84495547832724,15.54479,0.05774187,-1,3.497624902335943,4.646628570840186,-9999,63299.71277025001,-0.5368804931640625,0.0396270751953125,-0.8468475341796875,1,0.84
2020-05-19 09:50:34.167 -0400,1589896233.000582,41.35201136392327,-71.84495547832724,15.54479,0.05774187,-1,3.497624902335943,4.646628570840186,-9999,63299.76266225,-0.525177001953125,0.0677490234375,-0.8810882568359375,1,0.84
2020-05-19 09:50:34.217 -0400,1589896233.000582,41.35201136392327,-71.84495547832724,15.54479,0.05774187,-1,3.497624902335943,4.646628570840186,-9999,63299.81255325001,-0.5123443603515625,-0.123870849609375,-0.9373626708984375,1,0.84
2020-05-19 09:50:34.267 -0400,1589896234.000566,41.35200784904669,-71.84495543140812,15.6802,0.04763454,-1,3.512563491155827,4.63534623878174,-9999,63299.86244425,-0.5337066650390625,-0.2211761474609375,-0.8655853271484375,1,0.84
2020-05-19 09:50:34.317 -0400,1589896234.000566,41.35200784904669,-71.84495543140812,15.6802,0.04763454,-1,3.512563491155827,4.63534623878174,-9999,63299.91233625,-0.5386962890625,-0.0619964599609375,-0.8366546630859375,1,0.84
2020-05-19 09:50:34.366 -0400,1589896234.000566,41.35200784904669,-71.84495543140812,15.6802,0.04763454,-1,3.512563491155827,4.63534623878174,-9999,63299.96222716667,-0.5618133544921875,-0.22332763671875,-0.90386962890625,1,0.84
2020-05-19 09:50:34.416 -0400,1589896234.000566,41.35200784904669,-71.84495543140812,15.6802,0.04763454,-1,3.512563491155827,4.63534623878174,-9999,63300.01211716667,-0.5931243896484375,-0.2871856689453125,-0.7160797119140625,1,0.84
2020-05-19 09:50:34.466 -0400,1589896234.000566,41.35200784904669,-71.84495543140812,15.6802,0.04763454,-1,3.512563491155827,4.63534623878174,-9999,63300.06200916667,-0.6506195068359375,-0.17742919921875,-0.651123046875,1,0.84
2020-05-19 09:50:34.516 -0400,1589896234.000566,41.35200784904669,-71.84495543140812,15.6802,0.04763454,-1,3.512563491155827,4.63534623878174,-9999,63300.11190216667,-0.676544189453125,-0.0910186767578125,-0.746368408203125,1,0.84
2020-05-19 09:50:34.566 -0400,1589896234.000566,41.35200784904669,-71.84495543140812,15.6802,0.04763454,-1,3.512563491155827,4.63534623878174,-9999,63300.16179316667,-0.6407318115234375,-0.099761962890625,-0.8132781982421875,1,0.84
2020-05-19 09:50:34.616 -0400,1589896234.000566,41.35200784904669,-71.84495543140812,15.6802,0.04763454,-1,3.512563491155827,4.63534623878174,-9999,63300.21168316667,-0.6892852783203125,-0.1240692138671875,-0.772247314453125,1,0.84
2020-05-19 09:50:34.666 -0400,1589896234.000566,41.35200784904669,-71.84495543140812,15.6802,0.04763454,-1,3.512563491155827,4.63534623878174,-9999,63300.26157316667,-0.68768310546875,-0.07550048828125,-0.7039642333984375,1,0.84
2020-05-19 09:50:34.716 -0400,1589896234.000566,41.35200784904669,-71.84495543140812,15.6802,0.04763454,-1,3.512563491155827,4.63534623878174,-9999,63300.31146216667,-0.750335693359375,-0.02392578125,-0.6352996826171875,1,0.84
2020-05-19 09:50:34.766 -0400,1589896234.000566,41.35200784904669,-71.84495543140812,15.6802,0.04763454,-1,3.512563491155827,4.63534623878174,-9999,63300.36134916667,-0.7926483154296875,0.0229949951171875,-0.5298309326171875,1,0.84
2020-05-19 09:50:34.816 -0400,1589896234.000566,41.35200784904669,-71.84495543140812,15.6802,0.04763454,-1,3.512563491155827,4.63534623878174,-9999,63300.41124016667,-0.8052215576171875,-0.04046630859375,-0.51165771484375,1,0.84
2020-05-19 09:50:34.865 -0400,1589896234.000566,41.35200784904669,-71.84495543140812,15.6802,0.04763454,-1,3.512563491155827,4.63534623878174,-9999,63300.46113116667,-0.8164520263671875,0.0520477294921875,-0.428253173828125,1,0.84
2020-05-19 09:50:34.915 -0400,1589896234.000566,41.35200784904669,-71.84495543140812,15.6802,0.04763454,-1,3.512563491155827,4.63534623878174,-9999,63300.51102316667,-0.8157806396484375,0.05718994140625,-0.4700775146484375,1,0.84
2020-05-19 09:50:34.965 -0400,1589896234.000566,41.35200784904669,-71.84495543140812,15.6802,0.04763454,-1,3.512563491155827,4.63534623878174,-9999,63300.56091416667,-0.7788848876953125,0.0130615234375,-0.5384063720703125,1,0.84
2020-05-19 09:50:35.016 -0400,1589896234.000566,41.35200784904669,-71.84495543140812,15.6802,0.04763454,-1,3.512563491155827,4.63534623878174,-9999,63300.61080616667,-0.8328399658203125,0.2260284423828125,-0.535430908203125,1,0.84
2020-05-19 09:50:35.065 -0400,1589896234.000566,41.35200784904669,-71.84495543140812,15.6802,0.04763454,-1,3.512563491155827,4.63534623878174,-9999,63300.66069916667,-0.8821563720703125,0.6250457763671875,-0.3796539306640625,1,0.84
2020-05-19 09:50:35.115 -0400,1589896234.000566,41.35200784904669,-71.84495543140812,15.6802,0.04763454,-1,3.512563491155827,4.63534623878174,-9999,63300.71059016667,-0.8728179931640625,0.466766357421875,-0.4468841552734375,1,0.84
2020-05-19 09:50:35.165 -0400,1589896234.000566,41.35200784904669,-71.84495543140812,15.6802,0.04763454,-1,3.512563491155827,4.63534623878174,-9999,63300.76048416667,-0.7695770263671875,0.480133056640625,-0.3549957275390625,1,0.84
2020-05-19 09:50:35.215 -0400,1589896234.000566,41.35200784904669,-71.84495543140812,15.6802,0.04763454,-1,3.512563491155827,4.63534623878174,-9999,63300.81037716667,-0.7777557373046875,0.528839111328125,-0.3968658447265625,1,0.84
2020-05-19 09:50:35.265 -0400,1589896235.000542,41.35200664539151,-71.84496129777402,15.90828,0,-1,3.523649061350165,4.626924931878076,-9999,63300.86026816667,-0.817291259765625,0.5357818603515625,-0.3888092041015625,1,0.84
2020-05-19 09:50:35.315 -0400,1589896235.000542,41.35200664539151,-71.84496129777402,15.90828,0,-1,3.523649061350165,4.626924931878076,-9999,63300.91016316667,-0.8481292724609375,0.4845123291015625,-0.2997589111328125,1,0.84
2020-05-19 09:50:35.364 -0400,1589896235.000542,41.35200664539151,-71.84496129777402,15.90828,0,-1,3.523649061350165,4.626924931878076,-9999,63300.9600595,-0.803985595703125,0.4229583740234375,-0.3691253662109375,1,0.84
2020-05-19 09:50:35.414 -0400,1589896235.000542,41.35200664539151,-71.84496129777402,15.90828,0,-1,3.523649061350165,4.626924931878076,-9999,63301.0099535,-0.8451690673828125,0.4477996826171875,-0.192138671875,1,0.84
2020-05-19 09:50:35.464 -0400,1589896235.000542,41.35200664539151,-71.84496129777402,15.90828,0,-1,3.523649061350165,4.626924931878076,-9999,63301.0598475,-0.8443756103515625,0.4165802001953125,-0.341094970703125,1,0.84
2020-05-19 09:50:35.514 -0400,1589896235.000542,41.35200664539151,-71.84496129777402,15.90828,0,-1,3.523649061350165,4.626924931878076,-9999,63301.1097425,-0.870086669921875,0.47125244140625,-0.19281005859375,1,0.84
2020-05-19 09:50:35.564 -0400,1589896235.000542,41.35200664539151,-71.84496129777402,15.90828,0,-1,3.523649061350165,4.626924931878076,-9999,63301.1596375,-0.80450439453125,0.3919830322265625,-0.4453582763671875,1,0.84
2020-05-19 09:50:35.614 -0400,1589896235.000542,41.35200664539151,-71.84496129777402,15.90828,0,-1,3.523649061350165,4.626924931878076,-9999,63301.2095315,-0.84942626953125,0.363189697265625,-0.2261199951171875,1,0.84
2020-05-19 09:50:35.664 -0400,1589896235.000542,41.35200664539151,-71.84496129777402,15.90828,0,-1,3.523649061350165,4.626924931878076,-9999,63301.2594265,-0.8330535888671875,0.385406494140625,-0.3631744384765625,1,0.84
2020-05-19 09:50:35.713 -0400,1589896235.000542,41.35200664539151,-71.84496129777402,15.90828,0,-1,3.523649061350165,4.626924931878076,-9999,63301.3093225,-0.8278350830078125,0.346435546875,-0.3639984130859375,1,0.84
2020-05-19 09:50:35.763 -0400,1589896235.000542,41.35200664539151,-71.84496129777402,15.90828,0,-1,3.523649061350165,4.626924931878076,-9999,63301.3592175,-0.8485870361328125,0.323944091796875,-0.45703125,1,0.84
2020-05-19 09:50:35.813 -0400,1589896235.000542,41.35200664539151,-71.84496129777402,15.90828,0,-1,3.523649061350165,4.626924931878076,-9999,63301.40911450001,-0.797882080078125,0.385101318359375,-0.485260009765625,1,0.84
2020-05-19 09:50:35.863 -0400,1589896235.000542,41.35200664539151,-71.84496129777402,15.90828,0,-1,3.523649061350165,4.626924931878076,-9999,63301.4590125,-0.8099517822265625,0.38214111328125,-0.4429779052734375,1,0.84
2020-05-19 09:50:35.913 -0400,1589896235.000542,41.35200664539151,-71.84496129777402,15.90828,0,-1,3.523649061350165,4.626924931878076,-9999,63301.5089095,-0.8026275634765625,-0.0104522705078125,-0.5364837646484375,1,0.84
2020-05-19 09:50:35.963 -0400,1589896235.000542,41.35200664539151,-71.84496129777402,15.90828,0,-1,3.523649061350165,4.626924931878076,-9999,63301.5588065,-0.73590087890625,0.081939697265625,-0.64959716796875,1,0.84
2020-05-19 09:50:36.013 -0400,1589896235.000542,41.35200664539151,-71.84496129777402,15.90828,0,-1,3.523649061350165,4.626924931878076,-9999,63301.6087045,-0.7366790771484375,-0.241943359375,-0.66131591796875,1,0.84
2020-05-19 09:50:36.072 -0400,1589896235.000542,41.35200664539151,-71.84496129777402,15.90828,0,-1,3.523649061350165,4.626924931878076,-9999,63301.65860050001,-0.7301483154296875,-0.2771148681640625,-0.638214111328125,1,0.84
2020-05-19 09:50:36.113 -0400,1589896235.000542,41.35200664539151,-71.84496129777402,15.90828,0,-1,3.523649061350165,4.626924931878076,-9999,63301.7084965,-0.66314697265625,-0.3565826416015625,-0.6807403564453125,1,0.84
2020-05-19 09:50:36.163 -0400,1589896235.000542,41.35200664539151,-71.84496129777402,15.90828,0,-1,3.523649061350165,4.626924931878076,-9999,63301.75838950001,-0.6915283203125,-0.3598480224609375,-0.6155242919921875,1,0.84
2020-05-19 09:50:36.213 -0400,1589896235.000542,41.35200664539151,-71.84496129777402,15.90828,0,-1,3.523649061350165,4.626924931878076,-9999,63301.8082865,-0.665924072265625,-0.2571868896484375,-0.714263916015625,1,0.84
2020-05-19 09:50:36.263 -0400,1589896235.000542,41.35200664539151,-71.84496129777402,15.90828,0,-1,3.523649061350165,4.626924931878076,-9999,63301.85817950001,-0.6893463134765625,-0.3305206298828125,-0.61676025390625,1,0.84
2020-05-19 09:50:36.312 -0400,1589896235.000542,41.35200664539151,-71.84496129777402,15.90828,0,-1,3.523649061350165,4.626924931878076,-9999,63301.9080765,-0.66741943359375,-0.231353759765625,-0.737823486328125,1,0.84
2020-05-19 09:50:36.362 -0400,1589896236.000525,41.35200982430559,-71.84496091656774,16.17962,0,-1,3.545289874403485,4.610364057126179,-9999,63301.957970625,-0.664031982421875,-0.304840087890625,-0.6771240234375,1,0.84
2020-05-19 09:50:36.412 -0400,1589896236.000525,41.35200982430559,-71.84496091656774,16.17962,0,-1,3.545289874403485,4.610364057126179,-9999,63302.007862625,-0.6497344970703125,-0.2848968505859375,-0.749237060546875,1,0.84
2020-05-19 09:50:36.462 -0400,1589896236.000525,41.35200982430559,-71.84496091656774,16.17962,0,-1,3.545289874403485,4.610364057126179,-9999,63302.05775662501,-0.6510467529296875,-0.3140106201171875,-0.68450927734375,1,0.84
2020-05-19 09:50:36.512 -0400,1589896236.000525,41.35200982430559,-71.84496091656774,16.17962,0,-1,3.545289874403485,4.610364057126179,-9999,63302.107650625,-0.642333984375,-0.2823028564453125,-0.72576904296875,1,0.84
2020-05-19 09:50:36.562 -0400,1589896236.000525,41.35200982430559,-71.84496091656774,16.17962,0,-1,3.545289874403485,4.610364057126179,-9999,63302.15754362501,-0.660888671875,-0.304229736328125,-0.6810455322265625,1,0.84
2020-05-19 09:50:36.612 -0400,1589896236.000525,41.35200982430559,-71.84496091656774,16.17962,0,-1,3.545289874403485,4.610364057126179,-9999,63302.207434625,-0.6474456787109375,-0.270294189453125,-0.701416015625,1,0.84
2020-05-19 09:50:36.661 -0400,1589896236.000525,41.35200982430559,-71.84496091656774,16.17962,0,-1,3.545289874403485,4.610364057126179,-9999,63302.257322625,-0.6567840576171875,-0.2834014892578125,-0.714263916015625,1,0.84
2020-05-19 09:50:36.711 -0400,1589896236.000525,41.35200982430559,-71.84496091656774,16.17962,0,-1,3.545289874403485,4.610364057126179,-9999,63302.307211625,-0.662841796875,-0.2740020751953125,-0.6771697998046875,1,0.84
2020-05-19 09:50:36.761 -0400,1589896236.000525,41.35200982430559,-71.84496091656774,16.17962,0,-1,3.545289874403485,4.610364057126179,-9999,63302.35709962501,-0.6644439697265625,-0.2803192138671875,-0.688079833984375,1,0.84
2020-05-19 09:50:36.811 -0400,1589896236.000525,41.35200982430559,-71.84496091656774,16.17962,0,-1,3.545289874403485,4.610364057126179,-9999,63302.40698562501,-0.6580810546875,-0.3081512451171875,-0.6782379150390625,1,0.84
2020-05-19 09:50:36.861 -0400,1589896236.000525,41.35200982430559,-71.84496091656774,16.17962,0,-1,3.545289874403485,4.610364057126179,-9999,63302.45687162501,-0.6536407470703125,-0.2625274658203125,-0.720306396484375,1,0.84
2020-05-19 09:50:36.911 -0400,1589896236.000525,41.35200982430559,-71.84496091656774,16.17962,0,-1,3.545289874403485,4.610364057126179,-9999,63302.506759625,-0.65960693359375,-0.3172607421875,-0.681884765625,1,0.84
2020-05-19 09:50:36.961 -0400,1589896236.000525,41.35200982430559,-71.84496091656774,16.17962,0,-1,3.545289874403485,4.610364057126179,-9999,63302.556649625,-0.6581268310546875,-0.2665557861328125,-0.7018585205078125,1,0.84
2020-05-19 09:50:37.011 -0400,1589896236.000525,41.35200982430559,-71.84496091656774,16.17962,0,-1,3.545289874403485,4.610364057126179,-9999,63302.60653962501,-0.6611480712890625,-0.30267333984375,-0.67950439453125,1,0.84
2020-05-19 09:50:37.063 -0400,1589896236.000525,41.35200982430559,-71.84496091656774,16.17962,0,-1,3.545289874403485,4.610364057126179,-9999,63302.65642662501,-0.6527557373046875,-0.2784271240234375,-0.699432373046875,1,0.84
2020-05-19 09:50:37.110 -0400,1589896236.000525,41.35200982430559,-71.84496091656774,16.17962,0,-1,3.545289874403485,4.610364057126179,-9999,63302.706314625,-0.6569061279296875,-0.29302978515625,-0.700286865234375,1,0.84
2020-05-19 09:50:37.160 -0400,1589896236.000525,41.35200982430559,-71.84496091656774,16.17962,0,-1,3.545289874403485,4.610364057126179,-9999,63302.756205625,-0.6504974365234375,-0.2945098876953125,-0.7088623046875,1,0.84
2020-05-19 09:50:37.210 -0400,1589896236.000525,41.35200982430559,-71.84496091656774,16.17962,0,-1,3.545289874403485,4.610364057126179,-9999,63302.80609662501,-0.649169921875,-0.2910614013671875,-0.6977996826171875,1,0.84
2020-05-19 09:50:37.260 -0400,1589896236.000525,41.35200982430559,-71.84496091656774,16.17962,0,-1,3.545289874403485,4.610364057126179,-9999,63302.85598762501,-0.658966064453125,-0.2994537353515625,-0.6871795654296875,1,0.84
2020-05-19 09:50:37.310 -0400,1589896236.000525,41.35200982430559,-71.84496091656774,16.17962,0,-1,3.545289874403485,4.610364057126179,-9999,63302.905876625,-0.65216064453125,-0.3021392822265625,-0.699554443359375,1,0.84
2020-05-19 09:50:37.369 -0400,1589896236.000525,41.35200982430559,-71.84496091656774,16.17962,0,-1,3.545289874403485,4.610364057126179,-9999,63302.955771375,-0.6511688232421875,-0.3026580810546875,-0.6957550048828125,1,0.84
2020-05-19 09:50:37.410 -0400,1589896237.000507,41.35200819629307,-71.84496403748149,16.56109,0.1304829,-1,3.542464597205603,4.612535269278033,-9999,63303.00566437501,-0.6511383056640625,-0.2888946533203125,-0.709259033203125,1,0.84
2020-05-19 09:50:37.460 -0400,1589896237.000507,41.35200819629307,-71.84496403748149,16.56109,0.1304829,-1,3.542464597205603,4.612535269278033,-9999,63303.055556375,-0.65789794921875,-0.318328857421875,-0.6796875,1,0.84
2020-05-19 09:50:37.510 -0400,1589896237.000507,41.35200819629307,-71.84496403748149,16.56109,0.1304829,-1,3.542464597205603,4.612535269278033,-9999,63303.105446375,-0.6521453857421875,-0.263336181640625,-0.720550537109375,1,0.84
2020-05-19 09:50:37.559 -0400,1589896237.000507,41.35200819629307,-71.84496403748149,16.56109,0.1304829,-1,3.542464597205603,4.612535269278033,-9999,63303.15533537501,-0.653656005859375,-0.31072998046875,-0.6929931640625,1,0.84
2020-05-19 09:50:37.609 -0400,1589896237.000507,41.35200819629307,-71.84496403748149,16.56109,0.1304829,-1,3.542464597205603,4.612535269278033,-9999,63303.205224375,-0.649566650390625,-0.277679443359375,-0.691162109375,1,0.84
2020-05-19 09:50:37.659 -0400,1589896237.000507,41.35200819629307,-71.84496403748149,16.56109,0.1304829,-1,3.542464597205603,4.612535269278033,-9999,63303.255112375,-0.657470703125,-0.3091583251953125,-0.685455322265625,1,0.84
2020-05-19 09:50:37.709 -0400,1589896237.000507,41.35200819629307,-71.84496403748149,16.56109,0.1304829,-1,3.542464597205603,4.612535269278033,-9999,63303.304999375,-0.643890380859375,-0.298492431640625,-0.70062255859375,1,0.84
2020-05-19 09:50:37.759 -0400,1589896237.000507,41.35200819629307,-71.84496403748149,16.56109,0.1304829,-1,3.542464597205603,4.612535269278033,-9999,63303.354886375,-0.6531829833984375,-0.301055908203125,-0.6996612548828125,1,0.84
2020-05-19 09:50:37.809 -0400,1589896237.000507,41.35200819629307,-71.84496403748149,16.56109,0.1304829,-1,3.542464597205603,4.612535269278033,-9999,63303.40477437501,-0.6588592529296875,-0.3174285888671875,-0.676300048828125,1,0.84
2020-05-19 09:50:37.858 -0400,1589896237.000507,41.35200819629307,-71.84496403748149,16.56109,0.1304829,-1,3.542464597205603,4.612535269278033,-9999,63303.45466237501,-0.6522979736328125,-0.3103179931640625,-0.6875762939453125,1,0.84
2020-05-19 09:50:37.908 -0400,1589896237.000507,41.35200819629307,-71.84496403748149,16.56109,0.1304829,-1,3.542464597205603,4.612535269278033,-9999,63303.504555375,-0.6641998291015625,-0.300994873046875,-0.693389892578125,1,0.84
2020-05-19 09:50:37.958 -0400,1589896237.000507,41.35200819629307,-71.84496403748149,16.56109,0.1304829,-1,3.542464597205603,4.612535269278033,-9999,63303.554445375,-0.6508331298828125,-0.294158935546875,-0.7095794677734375,1,0.84
2020-05-19 09:50:38.008 -0400,1589896237.000507,41.35200819629307,-71.84496403748149,16.56109,0.1304829,-1,3.542464597205603,4.612535269278033,-9999,63303.60433737501,-0.651947021484375,-0.3109130859375,-0.692413330078125,1,0.84
2020-05-19 09:50:38.058 -0400,1589896237.000507,41.35200819629307,-71.84496403748149,16.56109,0.1304829,-1,3.542464597205603,4.612535269278033,-9999,63303.654228375,-0.6640472412109375,-0.30340576171875,-0.6873321533203125,1,0.84
2020-05-19 09:50:38.108 -0400,1589896237.000507,41.35200819629307,-71.84496403748149,16.56109,0.1304829,-1,3.542464597205603,4.612535269278033,-9999,63303.704118375,-0.6540679931640625,-0.31500244140625,-0.6831817626953125,1,0.84
2020-05-19 09:50:38.158 -0400,1589896237.000507,41.35200819629307,-71.84496403748149,16.56109,0.1304829,-1,3.542464597205603,4.612535269278033,-9999,63303.75400837501,-0.6541900634765625,-0.2934722900390625,-0.6974639892578125,1,0.84
2020-05-19 09:50:38.208 -0400,1589896237.000507,41.35200819629307,-71.84496403748149,16.56109,0.1304829,-1,3.542464597205603,4.612535269278033,-9999,63303.803900375,-0.657470703125,-0.29638671875,-0.6960601806640625,1,0.84
2020-05-19 09:50:38.258 -0400,1589896237.000507,41.35200819629307,-71.84496403748149,16.56109,0.1304829,-1,3.542464597205603,4.612535269278033,-9999,63303.853791375,-0.6526641845703125,-0.3128814697265625,-0.6890716552734375,1,0.84
2020-05-19 09:50:38.308 -0400,1589896238.000493,41.35200156684412,-71.84496614640651,16.98697,0.1505015,-1,3.527759586354384,4.623791662010042,-9999,63303.90368437501,-0.6553955078125,-0.299896240234375,-0.684356689453125,1,0.84
2020-05-19 09:50:38.357 -0400,1589896238.000493,41.35200156684412,-71.84496614640651,16.98697,0.1505015,-1,3.527759586354384,4.623791662010042,-9999,63303.953573625,-0.6487579345703125,-0.31573486328125,-0.6937713623046875,1,0.84
2020-05-19 09:50:38.407 -0400,1589896238.000493,41.35200156684412,-71.84496614640651,16.98697,0.1505015,-1,3.527759586354384,4.623791662010042,-9999,63304.00346462501,-0.64959716796875,-0.3134918212890625,-0.697601318359375,1,0.84
2020-05-19 09:50:38.457 -0400,1589896238.000493,41.35200156684412,-71.84496614640651,16.98697,0.1505015,-1,3.527759586354384,4.623791662010042,-9999,63304.053355625,-0.650146484375,-0.30755615234375,-0.6920318603515625,1,0.84
2020-05-19 09:50:38.507 -0400,1589896238.000493,41.35200156684412,-71.84496614640651,16.98697,0.1505015,-1,3.527759586354384,4.623791662010042,-9999,63304.103246625,-0.6512298583984375,-0.3087921142578125,-0.691558837890625,1,0.84
2020-05-19 09:50:38.557 -0400,1589896238.000493,41.35200156684412,-71.84496614640651,16.98697,0.1505015,-1,3.527759586354384,4.623791662010042,-9999,63304.15313662501,-0.6470489501953125,-0.3089752197265625,-0.6995697021484375,1,0.84
2020-05-19 09:50:38.607 -0400,1589896238.000493,41.35200156684412,-71.84496614640651,16.98697,0.1505015,-1,3.527759586354384,4.623791662010042,-9999,63304.203027625,-0.6431732177734375,-0.321319580078125,-0.6942291259765625,1,0.84
2020-05-19 09:50:38.657 -0400,1589896238.000493,41.35200156684412,-71.84496614640651,16.98697,0.1505015,-1,3.527759586354384,4.623791662010042,-9999,63304.252917625,-0.6407928466796875,-0.320587158203125,-0.6953277587890625,1,0.84
2020-05-19 09:50:38.707 -0400,1589896238.000493,41.35200156684412,-71.84496614640651,16.98697,0.1505015,-1,3.527759586354384,4.623791662010042,-9999,63304.302805625,-0.6395111083984375,-0.311553955078125,-0.71051025390625,1,0.84
2020-05-19 09:50:38.757 -0400,1589896238.000493,41.35200156684412,-71.84496614640651,16.98697,0.1505015,-1,3.527759586354384,4.623791662010042,-9999,63304.35269362501,-0.642181396484375,-0.317352294921875,-0.698638916015625,1,0.84
2020-05-19 09:50:38.807 -0400,1589896238.000493,41.35200156684412,-71.84496614640651,16.98697,0.1505015,-1,3.527759586354384,4.623791662010042,-9999,63304.40258162501,-0.6402130126953125,-0.321502685546875,-0.6927490234375,1,0.84
2020-05-19 09:50:38.856 -0400,1589896238.000493,41.35200156684412,-71.84496614640651,16.98697,0.1505015,-1,3.527759586354384,4.623791662010042,-9999,63304.452472625,-0.645111083984375,-0.340240478515625,-0.6901092529296875,1,0.84
2020-05-19 09:50:38.906 -0400,1589896238.000493,41.35200156684412,-71.84496614640651,16.98697,0.1505015,-1,3.527759586354384,4.623791662010042,-9999,63304.502363625,-0.6420135498046875,-0.318572998046875,-0.6873626708984375,1,0.84
2020-05-19 09:50:38.956 -0400,1589896238.000493,41.35200156684412,-71.84496614640651,16.98697,0.1505015,-1,3.527759586354384,4.623791662010042,-9999,63304.55225462501,-0.637603759765625,-0.31011962890625,-0.7066497802734375,1,0.84
2020-05-19 09:50:39.007 -0400,1589896238.000493,41.35200156684412,-71.84496614640651,16.98697,0.1505015,-1,3.527759586354384,4.623791662010042,-9999,63304.602144625,-0.641754150390625,-0.300445556640625,-0.696380615234375,1,0.84
2020-05-19 09:50:39.067 -0400,1589896238.000493,41.35200156684412,-71.84496614640651,16.98697,0.1505015,-1,3.527759586354384,4.623791662010042,-9999,63304.652038625,-0.6468048095703125,-0.3131866455078125,-0.700531005859375,1,0.84
2020-05-19 09:50:39.106 -0400,1589896238.000493,41.35200156684412,-71.84496614640651,16.98697,0.1505015,-1,3.527759586354384,4.623791662010042,-9999,63304.70192862501,-0.646331787109375,-0.3070068359375,-0.692047119140625,1,0.84
2020-05-19 09:50:39.156 -0400,1589896238.000493,41.35200156684412,-71.84496614640651,16.98697,0.1505015,-1,3.527759586354384,4.623791662010042,-9999,63304.751815625,-0.6417083740234375,-0.3125,-0.70220947265625,1,0.84
2020-05-19 09:50:39.206 -0400,1589896238.000493,41.35200156684412,-71.84496614640651,16.98697,0.1505015,-1,3.527759586354384,4.623791662010042,-9999,63304.801704625,-0.64019775390625,-0.32489013671875,-0.6929168701171875,1,0.84
2020-05-19 09:50:39.256 -0400,1589896239.000482,41.35199715292596,-71.8449628466101,17.42161,0.1385555,-1,3.51574655078839,4.632932464801141,-9999,63304.851590625,-0.6442108154296875,-0.32769775390625,-0.6969146728515625,1,0.84
2020-05-19 09:50:39.305 -0400,1589896239.000482,41.35199715292596,-71.8449628466101,17.42161,0.1385555,-1,3.51574655078839,4.632932464801141,-9999,63304.901475625,-0.6432342529296875,-0.3094940185546875,-0.6878662109375,1,0.84
2020-05-19 09:50:39.355 -0400,1589896239.000482,41.35199715292596,-71.8449628466101,17.42161,0.1385555,-1,3.51574655078839,4.632932464801141,-9999,63304.95136029167,-0.648162841796875,-0.295684814453125,-0.7025909423828125,1,0.84
2020-05-19 09:50:39.405 -0400,1589896239.000482,41.35199715292596,-71.8449628466101,17.42161,0.1385555,-1,3.51574655078839,4.632932464801141,-9999,63305.00124929167,-0.6450042724609375,-0.309295654296875,-0.698089599609375,1,0.84
2020-05-19 09:50:39.455 -0400,1589896239.000482,41.35199715292596,-71.8449628466101,17.42161,0.1385555,-1,3.51574655078839,4.632932464801141,-9999,63305.05113729167,-0.6423187255859375,-0.316192626953125,-0.6971893310546875,1,0.84
2020-05-19 09:50:39.505 -0400,1589896239.000482,41.35199715292596,-71.8449628466101,17.42161,0.1385555,-1,3.51574655078839,4.632932464801141,-9999,63305.10102629167,-0.644744873046875,-0.3153228759765625,-0.699920654296875,1,0.84
2020-05-19 09:50:39.555 -0400,1589896239.000482,41.35199715292596,-71.8449628466101,17.42161,0.1385555,-1,3.51574655078839,4.632932464801141,-9999,63305.15091129167,-0.64166259765625,-0.3122406005859375,-0.6941986083984375,1,0.84
2020-05-19 09:50:39.605 -0400,1589896239.000482,41.35199715292596,-71.8449628466101,17.42161,0.1385555,-1,3.51574655078839,4.632932464801141,-9999,63305.20079529167,-0.641448974609375,-0.306427001953125,-0.7095489501953125,1,0.84
2020-05-19 09:50:39.655 -0400,1589896239.000482,41.35199715292596,-71.8449628466101,17.42161,0.1385555,-1,3.51574655078839,4.632932464801141,-9999,63305.25067929167,-0.6419830322265625,-0.320709228515625,-0.692138671875,1,0.84
2020-05-19 09:50:39.704 -0400,1589896239.000482,41.35199715292596,-71.8449628466101,17.42161,0.1385555,-1,3.51574655078839,4.632932464801141,-9999,63305.30056529167,-0.6482391357421875,-0.3240966796875,-0.696624755859375,1,0.84
2020-05-19 09:50:39.754 -0400,1589896239.000482,41.35199715292596,-71.8449628466101,17.42161,0.1385555,-1,3.51574655078839,4.632932464801141,-9999,63305.35045129167,-0.638641357421875,-0.3189697265625,-0.701812744140625,1,0.84
2020-05-19 09:50:39.804 -0400,1589896239.000482,41.35199715292596,-71.8449628466101,17.42161,0.1385555,-1,3.51574655078839,4.632932464801141,-9999,63305.40033629167,-0.63775634765625,-0.316192626953125,-0.7021942138671875,1,0.84
2020-05-19 09:50:39.854 -0400,1589896239.000482,41.35199715292596,-71.8449628466101,17.42161,0.1385555,-1,3.51574655078839,4.632932464801141,-9999,63305.45022329167,-0.63897705078125,-0.324920654296875,-0.7009735107421875,1,0.84
2020-05-19 09:50:39.904 -0400,1589896239.000482,41.35199715292596,-71.8449628466101,17.42161,0.1385555,-1,3.51574655078839,4.632932464801141,-9999,63305.50010829167,-0.6413421630859375,-0.3332672119140625,-0.7037811279296875,1,0.84
2020-05-19 09:50:39.954 -0400,1589896239.000482,41.35199715292596,-71.8449628466101,17.42161,0.1385555,-1,3.51574655078839,4.632932464801141,-9999,63305.54999529167,-0.65777587890625,-0.3231048583984375,-0.710418701171875,1,0.84
2020-05-19 09:50:40.004 -0400,1589896239.000482,41.35199715292596,-71.8449628466101,17.42161,0.1385555,-1,3.51574655078839,4.632932464801141,-9999,63305.59988229167,-0.6302947998046875,-0.3250274658203125,-0.7167205810546875,1,0.84
2020-05-19 09:50:40.068 -0400,1589896239.000482,41.35199715292596,-71.8449628466101,17.42161,0.1385555,-1,3.51574655078839,4.632932464801141,-9999,63305.64977029167,-0.6597900390625,-0.28802490234375,-0.6892852783203125,1,0.84
2020-05-19 09:50:40.104 -0400,1589896239.000482,41.35199715292596,-71.8449628466101,17.42161,0.1385555,-1,3.51574655078839,4.632932464801141,-9999,63305.69965529167,-0.677215576171875,-0.2625579833984375,-0.6712493896484375,1,0.84
2020-05-19 09:50:40.153 -0400,1589896239.000482,41.35199715292596,-71.8449628466101,17.42161,0.1385555,-1,3.51574655078839,4.632932464801141,-9999,63305.74954129167,-0.6869049072265625,-0.201995849609375,-0.6544952392578125,1,0.84
2020-05-19 09:50:40.203 -0400,1589896239.000482,41.35199715292596,-71.8449628466101,17.42161,0.1385555,-1,3.51574655078839,4.632932464801141,-9999,63305.79942829167,-0.6709747314453125,-0.17547607421875,-0.7052459716796875,1,0.84
2020-05-19 09:50:40.253 -0400,1589896239.000482,41.35199715292596,-71.8449628466101,17.42161,0.1385555,-1,3.51574655078839,4.632932464801141,-9999,63305.84931729167,-0.6807403564453125,-0.200958251953125,-0.6958160400390625,1,0.84
2020-05-19 09:50:40.308 -0400,1589896239.000482,41.35199715292596,-71.8449628466101,17.42161,0.1385555,-1,3.51574655078839,4.632932464801141,-9999,63305.89920629167,-0.6517486572265625,-0.247955322265625,-0.733489990234375,1,0.84
2020-05-19 09:50:40.353 -0400,1589896240.000466,41.35199431984793,-71.84495868819175,18.22847,0.1627147,-1,3.509205975102322,4.637888577477363,-9999,63305.94909129167,-0.6537322998046875,-0.317718505859375,-0.701568603515625,1,0.84
2020-05-19 09:50:40.403 -0400,1589896240.000466,41.35199431984793,-71.84495868819175,18.22847,0.1627147,-1,3.509205975102322,4.637888577477363,-9999,63305.99897875,-0.6453704833984375,-0.3094635009765625,-0.7208404541015625,1,0.84
2020-05-19 09:50:40.453 -0400,1589896240.000466,41.35199431984793,-71.84495868819175,18.22847,0.1627147,-1,3.509205975102322,4.637888577477363,-9999,63306.04886475,-0.660400390625,-0.2599945068359375,-0.6919708251953125,1,0.84
2020-05-19 09:50:40.503 -0400,1589896240.000466,41.35199431984793,-71.84495868819175,18.22847,0.1627147,-1,3.509205975102322,4.637888577477363,-9999,63306.09875175,-0.661712646484375,-0.243438720703125,-0.710052490234375,1,0.84
2020-05-19 09:50:40.552 -0400,1589896240.000466,41.35199431984793,-71.84495868819175,18.22847,0.1627147,-1,3.509205975102322,4.637888577477363,-9999,63306.14863875,-0.6778564453125,-0.2265777587890625,-0.6728515625,1,0.84
2020-05-19 09:50:40.602 -0400,1589896240.000466,41.35199431984793,-71.84495868819175,18.22847,0.1627147,-1,3.509205975102322,4.637888577477363,-9999,63306.19852575001,-0.6491851806640625,-0.2760467529296875,-0.7401885986328125,1,0.84
2020-05-19 09:50:40.652 -0400,1589896240.000466,41.35199431984793,-71.84495868819175,18.22847,0.1627147,-1,3.509205975102322,4.637888577477363,-9999,63306.24841275001,-0.66375732421875,-0.2659912109375,-0.6793670654296875,1,0.84
2020-05-19 09:50:40.702 -0400,1589896240.000466,41.35199431984793,-71.84495868819175,18.22847,0.1627147,-1,3.509205975102322,4.637888577477363,-9999,63306.29830175,-0.6481781005859375,-0.1908416748046875,-0.7463531494140625,1,0.84
2020-05-19 09:50:40.752 -0400,1589896240.000466,41.35199431984793,-71.84495868819175,18.22847,0.1627147,-1,3.509205975102322,4.637888577477363,-9999,63306.34819375,-0.6629638671875,-0.17498779296875,-0.716583251953125,1,0.84
2020-05-19 09:50:40.802 -0400,1589896240.000466,41.35199431984793,-71.84495868819175,18.22847,0.1627147,-1,3.509205975102322,4.637888577477363,-9999,63306.39808275001,-0.6449737548828125,-0.193450927734375,-0.7068939208984375,1,0.84
2020-05-19 09:50:40.852 -0400,1589896240.000466,41.35199431984793,-71.84495868819175,18.22847,0.1627147,-1,3.509205975102322,4.637888577477363,-9999,63306.44796975001,-0.653228759765625,-0.1450958251953125,-0.72894287109375,1,0.84
2020-05-19 09:50:40.902 -0400,1589896240.000466,41.35199431984793,-71.84495868819175,18.22847,0.1627147,-1,3.509205975102322,4.637888577477363,-9999,63306.49786075,-0.6381072998046875,-0.1914215087890625,-0.6951751708984375,1,0.84
2020-05-19 09:50:40.951 -0400,1589896240.000466,41.35199431984793,-71.84495868819175,18.22847,0.1627147,-1,3.509205975102322,4.637888577477363,-9999,63306.54775275,-0.6310272216796875,-0.1106719970703125,-0.7592926025390625,1,0.84
2020-05-19 09:50:41.001 -0400,1589896240.000466,41.35199431984793,-71.84495868819175,18.22847,0.1627147,-1,3.509205975102322,4.637888577477363,-9999,63306.59764175001,-0.569244384765625,-0.174530029296875,-0.815155029296875,1,0.84
2020-05-19 09:50:41.051 -0400,1589896240.000466,41.35199431984793,-71.84495868819175,18.22847,0.1627147,-1,3.509205975102322,4.637888577477363,-9999,63306.64753175,-0.5510406494140625,-0.0613555908203125,-0.9737701416015625,1,0.84
2020-05-19 09:50:41.101 -0400,1589896240.000466,41.35199431984793,-71.84495868819175,18.22847,0.1627147,-1,3.509205975102322,4.637888577477363,-9999,63306.69742175,-0.5184478759765625,-0.26312255859375,-0.7953033447265625,1,0.84
2020-05-19 09:50:41.151 -0400,1589896240.000466,41.35199431984793,-71.84495868819175,18.22847,0.1627147,-1,3.509205975102322,4.637888577477363,-9999,63306.74731075,-0.5688018798828125,-0.15509033203125,-0.973785400390625,1,0.84
2020-05-19 09:50:41.201 -0400,1589896240.000466,41.35199431984793,-71.84495868819175,18.22847,0.1627147,-1,3.509205975102322,4.637888577477363,-9999,63306.79719975001,-0.6065216064453125,-0.1242523193359375,-0.908050537109375,1,0.84
2020-05-19 09:50:41.251 -0400,1589896240.000466,41.35199431984793,-71.84495868819175,18.22847,0.1627147,-1,3.509205975102322,4.637888577477363,-9999,63306.84708975,-0.6230926513671875,-0.13018798828125,-0.7185821533203125,1,0.84
2020-05-19 09:50:41.301 -0400,1589896240.000466,41.35199431984793,-71.84495868819175,18.22847,0.1627147,-1,3.509205975102322,4.637888577477363,-9999,63306.89698175,-0.704742431640625,-0.1300201416015625,-0.646575927734375,1,0.84
2020-05-19 09:50:41.351 -0400,1589896241.000453,41.3519907263609,-71.84495570994905,18.66012,0.1793607,-1,3.50346879898173,4.642223972122667,-9999,63306.94687175001,-0.70355224609375,-0.21783447265625,-0.60430908203125,1,0.84
2020-05-19 09:50:41.401 -0400,1589896241.000453,41.3519907263609,-71.84495570994905,18.66012,0.1793607,-1,3.50346879898173,4.642223972122667,-9999,63306.996760375,-0.730194091796875,-0.1149749755859375,-0.629608154296875,1,0.84
2020-05-19 09:50:41.450 -0400,1589896241.000453,41.3519907263609,-71.84495570994905,18.66012,0.1793607,-1,3.50346879898173,4.642223972122667,-9999,63307.04664837501,-0.748870849609375,-0.1544952392578125,-0.5767822265625,1,0.84
2020-05-19 09:50:41.500 -0400,1589896241.000453,41.3519907263609,-71.84495570994905,18.66012,0.1793607,-1,3.50346879898173,4.642223972122667,-9999,63307.09653537501,-0.79217529296875,-0.0501556396484375,-0.540496826171875,1,0.84
2020-05-19 09:50:41.550 -0400,1589896241.000453,41.3519907263609,-71.84495570994905,18.66012,0.1793607,-1,3.50346879898173,4.642223972122667,-9999,63307.146424375,-0.7772979736328125,0.1030731201171875,-0.6387939453125,1,0.84
2020-05-19 09:50:41.600 -0400,1589896241.000453,41.3519907263609,-71.84495570994905,18.66012,0.1793607,-1,3.50346879898173,4.642223972122667,-9999,63307.196315375,-0.7166290283203125,0.0202178955078125,-0.683135986328125,1,0.84
2020-05-19 09:50:41.650 -0400,1589896241.000453,41.3519907263609,-71.84495570994905,18.66012,0.1793607,-1,3.50346879898173,4.642223972122667,-9999,63307.24620437501,-0.702178955078125,-0.075592041015625,-0.707611083984375,1,0.84
