loggingTime(txt),locationTimestamp_since1970(s),locationLatitude(WGS84),locationLongitude(WGS84),locationAltitude(m),locationSpeed(m/s),locationCourse(°),locationVerticalAccuracy(m),locationHorizontalAccuracy(m),locationFloor(Z),accelerometerTimestamp_sinceReboot(s),accelerometerAccelerationX(G),accelerometerAccelerationY(G),accelerometerAccelerationZ(G),batteryState,batteryLevel
2020-05-20 00:21:37.667 -0400,1589948497.000953,41.35201352854942,-71.84498834618125,16.3667,0,-1,3.434103695427687,4.693769150889159,-9999,15562.386646875,0.700775146484375,-0.6898040771484375,0.20660400390625,1,0.63
2020-05-20 00:21:37.710 -0400,1589948497.000953,41.35201352854942,-71.84498834618125,16.3667,0,-1,3.434103695427687,4.693769150889159,-9999,15562.436541875,0.6845550537109375,-0.6763916015625,0.2126007080078125,1,0.63
2020-05-20 00:21:37.759 -0400,1589948497.000953,41.35201352854942,-71.84498834618125,16.3667,0,-1,3.434103695427687,4.693769150889159,-9999,15562.486435875,0.68768310546875,-0.686187744140625,0.2183685302734375,1,0.63
2020-05-20 00:21:37.809 -0400,1589948497.000953,41.35201352854942,-71.84498834618125,16.3667,0,-1,3.434103695427687,4.693769150889159,-9999,15562.536328875,0.67822265625,-0.67791748046875,0.2282257080078125,1,0.63
2020-05-20 00:21:37.859 -0400,1589948497.000953,41.35201352854942,-71.84498834618125,16.3667,0,-1,3.434103695427687,4.693769150889159,-9999,15562.586220875,0.6789703369140625,-0.6849822998046875,0.2306671142578125,1,0.63
2020-05-20 00:21:37.909 -0400,1589948497.000953,41.35201352854942,-71.84498834618125,16.3667,0,-1,3.434103695427687,4.693769150889159,-9999,15562.636112875,0.6768646240234375,-0.684051513671875,0.257598876953125,1,0.63
2020-05-20 00:21:37.959 -0400,1589948497.000953,41.35201352854942,-71.84498834618125,16.3667,0,-1,3.434103695427687,4.693769150889159,-9999,15562.686003875,0.6778411865234375,-0.6646270751953125,0.2776336669921875,1,0.63
2020-05-20 00:21:38.009 -0400,1589948497.000953,41.35201352854942,-71.84498834618125,16.3667,0,-1,3.434103695427687,4.693769150889159,-9999,15562.735896875,0.6574859619140625,-0.56878662109375,0.3365478515625,1,0.63
2020-05-20 00:21:38.059 -0400,1589948497.000953,41.35201352854942,-71.84498834618125,16.3667,0,-1,3.434103695427687,4.693769150889159,-9999,15562.785788875,0.688385009765625,-0.4667816162109375,0.1834716796875,1,0.63
2020-05-20 00:21:38.109 -0400,1589948497.000953,41.35201352854942,-71.84498834618125,16.3667,0,-1,3.434103695427687,4.693769150889159,-9999,15562.835676875,0.632110595703125,-0.5304107666015625,0.1321563720703125,1,0.63
2020-05-20 00:21:38.158 -0400,1589948497.000953,41.35201352854942,-71.84498834618125,16.3667,0,-1,3.434103695427687,4.693769150889159,-9999,15562.88556566667,0.67608642578125,-0.5604705810546875,0.0439300537109375,1,0.63
2020-05-20 00:21:38.208 -0400,1589948497.000953,41.35201352854942,-71.84498834618125,16.3667,0,-1,3.434103695427687,4.693769150889159,-9999,15562.93545366667,0.733673095703125,-0.685699462890625,0.0792083740234375,1,0.63
2020-05-20 00:21:38.258 -0400,1589948498.000974,41.35201026383812,-71.84498484659679,22.93625,1.920313,-1,3.265512509405876,4.812584033936713,-9999,15562.98534066667,0.7952117919921875,-0.693145751953125,0.0111541748046875,1,0.63
2020-05-20 00:21:38.308 -0400,1589948498.000974,41.35201026383812,-71.84498484659679,22.93625,1.920313,-1,3.265512509405876,4.812584033936713,-9999,15563.03523066667,0.8298492431640625,-0.698577880859375,-0.04510498046875,1,0.63
2020-05-20 00:21:38.358 -0400,1589948498.000974,41.35201026383812,-71.84498484659679,22.93625,1.920313,-1,3.265512509405876,4.812584033936713,-9999,15563.08511966667,0.9227752685546875,-0.9178009033203125,-0.2383270263671875,1,0.63
2020-05-20 00:21:38.408 -0400,1589948498.000974,41.35201026383812,-71.84498484659679,22.93625,1.920313,-1,3.265512509405876,4.812584033936713,-9999,15563.13500966667,0.9898529052734375,-0.5374603271484375,-0.2654266357421875,1,0.63
2020-05-20 00:21:38.458 -0400,1589948498.000974,41.35201026383812,-71.84498484659679,22.93625,1.920313,-1,3.265512509405876,4.812584033936713,-9999,15563.18489866667,0.9502105712890625,-0.70257568359375,-0.241912841796875,1,0.63
2020-05-20 00:21:38.508 -0400,1589948498.000974,41.35201026383812,-71.84498484659679,22.93625,1.920313,-1,3.265512509405876,4.812584033936713,-9999,15563.23478966667,0.8981475830078125,-0.762786865234375,-0.2736663818359375,1,0.63
2020-05-20 00:21:38.557 -0400,1589948498.000974,41.35201026383812,-71.84498484659679,22.93625,1.920313,-1,3.265512509405876,4.812584033936713,-9999,15563.28467966667,0.889312744140625,-0.772674560546875,-0.2838134765625,1,0.63
2020-05-20 00:21:38.608 -0400,1589948498.000974,41.35201026383812,-71.84498484659679,22.93625,1.920313,-1,3.265512509405876,4.812584033936713,-9999,15563.33456966667,0.82373046875,-0.7073516845703125,-0.1639251708984375,1,0.63
2020-05-20 00:21:38.657 -0400,1589948498.000974,41.35201026383812,-71.84498484659679,22.93625,1.920313,-1,3.265512509405876,4.812584033936713,-9999,15563.38445666667,0.7612152099609375,-0.7174835205078125,-0.1057281494140625,1,0.63
2020-05-20 00:21:38.707 -0400,1589948498.000974,41.35201026383812,-71.84498484659679,22.93625,1.920313,-1,3.265512509405876,4.812584033936713,-9999,15563.43434566667,0.7017364501953125,-0.611724853515625,-0.094879150390625,1,0.63
2020-05-20 00:21:38.757 -0400,1589948498.000974,41.35201026383812,-71.84498484659679,22.93625,1.920313,-1,3.265512509405876,4.812584033936713,-9999,15563.48423466667,0.6413726806640625,-0.6339874267578125,-0.010467529296875,1,0.63
2020-05-20 00:21:38.807 -0400,1589948498.000974,41.35201026383812,-71.84498484659679,22.93625,1.920313,-1,3.265512509405876,4.812584033936713,-9999,15563.53412366667,0.5736083984375,-0.6343231201171875,0.0867919921875,1,0.63
2020-05-20 00:21:38.857 -0400,1589948498.000974,41.35201026383812,-71.84498484659679,22.93625,1.920313,-1,3.265512509405876,4.812584033936713,-9999,15563.58401066667,0.5328521728515625,-0.58843994140625,0.1696319580078125,1,0.63
2020-05-20 00:21:38.907 -0400,1589948498.000974,41.35201026383812,-71.84498484659679,22.93625,1.920313,-1,3.265512509405876,4.812584033936713,-9999,15563.63389866667,0.5414886474609375,-0.51593017578125,0.2292938232421875,1,0.63
2020-05-20 00:21:38.957 -0400,1589948498.000974,41.35201026383812,-71.84498484659679,22.93625,1.920313,-1,3.265512509405876,4.812584033936713,-9999,15563.68378866667,0.5335540771484375,-0.5985260009765625,0.2960357666015625,1,0.63
2020-05-20 00:21:39.007 -0400,1589948498.000974,41.35201026383812,-71.84498484659679,22.93625,1.920313,-1,3.265512509405876,4.812584033936713,-9999,15563.73367566667,0.6167144775390625,-0.64642333984375,0.231109619140625,1,0.63
2020-05-20 00:21:39.057 -0400,1589948498.000974,41.35201026383812,-71.84498484659679,22.93625,1.920313,-1,3.265512509405876,4.812584033936713,-9999,15563.78356266667,0.6143646240234375,-0.8101043701171875,0.4284210205078125,1,0.63
2020-05-20 00:21:39.107 -0400,1589948498.000974,41.35201026383812,-71.84498484659679,22.93625,1.920313,-1,3.265512509405876,4.812584033936713,-9999,15563.83345266667,0.613433837890625,-0.633331298828125,0.4068603515625,1,0.63
2020-05-20 00:21:39.156 -0400,1589948498.000974,41.35201026383812,-71.84498484659679,22.93625,1.920313,-1,3.265512509405876,4.812584033936713,-9999,15563.883341875,0.645355224609375,-0.6511688232421875,0.366668701171875,1,0.63
2020-05-20 00:21:39.206 -0400,1589948498.000974,41.35201026383812,-71.84498484659679,22.93625,1.920313,-1,3.265512509405876,4.812584033936713,-9999,15563.933229875,0.65374755859375,-0.6175689697265625,0.3498382568359375,1,0.63
2020-05-20 00:21:39.256 -0400,1589948498.000974,41.35201026383812,-71.84498484659679,22.93625,1.920313,-1,3.265512509405876,4.812584033936713,-9999,15563.983116875,0.6503753662109375,-0.6856231689453125,0.292236328125,1,0.63
2020-05-20 00:21:39.306 -0400,1589948499.000996,41.35201044686724,-71.84498508756958,22.17353,0,-1,3.348130542436504,4.755476727268538,-9999,15564.033007875,0.651763916015625,-0.673858642578125,0.3185577392578125,1,0.63
2020-05-20 00:21:39.356 -0400,1589948499.000996,41.35201044686724,-71.84498508756958,22.17353,0,-1,3.348130542436504,4.755476727268538,-9999,15564.082898875,0.6981201171875,-0.718963623046875,0.3239593505859375,1,0.63
2020-05-20 00:21:39.406 -0400,1589948499.000996,41.35201044686724,-71.84498508756958,22.17353,0,-1,3.348130542436504,4.755476727268538,-9999,15564.132787875,0.7008514404296875,-0.738037109375,0.2219696044921875,1,0.63
2020-05-20 00:21:39.456 -0400,1589948499.000996,41.35201044686724,-71.84498508756958,22.17353,0,-1,3.348130542436504,4.755476727268538,-9999,15564.182675875,0.6862945556640625,-0.7014007568359375,0.1762237548828125,1,0.63
2020-05-20 00:21:39.505 -0400,1589948499.000996,41.35201044686724,-71.84498508756958,22.17353,0,-1,3.348130542436504,4.755476727268538,-9999,15564.232563875,0.654876708984375,-0.730682373046875,0.2016448974609375,1,0.63
2020-05-20 00:21:39.556 -0400,1589948499.000996,41.35201044686724,-71.84498508756958,22.17353,0,-1,3.348130542436504,4.755476727268538,-9999,15564.282450875,0.6321258544921875,-0.802093505859375,0.1368408203125,1,0.63
2020-05-20 00:21:39.605 -0400,1589948499.000996,41.35201044686724,-71.84498508756958,22.17353,0,-1,3.348130542436504,4.755476727268538,-9999,15564.332343875,0.629180908203125,-0.7540435791015625,0.0692138671875,1,0.63
2020-05-20 00:21:39.655 -0400,1589948499.000996,41.35201044686724,-71.84498508756958,22.17353,0,-1,3.348130542436504,4.755476727268538,-9999,15564.382235875,0.6183319091796875,-0.7537994384765625,-0.0237579345703125,1,0.63
2020-05-20 00:21:39.705 -0400,1589948499.000996,41.35201044686724,-71.84498508756958,22.17353,0,-1,3.348130542436504,4.755476727268538,-9999,15564.432127875,0.6109771728515625,-0.7642822265625,-0.122314453125,1,0.63
2020-05-20 00:21:39.755 -0400,1589948499.000996,41.35201044686724,-71.84498508756958,22.17353,0,-1,3.348130542436504,4.755476727268538,-9999,15564.482016875,0.5874481201171875,-0.6293182373046875,-0.225738525390625,1,0.63
2020-05-20 00:21:39.805 -0400,1589948499.000996,41.35201044686724,-71.84498508756958,22.17353,0,-1,3.348130542436504,4.755476727268538,-9999,15564.531906875,0.62310791015625,-0.7172698974609375,-0.2822113037109375,1,0.63
2020-05-20 00:21:39.855 -0400,1589948499.000996,41.35201044686724,-71.84498508756958,22.17353,0,-1,3.348130542436504,4.755476727268538,-9999,15564.581797875,0.633331298828125,-0.695709228515625,-0.2974700927734375,1,0.63
2020-05-20 00:21:39.905 -0400,1589948499.000996,41.35201044686724,-71.84498508756958,22.17353,0,-1,3.348130542436504,4.755476727268538,-9999,15564.631689875,0.626708984375,-0.5548553466796875,-0.3153839111328125,1,0.63
2020-05-20 00:21:39.954 -0400,1589948499.000996,41.35201044686724,-71.84498508756958,22.17353,0,-1,3.348130542436504,4.755476727268538,-9999,15564.681582875,0.6318206787109375,-0.7005462646484375,-0.29266357421875,1,0.63
2020-05-20 00:21:40.004 -0400,1589948499.000996,41.35201044686724,-71.84498508756958,22.17353,0,-1,3.348130542436504,4.755476727268538,-9999,15564.731477875,0.6495208740234375,-0.7373504638671875,-0.3341064453125,1,0.63
2020-05-20 00:21:40.054 -0400,1589948499.000996,41.35201044686724,-71.84498508756958,22.17353,0,-1,3.348130542436504,4.755476727268538,-9999,15564.781370875,0.656829833984375,-0.69140625,-0.3060455322265625,1,0.63
2020-05-20 00:21:40.104 -0400,1589948499.000996,41.35201044686724,-71.84498508756958,22.17353,0,-1,3.348130542436504,4.755476727268538,-9999,15564.831263875,0.6597442626953125,-0.6856536865234375,-0.28729248046875,1,0.63
2020-05-20 00:21:40.154 -0400,1589948499.000996,41.35201044686724,-71.84498508756958,22.17353,0,-1,3.348130542436504,4.755476727268538,-9999,15564.881155375,0.6663665771484375,-0.7087554931640625,-0.3039703369140625,1,0.63
2020-05-20 00:21:40.204 -0400,1589948499.000996,41.35201044686724,-71.84498508756958,22.17353,0,-1,3.348130542436504,4.755476727268538,-9999,15564.931046375,0.6753997802734375,-0.7821197509765625,-0.304229736328125,1,0.63
2020-05-20 00:21:40.254 -0400,1589948500.001016,41.35201537856118,-71.84498295463217,24.17924,1.331789,-1,3.312535542726158,4.780339455620777,-9999,15564.980934375,0.6627349853515625,-0.670806884765625,-0.3270416259765625,1,0.63
2020-05-20 00:21:40.304 -0400,1589948500.001016,41.35201537856118,-71.84498295463217,24.17924,1.331789,-1,3.312535542726158,4.780339455620777,-9999,15565.030823375,0.6467742919921875,-0.680389404296875,-0.3174285888671875,1,0.63
2020-05-20 00:21:40.354 -0400,1589948500.001016,41.35201537856118,-71.84498295463217,24.17924,1.331789,-1,3.312535542726158,4.780339455620777,-9999,15565.080713375,0.635955810546875,-0.6329498291015625,-0.2930145263671875,1,0.63
2020-05-20 00:21:40.404 -0400,1589948500.001016,41.35201537856118,-71.84498295463217,24.17924,1.331789,-1,3.312535542726158,4.780339455620777,-9999,15565.130605375,0.6263885498046875,-0.682037353515625,-0.283721923828125,1,0.63
2020-05-20 00:21:40.453 -0400,1589948500.001016,41.35201537856118,-71.84498295463217,24.17924,1.331789,-1,3.312535542726158,4.780339455620777,-9999,15565.180495375,0.6261444091796875,-0.71826171875,-0.3069000244140625,1,0.63
2020-05-20 00:21:40.503 -0400,1589948500.001016,41.35201537856118,-71.84498295463217,24.17924,1.331789,-1,3.312535542726158,4.780339455620777,-9999,15565.230384375,0.648895263671875,-0.70941162109375,-0.309234619140625,1,0.63
2020-05-20 00:21:40.553 -0400,1589948500.001016,41.35201537856118,-71.84498295463217,24.17924,1.331789,-1,3.312535542726158,4.780339455620777,-9999,15565.280274375,0.6502532958984375,-0.7052001953125,-0.287933349609375,1,0.63
2020-05-20 00:21:40.603 -0400,1589948500.001016,41.35201537856118,-71.84498295463217,24.17924,1.331789,-1,3.312535542726158,4.780339455620777,-9999,15565.330163375,0.654571533203125,-0.700897216796875,-0.288604736328125,1,0.63
2020-05-20 00:21:40.653 -0400,1589948500.001016,41.35201537856118,-71.84498295463217,24.17924,1.331789,-1,3.312535542726158,4.780339455620777,-9999,15565.380052375,0.65234375,-0.7025604248046875,-0.2943115234375,1,0.63
2020-05-20 00:21:40.703 -0400,1589948500.001016,41.35201537856118,-71.84498295463217,24.17924,1.331789,-1,3.312535542726158,4.780339455620777,-9999,15565.429943375,0.6386260986328125,-0.6829071044921875,-0.308929443359375,1,0.63
2020-05-20 00:21:40.753 -0400,1589948500.001016,41.35201537856118,-71.84498295463217,24.17924,1.331789,-1,3.312535542726158,4.780339455620777,-9999,15565.479833375,0.642242431640625,-0.7036590576171875,-0.306365966796875,1,0.63
2020-05-20 00:21:40.803 -0400,1589948500.001016,41.35201537856118,-71.84498295463217,24.17924,1.331789,-1,3.312535542726158,4.780339455620777,-9999,15565.529725375,0.6589202880859375,-0.7555084228515625,-0.3292999267578125,1,0.63
2020-05-20 00:21:40.853 -0400,1589948500.001016,41.35201537856118,-71.84498295463217,24.17924,1.331789,-1,3.312535542726158,4.780339455620777,-9999,15565.579614375,0.6566619873046875,-0.6995849609375,-0.354644775390625,1,0.63
2020-05-20 00:21:40.902 -0400,1589948500.001016,41.35201537856118,-71.84498295463217,24.17924,1.331789,-1,3.312535542726158,4.780339455620777,-9999,15565.629502375,0.6287994384765625,-0.5775604248046875,-0.259796142578125,1,0.63
2020-05-20 00:21:40.952 -0400,1589948500.001016,41.35201537856118,-71.84498295463217,24.17924,1.331789,-1,3.312535542726158,4.780339455620777,-9999,15565.679392375,0.604705810546875,-0.6355133056640625,-0.2627105712890625,1,0.63
2020-05-20 00:21:41.002 -0400,1589948500.001016,41.35201537856118,-71.84498295463217,24.17924,1.331789,-1,3.312535542726158,4.780339455620777,-9999,15565.729283375,0.61761474609375,-0.7346038818359375,-0.1894073486328125,1,0.63
2020-05-20 00:21:41.052 -0400,1589948500.001016,41.35201537856118,-71.84498295463217,24.17924,1.331789,-1,3.312535542726158,4.780339455620777,-9999,15565.779174375,0.643890380859375,-0.86053466796875,-0.2198944091796875,1,0.63
2020-05-20 00:21:41.102 -0400,1589948500.001016,41.35201537856118,-71.84498295463217,24.17924,1.331789,-1,3.312535542726158,4.780339455620777,-9999,15565.829064375,0.6251068115234375,-0.7534942626953125,-0.0920562744140625,1,0.63
2020-05-20 00:21:41.152 -0400,1589948500.001016,41.35201537856118,-71.84498295463217,24.17924,1.331789,-1,3.312535542726158,4.780339455620777,-9999,15565.87895675,0.631622314453125,-0.882415771484375,0.0286712646484375,1,0.63
2020-05-20 00:21:41.202 -0400,1589948500.001016,41.35201537856118,-71.84498295463217,24.17924,1.331789,-1,3.312535542726158,4.780339455620777,-9999,15565.92884475,0.644256591796875,-0.56719970703125,0.01104736328125,1,0.63
2020-05-20 00:21:41.252 -0400,1589948500.001016,41.35201537856118,-71.84498295463217,24.17924,1.331789,-1,3.312535542726158,4.780339455620777,-9999,15565.97873675,0.6527557373046875,-0.8621826171875,0.126953125,1,0.63
2020-05-20 00:21:41.302 -0400,1589948501.001037,41.35201407789375,-71.8449812072479,24.42898,1.024008,-1,3.321475674785866,4.774132002217221,-9999,15566.02862975,0.6921539306640625,-0.7886962890625,-0.0679473876953125,1,0.63
2020-05-20 00:21:41.352 -0400,1589948501.001037,41.35201407789375,-71.8449812072479,24.42898,1.024008,-1,3.321475674785866,4.774132002217221,-9999,15566.07852275,0.652862548828125,-0.84222412109375,0.1347198486328125,1,0.63
2020-05-20 00:21:41.402 -0400,1589948501.001037,41.35201407789375,-71.8449812072479,24.42898,1.024008,-1,3.321475674785866,4.774132002217221,-9999,15566.12841775,0.6074066162109375,-0.819122314453125,0.280181884765625,1,0.63
2020-05-20 00:21:41.451 -0400,1589948501.001037,41.35201407789375,-71.8449812072479,24.42898,1.024008,-1,3.321475674785866,4.774132002217221,-9999,15566.17831175,0.651458740234375,-0.74383544921875,0.2097015380859375,1,0.63
2020-05-20 00:21:41.501 -0400,1589948501.001037,41.35201407789375,-71.8449812072479,24.42898,1.024008,-1,3.321475674785866,4.774132002217221,-9999,15566.22820475,0.647216796875,-0.783905029296875,0.0269012451171875,1,0.63
2020-05-20 00:21:41.551 -0400,1589948501.001037,41.35201407789375,-71.8449812072479,24.42898,1.024008,-1,3.321475674785866,4.774132002217221,-9999,15566.27809875,0.6403350830078125,-0.7440948486328125,-0.0767974853515625,1,0.63
2020-05-20 00:21:41.601 -0400,1589948501.001037,41.35201407789375,-71.8449812072479,24.42898,1.024008,-1,3.321475674785866,4.774132002217221,-9999,15566.32798975,0.6689300537109375,-0.8944549560546875,0.0576324462890625,1,0.63
2020-05-20 00:21:41.651 -0400,1589948501.001037,41.35201407789375,-71.8449812072479,24.42898,1.024008,-1,3.321475674785866,4.774132002217221,-9999,15566.37788175,0.710662841796875,-0.9022369384765625,0.013519287109375,1,0.63
2020-05-20 00:21:41.701 -0400,1589948501.001037,41.35201407789375,-71.8449812072479,24.42898,1.024008,-1,3.321475674785866,4.774132002217221,-9999,15566.42777675,0.6599884033203125,-0.7251434326171875,0.0583953857421875,1,0.63
2020-05-20 00:21:41.751 -0400,1589948501.001037,41.35201407789375,-71.8449812072479,24.42898,1.024008,-1,3.321475674785866,4.774132002217221,-9999,15566.47767175,0.60211181640625,-0.709625244140625,0.08685302734375,1,0.63
2020-05-20 00:21:41.800 -0400,1589948501.001037,41.35201407789375,-71.8449812072479,24.42898,1.024008,-1,3.321475674785866,4.774132002217221,-9999,15566.52756475,0.5669097900390625,-0.5360870361328125,0.0464935302734375,1,0.63
2020-05-20 00:21:41.850 -0400,1589948501.001037,41.35201407789375,-71.8449812072479,24.42898,1.024008,-1,3.321475674785866,4.774132002217221,-9999,15566.57745575,0.5087890625,-0.355865478515625,-0.0576019287109375,1,0.63
2020-05-20 00:21:41.900 -0400,1589948501.001037,41.35201407789375,-71.8449812072479,24.42898,1.024008,-1,3.321475674785866,4.774132002217221,-9999,15566.62734675,0.5239105224609375,-0.2797698974609375,-0.2005615234375,1,0.63
2020-05-20 00:21:41.950 -0400,1589948501.001037,41.35201407789375,-71.8449812072479,24.42898,1.024008,-1,3.321475674785866,4.774132002217221,-9999,15566.67724075,0.5671844482421875,-0.2008056640625,-0.40386962890625,1,0.63
2020-05-20 00:21:42.000 -0400,1589948501.001037,41.35201407789375,-71.8449812072479,24.42898,1.024008,-1,3.321475674785866,4.774132002217221,-9999,15566.72713375,0.57232666015625,0.002044677734375,-0.6790313720703125,1,0.63
2020-05-20 00:21:42.050 -0400,1589948501.001037,41.35201407789375,-71.8449812072479,24.42898,1.024008,-1,3.321475674785866,4.774132002217221,-9999,15566.77702975,0.61126708984375,0.079010009765625,-0.85064697265625,1,0.63
2020-05-20 00:21:42.100 -0400,1589948501.001037,41.35201407789375,-71.8449812072479,24.42898,1.024008,-1,3.321475674785866,4.774132002217221,-9999,15566.82692275,0.5389404296875,0.4713897705078125,-0.920684814453125,1,0.63
2020-05-20 00:21:42.150 -0400,1589948501.001037,41.35201407789375,-71.8449812072479,24.42898,1.024008,-1,3.321475674785866,4.774132002217221,-9999,15566.87681391667,0.6090087890625,0.1881866455078125,-1.577316284179688,1,0.63
2020-05-20 00:21:42.200 -0400,1589948501.001037,41.35201407789375,-71.8449812072479,24.42898,1.024008,-1,3.321475674785866,4.774132002217221,-9999,15566.92670491667,0.7945404052734375,0.6495819091796875,-3.404541015625,1,0.63
2020-05-20 00:21:42.250 -0400,1589948502.001057,41.35202098708537,-71.84497891538605,21.87842,0,-1,3.346959675714335,4.75630086957617,-9999,15566.97659591667,0.394775390625,-0.3332366943359375,-0.849609375,1,0.63
2020-05-20 00:21:42.299 -0400,1589948502.001057,41.35202098708537,-71.84497891538605,21.87842,0,-1,3.346959675714335,4.75630086957617,-9999,15567.02648691667,0.48828125,0.5601959228515625,-0.5595855712890625,1,0.63
2020-05-20 00:21:42.349 -0400,1589948502.001057,41.35202098708537,-71.84497891538605,21.87842,0,-1,3.346959675714335,4.75630086957617,-9999,15567.07637891667,0.6030120849609375,-0.018035888671875,-0.596832275390625,1,0.63
2020-05-20 00:21:42.400 -0400,1589948502.001057,41.35202098708537,-71.84497891538605,21.87842,0,-1,3.346959675714335,4.75630086957617,-9999,15567.12627391667,0.5507965087890625,-0.1840972900390625,-0.7504730224609375,1,0.63
2020-05-20 00:21:42.449 -0400,1589948502.001057,41.35202098708537,-71.84497891538605,21.87842,0,-1,3.346959675714335,4.75630086957617,-9999,15567.17616391667,0.5413055419921875,0.3431243896484375,-0.72833251953125,1,0.63
2020-05-20 00:21:42.499 -0400,1589948502.001057,41.35202098708537,-71.84497891538605,21.87842,0,-1,3.346959675714335,4.75630086957617,-9999,15567.22605491667,0.527008056640625,-0.242523193359375,-0.9228515625,1,0.63
2020-05-20 00:21:42.549 -0400,1589948502.001057,41.35202098708537,-71.84497891538605,21.87842,0,-1,3.346959675714335,4.75630086957617,-9999,15567.27594591667,0.509552001953125,-0.22369384765625,-0.7273406982421875,1,0.63
2020-05-20 00:21:42.599 -0400,1589948502.001057,41.35202098708537,-71.84497891538605,21.87842,0,-1,3.346959675714335,4.75630086957617,-9999,15567.32583891667,0.6290435791015625,0.18402099609375,-0.7435302734375,1,0.63
2020-05-20 00:21:42.649 -0400,1589948502.001057,41.35202098708537,-71.84497891538605,21.87842,0,-1,3.346959675714335,4.75630086957617,-9999,15567.37572891667,0.7104339599609375,0.2882080078125,-0.806488037109375,1,0.63
2020-05-20 00:21:42.699 -0400,1589948502.001057,41.35202098708537,-71.84497891538605,21.87842,0,-1,3.346959675714335,4.75630086957617,-9999,15567.42561791667,0.735504150390625,0.158203125,-0.8654632568359375,1,0.63
2020-05-20 00:21:42.749 -0400,1589948502.001057,41.35202098708537,-71.84497891538605,21.87842,0,-1,3.346959675714335,4.75630086957617,-9999,15567.47550491667,0.6427459716796875,0.2436676025390625,-0.83203125,1,0.63
2020-05-20 00:21:42.798 -0400,1589948502.001057,41.35202098708537,-71.84497891538605,21.87842,0,-1,3.346959675714335,4.75630086957617,-9999,15567.52539391667,0.5912628173828125,0.2772064208984375,-0.7894287109375,1,0.63
2020-05-20 00:21:42.848 -0400,1589948502.001057,41.35202098708537,-71.84497891538605,21.87842,0,-1,3.346959675714335,4.75630086957617,-9999,15567.57528491667,0.5155029296875,0.2793121337890625,-0.7653656005859375,1,0.63
2020-05-20 00:21:42.898 -0400,1589948502.001057,41.35202098708537,-71.84497891538605,21.87842,0,-1,3.346959675714335,4.75630086957617,-9999,15567.62517191667,0.51849365234375,0.3220367431640625,-0.8583221435546875,1,0.63
2020-05-20 00:21:42.948 -0400,1589948502.001057,41.35202098708537,-71.84497891538605,21.87842,0,-1,3.346959675714335,4.75630086957617,-9999,15567.67506191667,0.5802459716796875,0.249908447265625,-0.853729248046875,1,0.63
2020-05-20 00:21:42.998 -0400,1589948502.001057,41.35202098708537,-71.84497891538605,21.87842,0,-1,3.346959675714335,4.75630086957617,-9999,15567.72494891667,0.5614013671875,0.261962890625,-0.8109130859375,1,0.63
2020-05-20 00:21:43.048 -0400,1589948502.001057,41.35202098708537,-71.84497891538605,21.87842,0,-1,3.346959675714335,4.75630086957617,-9999,15567.77483691667,0.537994384765625,0.3153839111328125,-0.70330810546875,1,0.63
2020-05-20 00:21:43.098 -0400,1589948502.001057,41.35202098708537,-71.84497891538605,21.87842,0,-1,3.346959675714335,4.75630086957617,-9999,15567.82472491667,0.53375244140625,0.3951416015625,-0.6741485595703125,1,0.63
2020-05-20 00:21:43.147 -0400,1589948502.001057,41.35202098708537,-71.84497891538605,21.87842,0,-1,3.346959675714335,4.75630086957617,-9999,15567.87461379167,0.501190185546875,0.4289703369140625,-0.770599365234375,1,0.63
2020-05-20 00:21:43.197 -0400,1589948502.001057,41.35202098708537,-71.84497891538605,21.87842,0,-1,3.346959675714335,4.75630086957617,-9999,15567.92450279167,0.589599609375,0.3480987548828125,-0.7460784912109375,1,0.63
2020-05-20 00:21:43.247 -0400,1589948502.001057,41.35202098708537,-71.84497891538605,21.87842,0,-1,3.346959675714335,4.75630086957617,-9999,15567.97439279167,0.893280029296875,0.2666778564453125,-0.69720458984375,1,0.63
2020-05-20 00:21:43.297 -0400,1589948502.001057,41.35202098708537,-71.84497891538605,21.87842,0,-1,3.346959675714335,4.75630086957617,-9999,15568.02428279167,0.8761749267578125,-0.0471649169921875,-0.78472900390625,1,0.63
2020-05-20 00:21:43.347 -0400,1589948503.001079,41.35201826693213,-71.84497929192999,21.30087,0,-1,3.273695796062898,4.8070212052402,-9999,15568.07417379167,0.7055511474609375,0.1564788818359375,-0.79107666015625,1,0.63
2020-05-20 00:21:43.397 -0400,1589948503.001079,41.35201826693213,-71.84497929192999,21.30087,0,-1,3.273695796062898,4.8070212052402,-9999,15568.12406679167,0.5976409912109375,0.3223724365234375,-0.515777587890625,1,0.63
2020-05-20 00:21:43.447 -0400,1589948503.001079,41.35201826693213,-71.84497929192999,21.30087,0,-1,3.273695796062898,4.8070212052402,-9999,15568.17395779167,0.4850616455078125,0.341217041015625,-0.336395263671875,1,0.63
2020-05-20 00:21:43.497 -0400,1589948503.001079,41.35201826693213,-71.84497929192999,21.30087,0,-1,3.273695796062898,4.8070212052402,-9999,15568.22384879167,0.51275634765625,0.40374755859375,-0.5986480712890625,1,0.63
2020-05-20 00:21:43.547 -0400,1589948503.001079,41.35201826693213,-71.84497929192999,21.30087,0,-1,3.273695796062898,4.8070212052402,-9999,15568.27373779167,0.62799072265625,0.501068115234375,-0.5912628173828125,1,0.63
2020-05-20 00:21:43.597 -0400,1589948503.001079,41.35201826693213,-71.84497929192999,21.30087,0,-1,3.273695796062898,4.8070212052402,-9999,15568.32362679167,0.5928955078125,0.492950439453125,-0.7030181884765625,1,0.63
2020-05-20 00:21:43.647 -0400,1589948503.001079,41.35201826693213,-71.84497929192999,21.30087,0,-1,3.273695796062898,4.8070212052402,-9999,15568.37351579167,0.6143951416015625,0.6653900146484375,-0.59429931640625,1,0.63
2020-05-20 00:21:43.696 -0400,1589948503.001079,41.35201826693213,-71.84497929192999,21.30087,0,-1,3.273695796062898,4.8070212052402,-9999,15568.42340779167,0.484039306640625,0.754608154296875,-0.394744873046875,1,0.63
2020-05-20 00:21:43.746 -0400,1589948503.001079,41.35201826693213,-71.84497929192999,21.30087,0,-1,3.273695796062898,4.8070212052402,-9999,15568.47329979167,0.4328460693359375,0.9586334228515625,-0.3711090087890625,1,0.63
2020-05-20 00:21:43.796 -0400,1589948503.001079,41.35201826693213,-71.84497929192999,21.30087,0,-1,3.273695796062898,4.8070212052402,-9999,15568.52319179167,0.3584136962890625,1.006378173828125,-0.27374267578125,1,0.63
2020-05-20 00:21:43.846 -0400,1589948503.001079,41.35201826693213,-71.84497929192999,21.30087,0,-1,3.273695796062898,4.8070212052402,-9999,15568.57308579167,0.3263702392578125,1.03173828125,-0.2998504638671875,1,0.63
2020-05-20 00:21:43.896 -0400,1589948503.001079,41.35201826693213,-71.84497929192999,21.30087,0,-1,3.273695796062898,4.8070212052402,-9999,15568.62297779167,0.2174835205078125,1.048171997070312,-0.2987060546875,1,0.63
2020-05-20 00:21:43.946 -0400,1589948503.001079,41.35201826693213,-71.84497929192999,21.30087,0,-1,3.273695796062898,4.8070212052402,-9999,15568.67287179167,0.11114501953125,1.130157470703125,-0.0216217041015625,1,0.63
2020-05-20 00:21:43.996 -0400,1589948503.001079,41.35201826693213,-71.84497929192999,21.30087,0,-1,3.273695796062898,4.8070212052402,-9999,15568.72276479167,0.2492218017578125,0.9329681396484375,-0.323455810546875,1,0.63
2020-05-20 00:21:44.046 -0400,1589948503.001079,41.35201826693213,-71.84497929192999,21.30087,0,-1,3.273695796062898,4.8070212052402,-9999,15568.77265579167,0.5251312255859375,0.908599853515625,-0.5099334716796875,1,0.63
2020-05-20 00:21:44.096 -0400,1589948503.001079,41.35201826693213,-71.84497929192999,21.30087,0,-1,3.273695796062898,4.8070212052402,-9999,15568.82254879167,0.583648681640625,0.8528594970703125,-0.404937744140625,1,0.63
2020-05-20 00:21:44.145 -0400,1589948503.001079,41.35201826693213,-71.84497929192999,21.30087,0,-1,3.273695796062898,4.8070212052402,-9999,15568.872442625,0.497589111328125,0.36676025390625,-0.4689788818359375,1,0.63
2020-05-20 00:21:44.195 -0400,1589948503.001079,41.35201826693213,-71.84497929192999,21.30087,0,-1,3.273695796062898,4.8070212052402,-9999,15568.922334625,0.465240478515625,0.8534698486328125,-0.3480072021484375,1,0.63
2020-05-20 00:21:44.245 -0400,1589948503.001079,41.35201826693213,-71.84497929192999,21.30087,0,-1,3.273695796062898,4.8070212052402,-9999,15568.972227625,0.4459228515625,0.6151580810546875,-0.451629638671875,1,0.63
2020-05-20 00:21:44.295 -0400,1589948504.0011,41.352025787483,-71.84496745893154,21.05298,0,-1,3.315813674902149,4.778066209892947,-9999,15569.022119625,0.3044586181640625,0.437255859375,-0.7509765625,1,0.63
2020-05-20 00:21:44.345 -0400,1589948504.0011,41.352025787483,-71.84496745893154,21.05298,0,-1,3.315813674902149,4.778066209892947,-9999,15569.072008625,0.226806640625,0.3858184814453125,-0.804595947265625,1,0.63
2020-05-20 00:21:44.395 -0400,1589948504.0011,41.352025787483,-71.84496745893154,21.05298,0,-1,3.315813674902149,4.778066209892947,-9999,15569.121895625,0.199554443359375,0.3177642822265625,-0.5867919921875,1,0.63
2020-05-20 00:21:44.445 -0400,1589948504.0011,41.352025787483,-71.84496745893154,21.05298,0,-1,3.315813674902149,4.778066209892947,-9999,15569.171782625,0.2696075439453125,0.5333099365234375,-0.650146484375,1,0.63
2020-05-20 00:21:44.494 -0400,1589948504.0011,41.352025787483,-71.84496745893154,21.05298,0,-1,3.315813674902149,4.778066209892947,-9999,15569.221669625,0.438201904296875,0.336700439453125,-0.9004974365234375,1,0.63
2020-05-20 00:21:44.544 -0400,1589948504.0011,41.352025787483,-71.84496745893154,21.05298,0,-1,3.315813674902149,4.778066209892947,-9999,15569.271560625,0.5449066162109375,0.481292724609375,-1.0400390625,1,0.63
2020-05-20 00:21:44.594 -0400,1589948504.0011,41.352025787483,-71.84496745893154,21.05298,0,-1,3.315813674902149,4.778066209892947,-9999,15569.321450625,0.5583648681640625,0.360992431640625,-0.878173828125,1,0.63
2020-05-20 00:21:44.644 -0400,1589948504.0011,41.352025787483,-71.84496745893154,21.05298,0,-1,3.315813674902149,4.778066209892947,-9999,15569.371344625,0.5853118896484375,0.3005828857421875,-0.9339752197265625,1,0.63
2020-05-20 00:21:44.694 -0400,1589948504.0011,41.352025787483,-71.84496745893154,21.05298,0,-1,3.315813674902149,4.778066209892947,-9999,15569.421236625,0.4690093994140625,0.11138916015625,-0.9072723388671875,1,0.63
2020-05-20 00:21:44.744 -0400,1589948504.0011,41.352025787483,-71.84496745893154,21.05298,0,-1,3.315813674902149,4.778066209892947,-9999,15569.471129625,0.3117218017578125,-0.1204833984375,-1.163558959960938,1,0.63
2020-05-20 00:21:44.794 -0400,1589948504.0011,41.352025787483,-71.84496745893154,21.05298,0,-1,3.315813674902149,4.778066209892947,-9999,15569.521022625,0.36334228515625,-0.0040740966796875,-0.7667388916015625,1,0.63
2020-05-20 00:21:44.844 -0400,1589948504.0011,41.352025787483,-71.84496745893154,21.05298,0,-1,3.315813674902149,4.778066209892947,-9999,15569.570917625,0.4087982177734375,0.10369873046875,-0.827117919921875,1,0.63
2020-05-20 00:21:44.894 -0400,1589948504.0011,41.352025787483,-71.84496745893154,21.05298,0,-1,3.315813674902149,4.778066209892947,-9999,15569.620810625,0.46807861328125,0.0265045166015625,-0.99407958984375,1,0.63
2020-05-20 00:21:44.944 -0400,1589948504.0011,41.352025787483,-71.84496745893154,21.05298,0,-1,3.315813674902149,4.778066209892947,-9999,15569.670702625,0.504791259765625,0.1760101318359375,-0.8902435302734375,1,0.63
2020-05-20 00:21:44.994 -0400,1589948504.0011,41.352025787483,-71.84496745893154,21.05298,0,-1,3.315813674902149,4.778066209892947,-9999,15569.720592625,0.547637939453125,0.1304779052734375,-0.89837646484375,1,0.63
2020-05-20 00:21:45.043 -0400,1589948504.0011,41.352025787483,-71.84496745893154,21.05298,0,-1,3.315813674902149,4.778066209892947,-9999,15569.770481625,0.5601043701171875,0.2664337158203125,-0.9427337646484375,1,0.63
2020-05-20 00:21:45.093 -0400,1589948504.0011,41.352025787483,-71.84496745893154,21.05298,0,-1,3.315813674902149,4.778066209892947,-9999,15569.820370625,0.5678558349609375,0.262603759765625,-0.8629913330078125,1,0.63
2020-05-20 00:21:45.143 -0400,1589948504.0011,41.352025787483,-71.84496745893154,21.05298,0,-1,3.315813674902149,4.778066209892947,-9999,15569.870262375,0.6715240478515625,0.2180633544921875,-0.7449493408203125,1,0.63
2020-05-20 00:21:45.193 -0400,1589948504.0011,41.352025787483,-71.84496745893154,21.05298,0,-1,3.315813674902149,4.778066209892947,-9999,15569.920155375,0.66845703125,0.2276153564453125,-0.7762451171875,1,0.63
2020-05-20 00:21:45.243 -0400,1589948504.0011,41.352025787483,-71.84496745893154,21.05298,0,-1,3.315813674902149,4.778066209892947,-9999,15569.970045375,0.65435791015625,0.0925750732421875,-0.77691650390625,1,0.63
2020-05-20 00:21:45.293 -0400,1589948505.00112,41.35203001873892,-71.84495554347613,20.84472,0,-1,3.343390192156579,4.758810676606082,-9999,15570.019935375,0.5376434326171875,0.0717926025390625,-0.7355804443359375,1,0.63
2020-05-20 00:21:45.343 -0400,1589948505.00112,41.35203001873892,-71.84495554347613,20.84472,0,-1,3.343390192156579,4.758810676606082,-9999,15570.069822375,0.4789886474609375,0.022216796875,-0.977996826171875,1,0.63
2020-05-20 00:21:45.393 -0400,1589948505.00112,41.35203001873892,-71.84495554347613,20.84472,0,-1,3.343390192156579,4.758810676606082,-9999,15570.119711375,0.382354736328125,-0.0366363525390625,-0.9884033203125,1,0.63
2020-05-20 00:21:45.443 -0400,1589948505.00112,41.35203001873892,-71.84495554347613,20.84472,0,-1,3.343390192156579,4.758810676606082,-9999,15570.169599375,0.44476318359375,-0.125213623046875,-0.8591766357421875,1,0.63
2020-05-20 00:21:45.492 -0400,1589948505.00112,41.35203001873892,-71.84495554347613,20.84472,0,-1,3.343390192156579,4.758810676606082,-9999,15570.219488375,0.4705047607421875,-0.1681976318359375,-0.8345184326171875,1,0.63
2020-05-20 00:21:45.542 -0400,1589948505.00112,41.35203001873892,-71.84495554347613,20.84472,0,-1,3.343390192156579,4.758810676606082,-9999,15570.269378375,0.5679168701171875,-0.370880126953125,-0.7832183837890625,1,0.63
2020-05-20 00:21:45.592 -0400,1589948505.00112,41.35203001873892,-71.84495554347613,20.84472,0,-1,3.343390192156579,4.758810676606082,-9999,15570.319267375,0.613372802734375,-0.2735748291015625,-0.82196044921875,1,0.63
2020-05-20 00:21:45.642 -0400,1589948505.00112,41.35203001873892,-71.84495554347613,20.84472,0,-1,3.343390192156579,4.758810676606082,-9999,15570.369160375,0.57672119140625,-0.2465972900390625,-0.9634857177734375,1,0.63
2020-05-20 00:21:45.692 -0400,1589948505.00112,41.35203001873892,-71.84495554347613,20.84472,0,-1,3.343390192156579,4.758810676606082,-9999,15570.419056375,0.5081329345703125,-0.294097900390625,-1.15423583984375,1,0.63
2020-05-20 00:21:45.742 -0400,1589948505.00112,41.35203001873892,-71.84495554347613,20.84472,0,-1,3.343390192156579,4.758810676606082,-9999,15570.468949375,0.294036865234375,-0.412933349609375,-0.683990478515625,1,0.63
2020-05-20 00:21:45.792 -0400,1589948505.00112,41.35203001873892,-71.84495554347613,20.84472,0,-1,3.343390192156579,4.758810676606082,-9999,15570.518845375,0.3348388671875,-0.13604736328125,-0.762603759765625,1,0.63
2020-05-20 00:21:45.842 -0400,1589948505.00112,41.35203001873892,-71.84495554347613,20.84472,0,-1,3.343390192156579,4.758810676606082,-9999,15570.568737375,0.3690948486328125,0.102783203125,-1.027435302734375,1,0.63
2020-05-20 00:21:45.892 -0400,1589948505.00112,41.35203001873892,-71.84495554347613,20.84472,0,-1,3.343390192156579,4.758810676606082,-9999,15570.618630375,0.2317657470703125,0.4661865234375,-0.694488525390625,1,0.63
2020-05-20 00:21:45.941 -0400,1589948505.00112,41.35203001873892,-71.84495554347613,20.84472,0,-1,3.343390192156579,4.758810676606082,-9999,15570.668521375,0.168975830078125,0.277801513671875,-0.5284576416015625,1,0.63
2020-05-20 00:21:45.992 -0400,1589948505.00112,41.35203001873892,-71.84495554347613,20.84472,0,-1,3.343390192156579,4.758810676606082,-9999,15570.718410375,0.208984375,0.046661376953125,-0.631591796875,1,0.63
2020-05-20 00:21:46.041 -0400,1589948505.00112,41.35203001873892,-71.84495554347613,20.84472,0,-1,3.343390192156579,4.758810676606082,-9999,15570.768299375,0.353912353515625,-0.507080078125,-0.955230712890625,1,0.63
2020-05-20 00:21:46.091 -0400,1589948505.00112,41.35203001873892,-71.84495554347613,20.84472,0,-1,3.343390192156579,4.758810676606082,-9999,15570.818189375,0.5700836181640625,-0.99090576171875,-1.012466430664062,1,0.63
2020-05-20 00:21:46.141 -0400,1589948505.00112,41.35203001873892,-71.84495554347613,20.84472,0,-1,3.343390192156579,4.758810676606082,-9999,15570.868078375,0.589141845703125,-0.3874969482421875,-0.7689666748046875,1,0.63
2020-05-20 00:21:46.191 -0400,1589948505.00112,41.35203001873892,-71.84495554347613,20.84472,0,-1,3.343390192156579,4.758810676606082,-9999,15570.917967375,0.679901123046875,0.0606536865234375,-0.823974609375,1,0.63
2020-05-20 00:21:46.241 -0400,1589948505.00112,41.35203001873892,-71.84495554347613,20.84472,0,-1,3.343390192156579,4.758810676606082,-9999,15570.967858375,0.69586181640625,0.37396240234375,-0.989501953125,1,0.63
2020-05-20 00:21:46.291 -0400,1589948505.00112,41.35203001873892,-71.84495554347613,20.84472,0,-1,3.343390192156579,4.758810676606082,-9999,15571.017751375,0.54010009765625,0.1773529052734375,-0.9773406982421875,1,0.63
2020-05-20 00:21:46.341 -0400,1589948506.001145,41.35203062713362,-71.84494659742556,21.2227,0,-1,3.355458252714565,4.75030914226417,-9999,15571.067642375,0.555267333984375,-0.2185211181640625,-0.6519927978515625,1,0.63
2020-05-20 00:21:46.391 -0400,1589948506.001145,41.35203062713362,-71.84494659742556,21.2227,0,-1,3.355458252714565,4.75030914226417,-9999,15571.117532375,0.7674560546875,-0.4283905029296875,-0.7923736572265625,1,0.63
2020-05-20 00:21:46.440 -0400,1589948506.001145,41.35203062713362,-71.84494659742556,21.2227,0,-1,3.355458252714565,4.75030914226417,-9999,15571.167422375,0.7796630859375,-0.1761932373046875,-0.7318267822265625,1,0.63
2020-05-20 00:21:46.490 -0400,1589948506.001145,41.35203062713362,-71.84494659742556,21.2227,0,-1,3.355458252714565,4.75030914226417,-9999,15571.217314375,0.626068115234375,0.17156982421875,-0.947845458984375,1,0.63
2020-05-20 00:21:46.540 -0400,1589948506.001145,41.35203062713362,-71.84494659742556,21.2227,0,-1,3.355458252714565,4.75030914226417,-9999,15571.267208375,0.596466064453125,-0.0369110107421875,-0.9299468994140625,1,0.63
2020-05-20 00:21:46.590 -0400,1589948506.001145,41.35203062713362,-71.84494659742556,21.2227,0,-1,3.355458252714565,4.75030914226417,-9999,15571.317100375,0.534698486328125,-0.190460205078125,-0.502593994140625,1,0.63
2020-05-20 00:21:46.640 -0400,1589948506.001145,41.35203062713362,-71.84494659742556,21.2227,0,-1,3.355458252714565,4.75030914226417,-9999,15571.366994375,0.5316314697265625,0.0645751953125,-0.72442626953125,1,0.63
2020-05-20 00:21:46.690 -0400,1589948506.001145,41.35203062713362,-71.84494659742556,21.2227,0,-1,3.355458252714565,4.75030914226417,-9999,15571.416890375,0.4935760498046875,-0.11279296875,-0.9387359619140625,1,0.63
2020-05-20 00:21:46.740 -0400,1589948506.001145,41.35203062713362,-71.84494659742556,21.2227,0,-1,3.355458252714565,4.75030914226417,-9999,15571.466784375,0.5756988525390625,0.0999603271484375,-0.9234466552734375,1,0.63
2020-05-20 00:21:46.790 -0400,1589948506.001145,41.35203062713362,-71.84494659742556,21.2227,0,-1,3.355458252714565,4.75030914226417,-9999,15571.516680375,0.5861053466796875,0.226348876953125,-1.082015991210938,1,0.63
2020-05-20 00:21:46.841 -0400,1589948506.001145,41.35203062713362,-71.84494659742556,21.2227,0,-1,3.355458252714565,4.75030914226417,-9999,15571.566574375,0.4655303955078125,0.476654052734375,-0.8408966064453125,1,0.63
2020-05-20 00:21:46.890 -0400,1589948506.001145,41.35203062713362,-71.84494659742556,21.2227,0,-1,3.355458252714565,4.75030914226417,-9999,15571.616469375,0.36370849609375,0.6307220458984375,-0.8205413818359375,1,0.63
2020-05-20 00:21:46.939 -0400,1589948506.001145,41.35203062713362,-71.84494659742556,21.2227,0,-1,3.355458252714565,4.75030914226417,-9999,15571.666363375,0.1918487548828125,0.8380584716796875,-0.71063232421875,1,0.63
2020-05-20 00:21:46.989 -0400,1589948506.001145,41.35203062713362,-71.84494659742556,21.2227,0,-1,3.355458252714565,4.75030914226417,-9999,15571.716258375,0.133819580078125,0.7689056396484375,-0.6228790283203125,1,0.63
2020-05-20 00:21:47.039 -0400,1589948506.001145,41.35203062713362,-71.84494659742556,21.2227,0,-1,3.355458252714565,4.75030914226417,-9999,15571.766152375,0.0609588623046875,0.645263671875,-0.576751708984375,1,0.63
2020-05-20 00:21:47.089 -0400,1589948506.001145,41.35203062713362,-71.84494659742556,21.2227,0,-1,3.355458252714565,4.75030914226417,-9999,15571.816047375,-0.0565338134765625,0.7015533447265625,-0.447113037109375,1,0.63
2020-05-20 00:21:47.139 -0400,1589948506.001145,41.35203062713362,-71.84494659742556,21.2227,0,-1,3.355458252714565,4.75030914226417,-9999,15571.86594429167,-0.062774658203125,0.558380126953125,-0.4828948974609375,1,0.63
2020-05-20 00:21:47.189 -0400,1589948506.001145,41.35203062713362,-71.84494659742556,21.2227,0,-1,3.355458252714565,4.75030914226417,-9999,15571.91583729167,-0.032012939453125,0.4593353271484375,-0.4997711181640625,1,0.63
2020-05-20 00:21:47.238 -0400,1589948506.001145,41.35203062713362,-71.84494659742556,21.2227,0,-1,3.355458252714565,4.75030914226417,-9999,15571.96573029167,0.060546875,0.444671630859375,-0.5487823486328125,1,0.63
2020-05-20 00:21:47.289 -0400,1589948507.001162,41.35202952341223,-71.84494366281346,20.9766,0,-1,3.353720911666183,4.751535865322052,-9999,15572.01562429167,0.1606292724609375,0.5880126953125,-0.501708984375,1,0.63
2020-05-20 00:21:47.343 -0400,1589948507.001162,41.35202952341223,-71.84494366281346,20.9766,0,-1,3.353720911666183,4.751535865322052,-9999,15572.06551829167,0.1814117431640625,0.6775054931640625,-0.579925537109375,1,0.63
2020-05-20 00:21:47.388 -0400,1589948507.001162,41.35202952341223,-71.84494366281346,20.9766,0,-1,3.353720911666183,4.751535865322052,-9999,15572.11541229167,0.240753173828125,0.70263671875,-0.895263671875,1,0.63
2020-05-20 00:21:47.438 -0400,1589948507.001162,41.35202952341223,-71.84494366281346,20.9766,0,-1,3.353720911666183,4.751535865322052,-9999,15572.16530629167,0.307830810546875,0.2921600341796875,-0.9506988525390625,1,0.63
2020-05-20 00:21:47.488 -0400,1589948507.001162,41.35202952341223,-71.84494366281346,20.9766,0,-1,3.353720911666183,4.751535865322052,-9999,15572.21519729167,0.5227508544921875,0.254150390625,-1.422927856445312,1,0.63
2020-05-20 00:21:47.538 -0400,1589948507.001162,41.35202952341223,-71.84494366281346,20.9766,0,-1,3.353720911666183,4.751535865322052,-9999,15572.26508829167,0.6235809326171875,0.32476806640625,-1.020782470703125,1,0.63
2020-05-20 00:21:47.588 -0400,1589948507.001162,41.35202952341223,-71.84494366281346,20.9766,0,-1,3.353720911666183,4.751535865322052,-9999,15572.31498029167,0.57537841796875,0.354766845703125,-0.8423614501953125,1,0.63
2020-05-20 00:21:47.638 -0400,1589948507.001162,41.35202952341223,-71.84494366281346,20.9766,0,-1,3.353720911666183,4.751535865322052,-9999,15572.36487229167,0.4012603759765625,0.4363555908203125,-0.97198486328125,1,0.63
2020-05-20 00:21:47.688 -0400,1589948507.001162,41.35202952341223,-71.84494366281346,20.9766,0,-1,3.353720911666183,4.751535865322052,-9999,15572.41476329167,0.2683868408203125,0.256195068359375,-0.907135009765625,1,0.63
2020-05-20 00:21:47.738 -0400,1589948507.001162,41.35202952341223,-71.84494366281346,20.9766,0,-1,3.353720911666183,4.751535865322052,-9999,15572.46465229167,0.2704010009765625,0.15570068359375,-0.920166015625,1,0.63
2020-05-20 00:21:47.787 -0400,1589948507.001162,41.35202952341223,-71.84494366281346,20.9766,0,-1,3.353720911666183,4.751535865322052,-9999,15572.51454429167,0.2904510498046875,0.1894073486328125,-0.87115478515625,1,0.63
2020-05-20 00:21:47.837 -0400,1589948507.001162,41.35202952341223,-71.84494366281346,20.9766,0,-1,3.353720911666183,4.751535865322052,-9999,15572.56443729167,0.3018341064453125,0.3225860595703125,-0.855255126953125,1,0.63
2020-05-20 00:21:47.887 -0400,1589948507.001162,41.35202952341223,-71.84494366281346,20.9766,0,-1,3.353720911666183,4.751535865322052,-9999,15572.61433029167,0.3106536865234375,0.3006134033203125,-0.940093994140625,1,0.63
2020-05-20 00:21:47.937 -0400,1589948507.001162,41.35202952341223,-71.84494366281346,20.9766,0,-1,3.353720911666183,4.751535865322052,-9999,15572.66422329167,0.27587890625,0.259552001953125,-0.9484405517578125,1,0.63
2020-05-20 00:21:47.987 -0400,1589948507.001162,41.35202952341223,-71.84494366281346,20.9766,0,-1,3.353720911666183,4.751535865322052,-9999,15572.71411429167,0.2725982666015625,0.3323822021484375,-0.9254608154296875,1,0.63
2020-05-20 00:21:48.037 -0400,1589948507.001162,41.35202952341223,-71.84494366281346,20.9766,0,-1,3.353720911666183,4.751535865322052,-9999,15572.76400629167,0.283966064453125,0.3313446044921875,-0.9383544921875,1,0.63
2020-05-20 00:21:48.087 -0400,1589948507.001162,41.35202952341223,-71.84494366281346,20.9766,0,-1,3.353720911666183,4.751535865322052,-9999,15572.81389929167,0.2905731201171875,0.3281707763671875,-0.8805084228515625,1,0.63
2020-05-20 00:21:48.137 -0400,1589948507.001162,41.35202952341223,-71.84494366281346,20.9766,0,-1,3.353720911666183,4.751535865322052,-9999,15572.86379075,0.3315277099609375,0.3134613037109375,-0.934295654296875,1,0.63
2020-05-20 00:21:48.186 -0400,1589948507.001162,41.35202952341223,-71.84494366281346,20.9766,0,-1,3.353720911666183,4.751535865322052,-9999,15572.91368575,0.3038330078125,0.313629150390625,-0.9160003662109375,1,0.63
2020-05-20 00:21:48.244 -0400,1589948507.001162,41.35202952341223,-71.84494366281346,20.9766,0,-1,3.353720911666183,4.751535865322052,-9999,15572.96357975,0.321685791015625,0.312835693359375,-0.9119415283203125,1,0.63
2020-05-20 00:21:48.287 -0400,1589948508.001182,41.35202872599724,-71.84494151453698,20.65426,0,-1,3.348692900707316,4.755080744797217,-9999,15573.01347175,0.3086700439453125,0.327362060546875,-0.9482421875,1,0.63
2020-05-20 00:21:48.336 -0400,1589948508.001182,41.35202872599724,-71.84494151453698,20.65426,0,-1,3.348692900707316,4.755080744797217,-9999,15573.06336475,0.290130615234375,0.285369873046875,-0.9234619140625,1,0.63
2020-05-20 00:21:48.386 -0400,1589948508.001182,41.35202872599724,-71.84494151453698,20.65426,0,-1,3.348692900707316,4.755080744797217,-9999,15573.11325875,0.30950927734375,0.300628662109375,-0.8558502197265625,1,0.63
2020-05-20 00:21:48.436 -0400,1589948508.001182,41.35202872599724,-71.84494151453698,20.65426,0,-1,3.348692900707316,4.755080744797217,-9999,15573.16315075,0.30682373046875,0.2949371337890625,-0.8990631103515625,1,0.63
2020-05-20 00:21:48.486 -0400,1589948508.001182,41.35202872599724,-71.84494151453698,20.65426,0,-1,3.348692900707316,4.755080744797217,-9999,15573.21304275,0.3024444580078125,0.27984619140625,-0.89794921875,1,0.63
2020-05-20 00:21:48.536 -0400,1589948508.001182,41.35202872599724,-71.84494151453698,20.65426,0,-1,3.348692900707316,4.755080744797217,-9999,15573.26293175,0.3140869140625,0.322662353515625,-0.9471282958984375,1,0.63
2020-05-20 00:21:48.586 -0400,1589948508.001182,41.35202872599724,-71.84494151453698,20.65426,0,-1,3.348692900707316,4.755080744797217,-9999,15573.31282075,0.2760009765625,0.292572021484375,-0.919036865234375,1,0.63
2020-05-20 00:21:48.636 -0400,1589948508.001182,41.35202872599724,-71.84494151453698,20.65426,0,-1,3.348692900707316,4.755080744797217,-9999,15573.36271175,0.29364013671875,0.2633209228515625,-0.9070892333984375,1,0.63
2020-05-20 00:21:48.685 -0400,1589948508.001182,41.35202872599724,-71.84494151453698,20.65426,0,-1,3.348692900707316,4.755080744797217,-9999,15573.41259975,0.3197174072265625,0.2302093505859375,-0.8931427001953125,1,0.63
2020-05-20 00:21:48.735 -0400,1589948508.001182,41.35202872599724,-71.84494151453698,20.65426,0,-1,3.348692900707316,4.755080744797217,-9999,15573.46248975,0.3546905517578125,0.223785400390625,-0.9034881591796875,1,0.63
2020-05-20 00:21:48.785 -0400,1589948508.001182,41.35202872599724,-71.84494151453698,20.65426,0,-1,3.348692900707316,4.755080744797217,-9999,15573.51238275,0.3628692626953125,0.2486419677734375,-0.92987060546875,1,0.63
2020-05-20 00:21:48.835 -0400,1589948508.001182,41.35202872599724,-71.84494151453698,20.65426,0,-1,3.348692900707316,4.755080744797217,-9999,15573.56227675,0.3590240478515625,0.268890380859375,-0.923919677734375,1,0.63
2020-05-20 00:21:48.885 -0400,1589948508.001182,41.35202872599724,-71.84494151453698,20.65426,0,-1,3.348692900707316,4.755080744797217,-9999,15573.61216975,0.3598480224609375,0.3607635498046875,-0.7837066650390625,1,0.63
2020-05-20 00:21:48.935 -0400,1589948508.001182,41.35202872599724,-71.84494151453698,20.65426,0,-1,3.348692900707316,4.755080744797217,-9999,15573.66206175,0.294708251953125,0.446685791015625,-0.7884979248046875,1,0.63
2020-05-20 00:21:48.985 -0400,1589948508.001182,41.35202872599724,-71.84494151453698,20.65426,0,-1,3.348692900707316,4.755080744797217,-9999,15573.71195675,0.2586669921875,0.6058807373046875,-0.7039642333984375,1,0.63
2020-05-20 00:21:49.035 -0400,1589948508.001182,41.35202872599724,-71.84494151453698,20.65426,0,-1,3.348692900707316,4.755080744797217,-9999,15573.76184875,0.199432373046875,0.7749786376953125,-0.743499755859375,1,0.63
2020-05-20 00:21:49.085 -0400,1589948508.001182,41.35202872599724,-71.84494151453698,20.65426,0,-1,3.348692900707316,4.755080744797217,-9999,15573.81174075,0.226287841796875,0.5280914306640625,-0.801971435546875,1,0.63
2020-05-20 00:21:49.134 -0400,1589948508.001182,41.35202872599724,-71.84494151453698,20.65426,0,-1,3.348692900707316,4.755080744797217,-9999,15573.86163175,0.3160858154296875,0.4450531005859375,-0.859619140625,1,0.63
2020-05-20 00:21:49.184 -0400,1589948508.001182,41.35202872599724,-71.84494151453698,20.65426,0,-1,3.348692900707316,4.755080744797217,-9999,15573.91152075,0.3811798095703125,0.4541473388671875,-0.87493896484375,1,0.63
2020-05-20 00:21:49.234 -0400,1589948508.001182,41.35202872599724,-71.84494151453698,20.65426,0,-1,3.348692900707316,4.755080744797217,-9999,15573.96140875,0.3798980712890625,0.4798736572265625,-0.8116912841796875,1,0.63
2020-05-20 00:21:49.284 -0400,1589948508.001182,41.35202872599724,-71.84494151453698,20.65426,0,-1,3.348692900707316,4.755080744797217,-9999,15574.01129875,0.350494384765625,0.4683380126953125,-0.8220367431640625,1,0.63
2020-05-20 00:21:49.334 -0400,1589948508.001182,41.35202872599724,-71.84494151453698,20.65426,0,-1,3.348692900707316,4.755080744797217,-9999,15574.06119075,0.32366943359375,0.441986083984375,-0.801544189453125,1,0.63
2020-05-20 00:21:49.384 -0400,1589948509.001203,41.35202811721197,-71.84493971733787,20.57663,0,-1,3.344095436904078,4.758315115843649,-9999,15574.11108375,0.3154144287109375,0.474212646484375,-0.80780029296875,1,0.63
2020-05-20 00:21:49.434 -0400,1589948509.001203,41.35202811721197,-71.84493971733787,20.57663,0,-1,3.344095436904078,4.758315115843649,-9999,15574.16097575,0.3184967041015625,0.4920501708984375,-0.8218994140625,1,0.63
2020-05-20 00:21:49.484 -0400,1589948509.001203,41.35202811721197,-71.84493971733787,20.57663,0,-1,3.344095436904078,4.758315115843649,-9999,15574.21086675,0.312530517578125,0.505279541015625,-0.8055877685546875,1,0.63
2020-05-20 00:21:49.534 -0400,1589948509.001203,41.35202811721197,-71.84493971733787,20.57663,0,-1,3.344095436904078,4.758315115843649,-9999,15574.26075575,0.308868408203125,0.529327392578125,-0.8558349609375,1,0.63
2020-05-20 00:21:49.583 -0400,1589948509.001203,41.35202811721197,-71.84493971733787,20.57663,0,-1,3.344095436904078,4.758315115843649,-9999,15574.31064375,0.2860565185546875,0.4673614501953125,-0.8134613037109375,1,0.63
2020-05-20 00:21:49.634 -0400,1589948509.001203,41.35202811721197,-71.84493971733787,20.57663,0,-1,3.344095436904078,4.758315115843649,-9999,15574.36053375,0.3179931640625,0.462371826171875,-0.810943603515625,1,0.63
2020-05-20 00:21:49.683 -0400,1589948509.001203,41.35202811721197,-71.84493971733787,20.57663,0,-1,3.344095436904078,4.758315115843649,-9999,15574.41042375,0.3173370361328125,0.44610595703125,-0.844268798828125,1,0.63
2020-05-20 00:21:49.733 -0400,1589948509.001203,41.35202811721197,-71.84493971733787,20.57663,0,-1,3.344095436904078,4.758315115843649,-9999,15574.46031175,0.3035736083984375,0.436492919921875,-0.8391876220703125,1,0.63
2020-05-20 00:21:49.783 -0400,1589948509.001203,41.35202811721197,-71.84493971733787,20.57663,0,-1,3.344095436904078,4.758315115843649,-9999,15574.51020575,0.297119140625,0.4535980224609375,-0.8417205810546875,1,0.63
2020-05-20 00:21:49.833 -0400,1589948509.001203,41.35202811721197,-71.84493971733787,20.57663,0,-1,3.344095436904078,4.758315115843649,-9999,15574.56009575,0.2935791015625,0.4598541259765625,-0.8421173095703125,1,0.63
2020-05-20 00:21:49.883 -0400,1589948509.001203,41.35202811721197,-71.84493971733787,20.57663,0,-1,3.344095436904078,4.758315115843649,-9999,15574.60998875,0.2953643798828125,0.457275390625,-0.8368988037109375,1,0.63
2020-05-20 00:21:49.933 -0400,1589948509.001203,41.35202811721197,-71.84493971733787,20.57663,0,-1,3.344095436904078,4.758315115843649,-9999,15574.65987975,0.298187255859375,0.457763671875,-0.8442535400390625,1,0.63
2020-05-20 00:21:49.983 -0400,1589948509.001203,41.35202811721197,-71.84493971733787,20.57663,0,-1,3.344095436904078,4.758315115843649,-9999,15574.70977275,0.2993011474609375,0.4515533447265625,-0.83544921875,1,0.63
2020-05-20 00:21:50.032 -0400,1589948509.001203,41.35202811721197,-71.84493971733787,20.57663,0,-1,3.344095436904078,4.758315115843649,-9999,15574.75966375,0.3010406494140625,0.4571990966796875,-0.856292724609375,1,0.63
2020-05-20 00:21:50.082 -0400,1589948509.001203,41.35202811721197,-71.84493971733787,20.57663,0,-1,3.344095436904078,4.758315115843649,-9999,15574.80955575,0.2987518310546875,0.454803466796875,-0.84033203125,1,0.63
2020-05-20 00:21:50.132 -0400,1589948509.001203,41.35202811721197,-71.84493971733787,20.57663,0,-1,3.344095436904078,4.758315115843649,-9999,15574.85944725,0.300201416015625,0.4575958251953125,-0.842620849609375,1,0.63
2020-05-20 00:21:50.182 -0400,1589948509.001203,41.35202811721197,-71.84493971733787,20.57663,0,-1,3.344095436904078,4.758315115843649,-9999,15574.90933825,0.2989349365234375,0.4532928466796875,-0.841400146484375,1,0.63
2020-05-20 00:21:50.232 -0400,1589948509.001203,41.35202811721197,-71.84493971733787,20.57663,0,-1,3.344095436904078,4.758315115843649,-9999,15574.95923125,0.29827880859375,0.4543609619140625,-0.843414306640625,1,0.63
2020-05-20 00:21:50.282 -0400,1589948509.001203,41.35202811721197,-71.84493971733787,20.57663,0,-1,3.344095436904078,4.758315115843649,-9999,15575.00912325,0.2945709228515625,0.45086669921875,-0.8368377685546875,1,0.63
2020-05-20 00:21:50.332 -0400,1589948510.001224,41.3520301278278,-71.84493804147371,20.67766,0,-1,3.347679359639379,4.755794354031019,-9999,15575.05901725,0.299468994140625,0.458038330078125,-0.8530426025390625,1,0.63
2020-05-20 00:21:50.382 -0400,1589948510.001224,41.3520301278278,-71.84493804147371,20.67766,0,-1,3.347679359639379,4.755794354031019,-9999,15575.10891025,0.2976531982421875,0.448333740234375,-0.8313751220703125,1,0.63
2020-05-20 00:21:50.432 -0400,1589948510.001224,41.3520301278278,-71.84493804147371,20.67766,0,-1,3.347679359639379,4.755794354031019,-9999,15575.15880625,0.302520751953125,0.4527130126953125,-0.8441925048828125,1,0.63
2020-05-20 00:21:50.482 -0400,1589948510.001224,41.3520301278278,-71.84493804147371,20.67766,0,-1,3.347679359639379,4.755794354031019,-9999,15575.20869925,0.300140380859375,0.4453582763671875,-0.8353729248046875,1,0.63
2020-05-20 00:21:50.531 -0400,1589948510.001224,41.3520301278278,-71.84493804147371,20.67766,0,-1,3.347679359639379,4.755794354031019,-9999,15575.25859225,0.3012237548828125,0.4472198486328125,-0.8378143310546875,1,0.63
2020-05-20 00:21:50.581 -0400,1589948510.001224,41.3520301278278,-71.84493804147371,20.67766,0,-1,3.347679359639379,4.755794354031019,-9999,15575.30848425,0.299163818359375,0.4500885009765625,-0.8431243896484375,1,0.63
2020-05-20 00:21:50.631 -0400,1589948510.001224,41.3520301278278,-71.84493804147371,20.67766,0,-1,3.347679359639379,4.755794354031019,-9999,15575.35837625,0.300811767578125,0.445068359375,-0.854888916015625,1,0.63
2020-05-20 00:21:50.681 -0400,1589948510.001224,41.3520301278278,-71.84493804147371,20.67766,0,-1,3.347679359639379,4.755794354031019,-9999,15575.40826925,0.2985992431640625,0.44244384765625,-0.8443756103515625,1,0.63
2020-05-20 00:21:50.731 -0400,1589948510.001224,41.3520301278278,-71.84493804147371,20.67766,0,-1,3.347679359639379,4.755794354031019,-9999,15575.45816125,0.3040771484375,0.4461669921875,-0.8347625732421875,1,0.63
2020-05-20 00:21:50.781 -0400,1589948510.001224,41.3520301278278,-71.84493804147371,20.67766,0,-1,3.347679359639379,4.755794354031019,-9999,15575.50805525,0.3058624267578125,0.436370849609375,-0.8486480712890625,1,0.63
2020-05-20 00:21:50.831 -0400,1589948510.001224,41.3520301278278,-71.84493804147371,20.67766,0,-1,3.347679359639379,4.755794354031019,-9999,15575.55794825,0.308441162109375,0.4438934326171875,-0.8344879150390625,1,0.63
2020-05-20 00:21:50.881 -0400,1589948510.001224,41.3520301278278,-71.84493804147371,20.67766,0,-1,3.347679359639379,4.755794354031019,-9999,15575.60784125,0.3101806640625,0.45867919921875,-0.841033935546875,1,0.63
2020-05-20 00:21:50.931 -0400,1589948510.001224,41.3520301278278,-71.84493804147371,20.67766,0,-1,3.347679359639379,4.755794354031019,-9999,15575.65773125,0.3148956298828125,0.4490814208984375,-0.835052490234375,1,0.63
2020-05-20 00:21:50.980 -0400,1589948510.001224,41.3520301278278,-71.84493804147371,20.67766,0,-1,3.347679359639379,4.755794354031019,-9999,15575.70762525,0.3157806396484375,0.45263671875,-0.83319091796875,1,0.63
2020-05-20 00:21:51.030 -0400,1589948510.001224,41.3520301278278,-71.84493804147371,20.67766,0,-1,3.347679359639379,4.755794354031019,-9999,15575.75751825,0.3137664794921875,0.448822021484375,-0.845001220703125,1,0.63
2020-05-20 00:21:51.080 -0400,1589948510.001224,41.3520301278278,-71.84493804147371,20.67766,0,-1,3.347679359639379,4.755794354031019,-9999,15575.80741225,0.3199462890625,0.4495086669921875,-0.8208465576171875,1,0.63
2020-05-20 00:21:51.130 -0400,1589948510.001224,41.3520301278278,-71.84493804147371,20.67766,0,-1,3.347679359639379,4.755794354031019,-9999,15575.85730525,0.3206024169921875,0.4626922607421875,-0.861968994140625,1,0.63
2020-05-20 00:21:51.180 -0400,1589948510.001224,41.3520301278278,-71.84493804147371,20.67766,0,-1,3.347679359639379,4.755794354031019,-9999,15575.90719825,0.320281982421875,0.4513092041015625,-0.8368988037109375,1,0.63
2020-05-20 00:21:51.230 -0400,1589948510.001224,41.3520301278278,-71.84493804147371,20.67766,0,-1,3.347679359639379,4.755794354031019,-9999,15575.95709225,0.325408935546875,0.4443359375,-0.846832275390625,1,0.63
2020-05-20 00:21:51.280 -0400,1589948511.001245,41.35203413829522,-71.84493797278635,20.75991,0,-1,3.351117938774404,4.753372023439069,-9999,15576.00698625,0.3180694580078125,0.428009033203125,-0.807830810546875,1,0.63
2020-05-20 00:21:51.330 -0400,1589948511.001245,41.35203413829522,-71.84493797278635,20.75991,0,-1,3.351117938774404,4.753372023439069,-9999,15576.05688125,0.3253936767578125,0.4540557861328125,-0.8447265625,1,0.63
2020-05-20 00:21:51.380 -0400,1589948511.001245,41.35203413829522,-71.84493797278635,20.75991,0,-1,3.351117938774404,4.753372023439069,-9999,15576.10677425,0.3213653564453125,0.4539794921875,-0.8281707763671875,1,0.63
2020-05-20 00:21:51.430 -0400,1589948511.001245,41.35203413829522,-71.84493797278635,20.75991,0,-1,3.351117938774404,4.753372023439069,-9999,15576.15666425,0.3266448974609375,0.44989013671875,-0.834686279296875,1,0.63
2020-05-20 00:21:51.479 -0400,1589948511.001245,41.35203413829522,-71.84493797278635,20.75991,0,-1,3.351117938774404,4.753372023439069,-9999,15576.20655525,0.318817138671875,0.4341888427734375,-0.8323516845703125,1,0.63
2020-05-20 00:21:51.529 -0400,1589948511.001245,41.35203413829522,-71.84493797278635,20.75991,0,-1,3.351117938774404,4.753372023439069,-9999,15576.25644525,0.3163299560546875,0.4476165771484375,-0.8390960693359375,1,0.63
2020-05-20 00:21:51.579 -0400,1589948511.001245,41.35203413829522,-71.84493797278635,20.75991,0,-1,3.351117938774404,4.753372023439069,-9999,15576.30633425,0.3116607666015625,0.450897216796875,-0.8417510986328125,1,0.63
2020-05-20 00:21:51.629 -0400,1589948511.001245,41.35203413829522,-71.84493797278635,20.75991,0,-1,3.351117938774404,4.753372023439069,-9999,15576.35622325,0.31201171875,0.4462738037109375,-0.8371124267578125,1,0.63
2020-05-20 00:21:51.679 -0400,1589948511.001245,41.35203413829522,-71.84493797278635,20.75991,0,-1,3.351117938774404,4.753372023439069,-9999,15576.40611325,0.3124237060546875,0.4491119384765625,-0.8385162353515625,1,0.63
2020-05-20 00:21:51.729 -0400,1589948511.001245,41.35203413829522,-71.84493797278635,20.75991,0,-1,3.351117938774404,4.753372023439069,-9999,15576.45600425,0.3124542236328125,0.4488372802734375,-0.84442138671875,1,0.63
2020-05-20 00:21:51.779 -0400,1589948511.001245,41.35203413829522,-71.84493797278635,20.75991,0,-1,3.351117938774404,4.753372023439069,-9999,15576.50589525,0.3071746826171875,0.44671630859375,-0.8428497314453125,1,0.63
2020-05-20 00:21:51.829 -0400,1589948511.001245,41.35203413829522,-71.84493797278635,20.75991,0,-1,3.351117938774404,4.753372023439069,-9999,15576.55578525,0.3022918701171875,0.4480133056640625,-0.839080810546875,1,0.63
2020-05-20 00:21:51.879 -0400,1589948511.001245,41.35203413829522,-71.84493797278635,20.75991,0,-1,3.351117938774404,4.753372023439069,-9999,15576.60567525,0.305694580078125,0.4417266845703125,-0.8418426513671875,1,0.63
2020-05-20 00:21:51.929 -0400,1589948511.001245,41.35203413829522,-71.84493797278635,20.75991,0,-1,3.351117938774404,4.753372023439069,-9999,15576.65556525,0.3072967529296875,0.4485321044921875,-0.843048095703125,1,0.63
2020-05-20 00:21:51.978 -0400,1589948511.001245,41.35203413829522,-71.84493797278635,20.75991,0,-1,3.351117938774404,4.753372023439069,-9999,15576.70545325,0.30499267578125,0.4419097900390625,-0.850006103515625,1,0.63
2020-05-20 00:21:52.028 -0400,1589948511.001245,41.35203413829522,-71.84493797278635,20.75991,0,-1,3.351117938774404,4.753372023439069,-9999,15576.75534425,0.307098388671875,0.442718505859375,-0.848602294921875,1,0.63
2020-05-20 00:21:52.078 -0400,1589948511.001245,41.35203413829522,-71.84493797278635,20.75991,0,-1,3.351117938774404,4.753372023439069,-9999,15576.80523625,0.309722900390625,0.4437408447265625,-0.83563232421875,1,0.63
2020-05-20 00:21:52.128 -0400,1589948511.001245,41.35203413829522,-71.84493797278635,20.75991,0,-1,3.351117938774404,4.753372023439069,-9999,15576.85512725,0.30218505859375,0.4388427734375,-0.8453216552734375,1,0.63
2020-05-20 00:21:52.178 -0400,1589948511.001245,41.35203413829522,-71.84493797278635,20.75991,0,-1,3.351117938774404,4.753372023439069,-9999,15576.90501641667,0.301025390625,0.4488525390625,-0.8448028564453125,1,0.63
2020-05-20 00:21:52.228 -0400,1589948511.001245,41.35203413829522,-71.84493797278635,20.75991,0,-1,3.351117938774404,4.753372023439069,-9999,15576.95490641667,0.296600341796875,0.44390869140625,-0.8494415283203125,1,0.63
2020-05-20 00:21:52.278 -0400,1589948511.001245,41.35203413829522,-71.84493797278635,20.75991,0,-1,3.351117938774404,4.753372023439069,-9999,15577.00479541667,0.29998779296875,0.4388275146484375,-0.843109130859375,1,0.63
2020-05-20 00:21:52.328 -0400,1589948511.001245,41.35203413829522,-71.84493797278635,20.75991,0,-1,3.351117938774404,4.753372023439069,-9999,15577.05468741667,0.30072021484375,0.437042236328125,-0.8323822021484375,1,0.63
2020-05-20 00:21:52.378 -0400,1589948512.001266,41.35203506371732,-71.84493689153133,20.54383,0,-1,3.339622884442294,4.761455242097542,-9999,15577.10457941667,0.3006439208984375,0.443023681640625,-0.8476715087890625,1,0.63
2020-05-20 00:21:52.427 -0400,1589948512.001266,41.35203506371732,-71.84493689153133,20.54383,0,-1,3.339622884442294,4.761455242097542,-9999,15577.15447141667,0.2959442138671875,0.4484100341796875,-0.8481292724609375,1,0.63
2020-05-20 00:21:52.477 -0400,1589948512.001266,41.35203506371732,-71.84493689153133,20.54383,0,-1,3.339622884442294,4.761455242097542,-9999,15577.20436541667,0.3003082275390625,0.446319580078125,-0.8399810791015625,1,0.63
2020-05-20 00:21:52.527 -0400,1589948512.001266,41.35203506371732,-71.84493689153133,20.54383,0,-1,3.339622884442294,4.761455242097542,-9999,15577.25425541667,0.303955078125,0.444976806640625,-0.84771728515625,1,0.63
2020-05-20 00:21:52.577 -0400,1589948512.001266,41.35203506371732,-71.84493689153133,20.54383,0,-1,3.339622884442294,4.761455242097542,-9999,15577.30414641667,0.304290771484375,0.4442901611328125,-0.843963623046875,1,0.63
2020-05-20 00:21:52.627 -0400,1589948512.001266,41.35203506371732,-71.84493689153133,20.54383,0,-1,3.339622884442294,4.761455242097542,-9999,15577.35404041667,0.3019866943359375,0.4448089599609375,-0.842041015625,1,0.63
2020-05-20 00:21:52.677 -0400,1589948512.001266,41.35203506371732,-71.84493689153133,20.54383,0,-1,3.339622884442294,4.761455242097542,-9999,15577.40393641667,0.3023529052734375,0.4468231201171875,-0.83892822265625,1,0.63
2020-05-20 00:21:52.727 -0400,1589948512.001266,41.35203506371732,-71.84493689153133,20.54383,0,-1,3.339622884442294,4.761455242097542,-9999,15577.45383341667,0.303314208984375,0.447509765625,-0.84100341796875,1,0.63
2020-05-20 00:21:52.777 -0400,1589948512.001266,41.35203506371732,-71.84493689153133,20.54383,0,-1,3.339622884442294,4.761455242097542,-9999,15577.50372541667,0.302093505859375,0.4504547119140625,-0.847259521484375,1,0.63
2020-05-20 00:21:52.827 -0400,1589948512.001266,41.35203506371732,-71.84493689153133,20.54383,0,-1,3.339622884442294,4.761455242097542,-9999,15577.55361641667,0.30474853515625,0.4471893310546875,-0.8465728759765625,1,0.63
2020-05-20 00:21:52.876 -0400,1589948512.001266,41.35203506371732,-71.84493689153133,20.54383,0,-1,3.339622884442294,4.761455242097542,-9999,15577.60350941667,0.297698974609375,0.4475860595703125,-0.8559722900390625,1,0.63
2020-05-20 00:21:52.926 -0400,1589948512.001266,41.35203506371732,-71.84493689153133,20.54383,0,-1,3.339622884442294,4.761455242097542,-9999,15577.65340341667,0.303466796875,0.4533538818359375,-0.855224609375,1,0.63
2020-05-20 00:21:52.976 -0400,1589948512.001266,41.35203506371732,-71.84493689153133,20.54383,0,-1,3.339622884442294,4.761455242097542,-9999,15577.70329541667,0.309814453125,0.4490814208984375,-0.8230133056640625,1,0.63
2020-05-20 00:21:53.026 -0400,1589948512.001266,41.35203506371732,-71.84493689153133,20.54383,0,-1,3.339622884442294,4.761455242097542,-9999,15577.75318641667,0.3055267333984375,0.4417724609375,-0.84283447265625,1,0.63
2020-05-20 00:21:53.076 -0400,1589948512.001266,41.35203506371732,-71.84493689153133,20.54383,0,-1,3.339622884442294,4.761455242097542,-9999,15577.80307941667,0.312713623046875,0.4525299072265625,-0.84051513671875,1,0.63
2020-05-20 00:21:53.126 -0400,1589948512.001266,41.35203506371732,-71.84493689153133,20.54383,0,-1,3.339622884442294,4.761455242097542,-9999,15577.85297441667,0.3107757568359375,0.4540557861328125,-0.842254638671875,1,0.63
2020-05-20 00:21:53.176 -0400,1589948512.001266,41.35203506371732,-71.84493689153133,20.54383,0,-1,3.339622884442294,4.761455242097542,-9999,15577.902867,0.3154144287109375,0.4417724609375,-0.8374176025390625,1,0.63
2020-05-20 00:21:53.225 -0400,1589948512.001266,41.35203506371732,-71.84493689153133,20.54383,0,-1,3.339622884442294,4.761455242097542,-9999,15577.952758,0.3161773681640625,0.446258544921875,-0.839202880859375,1,0.63
2020-05-20 00:21:53.276 -0400,1589948513.001286,41.35203508052901,-71.84493691506512,20.52045,0,-1,3.41801426765314,4.705498432568903,-9999,15578.002651,0.31866455078125,0.4463348388671875,-0.838409423828125,1,0.63
2020-05-20 00:21:53.325 -0400,1589948513.001286,41.35203508052901,-71.84493691506512,20.52045,0,-1,3.41801426765314,4.705498432568903,-9999,15578.052544,0.319488525390625,0.446319580078125,-0.839996337890625,1,0.63
2020-05-20 00:21:53.375 -0400,1589948513.001286,41.35203508052901,-71.84493691506512,20.52045,0,-1,3.41801426765314,4.705498432568903,-9999,15578.102438,0.321441650390625,0.4499664306640625,-0.8383941650390625,1,0.63
2020-05-20 00:21:53.425 -0400,1589948513.001286,41.35203508052901,-71.84493691506512,20.52045,0,-1,3.41801426765314,4.705498432568903,-9999,15578.152329,0.3160552978515625,0.4694366455078125,-0.81866455078125,1,0.63
2020-05-20 00:21:53.475 -0400,1589948513.001286,41.35203508052901,-71.84493691506512,20.52045,0,-1,3.41801426765314,4.705498432568903,-9999,15578.202223,0.3050689697265625,0.5027923583984375,-0.80120849609375,1,0.63
2020-05-20 00:21:53.525 -0400,1589948513.001286,41.35203508052901,-71.84493691506512,20.52045,0,-1,3.41801426765314,4.705498432568903,-9999,15578.252114,0.30792236328125,0.538726806640625,-0.8276214599609375,1,0.63
2020-05-20 00:21:53.575 -0400,1589948513.001286,41.35203508052901,-71.84493691506512,20.52045,0,-1,3.41801426765314,4.705498432568903,-9999,15578.302003,0.298492431640625,0.4959259033203125,-0.826904296875,1,0.63
2020-05-20 00:21:53.625 -0400,1589948513.001286,41.35203508052901,-71.84493691506512,20.52045,0,-1,3.41801426765314,4.705498432568903,-9999,15578.351895,0.3324127197265625,0.4301910400390625,-0.8292999267578125,1,0.63
2020-05-20 00:21:53.675 -0400,1589948513.001286,41.35203508052901,-71.84493691506512,20.52045,0,-1,3.41801426765314,4.705498432568903,-9999,15578.401786,0.3603363037109375,0.3794403076171875,-0.86553955078125,1,0.63
2020-05-20 00:21:53.725 -0400,1589948513.001286,41.35203508052901,-71.84493691506512,20.52045,0,-1,3.41801426765314,4.705498432568903,-9999,15578.451677,0.344757080078125,0.36920166015625,-0.8477325439453125,1,0.63
2020-05-20 00:21:53.774 -0400,1589948513.001286,41.35203508052901,-71.84493691506512,20.52045,0,-1,3.41801426765314,4.705498432568903,-9999,15578.501567,0.3272857666015625,0.413970947265625,-0.8736724853515625,1,0.63
2020-05-20 00:21:53.824 -0400,1589948513.001286,41.35203508052901,-71.84493691506512,20.52045,0,-1,3.41801426765314,4.705498432568903,-9999,15578.551457,0.311065673828125,0.4309844970703125,-0.8375091552734375,1,0.63
2020-05-20 00:21:53.874 -0400,1589948513.001286,41.35203508052901,-71.84493691506512,20.52045,0,-1,3.41801426765314,4.705498432568903,-9999,15578.601347,0.3079986572265625,0.4621429443359375,-0.8350677490234375,1,0.63
2020-05-20 00:21:53.924 -0400,1589948513.001286,41.35203508052901,-71.84493691506512,20.52045,0,-1,3.41801426765314,4.705498432568903,-9999,15578.651235,0.31011962890625,0.4451141357421875,-0.8604888916015625,1,0.63
2020-05-20 00:21:53.974 -0400,1589948513.001286,41.35203508052901,-71.84493691506512,20.52045,0,-1,3.41801426765314,4.705498432568903,-9999,15578.701124,0.30804443359375,0.4045867919921875,-0.8499298095703125,1,0.63
2020-05-20 00:21:54.024 -0400,1589948513.001286,41.35203508052901,-71.84493691506512,20.52045,0,-1,3.41801426765314,4.705498432568903,-9999,15578.751013,0.3108367919921875,0.4159393310546875,-0.841094970703125,1,0.63
2020-05-20 00:21:54.074 -0400,1589948513.001286,41.35203508052901,-71.84493691506512,20.52045,0,-1,3.41801426765314,4.705498432568903,-9999,15578.800899,0.31683349609375,0.4336700439453125,-0.854095458984375,1,0.63
2020-05-20 00:21:54.124 -0400,1589948513.001286,41.35203508052901,-71.84493691506512,20.52045,0,-1,3.41801426765314,4.705498432568903,-9999,15578.850789,0.31512451171875,0.4225311279296875,-0.8481903076171875,1,0.63
2020-05-20 00:21:54.173 -0400,1589948513.001286,41.35203508052901,-71.84493691506512,20.52045,0,-1,3.41801426765314,4.705498432568903,-9999,15578.900678875,0.3051605224609375,0.43475341796875,-0.857879638671875,1,0.63
2020-05-20 00:21:54.223 -0400,1589948513.001286,41.35203508052901,-71.84493691506512,20.52045,0,-1,3.41801426765314,4.705498432568903,-9999,15578.950571875,0.3041839599609375,0.4219818115234375,-0.8550872802734375,1,0.63
2020-05-20 00:21:54.273 -0400,1589948514.001307,41.35203508052901,-71.84493691506512,20.52045,0,-1,3.439235640048973,4.690010154040796,-9999,15579.000460875,0.3039703369140625,0.422607421875,-0.8519134521484375,1,0.63
2020-05-20 00:21:54.323 -0400,1589948514.001307,41.35203508052901,-71.84493691506512,20.52045,0,-1,3.439235640048973,4.690010154040796,-9999,15579.050347875,0.30364990234375,0.436737060546875,-0.8509063720703125,1,0.63
2020-05-20 00:21:54.373 -0400,1589948514.001307,41.35203508052901,-71.84493691506512,20.52045,0,-1,3.439235640048973,4.690010154040796,-9999,15579.100236875,0.3106231689453125,0.43634033203125,-0.844940185546875,1,0.63
2020-05-20 00:21:54.423 -0400,1589948514.001307,41.35203508052901,-71.84493691506512,20.52045,0,-1,3.439235640048973,4.690010154040796,-9999,15579.150126875,0.30902099609375,0.4226837158203125,-0.8521575927734375,1,0.63
2020-05-20 00:21:54.473 -0400,1589948514.001307,41.35203508052901,-71.84493691506512,20.52045,0,-1,3.439235640048973,4.690010154040796,-9999,15579.200015875,0.29974365234375,0.4238128662109375,-0.841796875,1,0.63
2020-05-20 00:21:54.523 -0400,1589948514.001307,41.35203508052901,-71.84493691506512,20.52045,0,-1,3.439235640048973,4.690010154040796,-9999,15579.249904875,0.3121185302734375,0.4219818115234375,-0.8542633056640625,1,0.63
2020-05-20 00:21:54.573 -0400,1589948514.001307,41.35203508052901,-71.84493691506512,20.52045,0,-1,3.439235640048973,4.690010154040796,-9999,15579.299794875,0.31036376953125,0.4254302978515625,-0.847076416015625,1,0.63
2020-05-20 00:21:54.622 -0400,1589948514.001307,41.35203508052901,-71.84493691506512,20.52045,0,-1,3.439235640048973,4.690010154040796,-9999,15579.349684875,0.3038177490234375,0.4267730712890625,-0.8485565185546875,1,0.63
2020-05-20 00:21:54.672 -0400,1589948514.001307,41.35203508052901,-71.84493691506512,20.52045,0,-1,3.439235640048973,4.690010154040796,-9999,15579.399571875,0.3162841796875,0.4452362060546875,-0.8645782470703125,1,0.63
2020-05-20 00:21:54.722 -0400,1589948514.001307,41.35203508052901,-71.84493691506512,20.52045,0,-1,3.439235640048973,4.690010154040796,-9999,15579.449462875,0.31048583984375,0.417266845703125,-0.8300323486328125,1,0.63
2020-05-20 00:21:54.772 -0400,1589948514.001307,41.35203508052901,-71.84493691506512,20.52045,0,-1,3.439235640048973,4.690010154040796,-9999,15579.499351875,0.3095245361328125,0.4489898681640625,-0.88134765625,1,0.63
2020-05-20 00:21:54.822 -0400,1589948514.001307,41.35203508052901,-71.84493691506512,20.52045,0,-1,3.439235640048973,4.690010154040796,-9999,15579.549238875,0.2976531982421875,0.4359588623046875,-0.8596343994140625,1,0.63
2020-05-20 00:21:54.872 -0400,1589948514.001307,41.35203508052901,-71.84493691506512,20.52045,0,-1,3.439235640048973,4.690010154040796,-9999,15579.599123875,0.294219970703125,0.4487152099609375,-0.81744384765625,1,0.63
2020-05-20 00:21:54.922 -0400,1589948514.001307,41.35203508052901,-71.84493691506512,20.52045,0,-1,3.439235640048973,4.690010154040796,-9999,15579.649009875,0.322052001953125,0.4265289306640625,-0.8327178955078125,1,0.63
2020-05-20 00:21:54.972 -0400,1589948514.001307,41.35203508052901,-71.84493691506512,20.52045,0,-1,3.439235640048973,4.690010154040796,-9999,15579.698896875,0.3152008056640625,0.38983154296875,-0.8524169921875,1,0.63
2020-05-20 00:21:55.022 -0400,1589948514.001307,41.35203508052901,-71.84493691506512,20.52045,0,-1,3.439235640048973,4.690010154040796,-9999,15579.748786875,0.312774658203125,0.4221649169921875,-0.8707122802734375,1,0.63
2020-05-20 00:21:55.071 -0400,1589948514.001307,41.35203508052901,-71.84493691506512,20.52045,0,-1,3.439235640048973,4.690010154040796,-9999,15579.798678875,0.2989349365234375,0.43310546875,-0.8633270263671875,1,0.63
2020-05-20 00:21:55.121 -0400,1589948514.001307,41.35203508052901,-71.84493691506512,20.52045,0,-1,3.439235640048973,4.690010154040796,-9999,15579.848567875,0.30377197265625,0.442352294921875,-0.8553466796875,1,0.63
2020-05-20 00:21:55.171 -0400,1589948514.001307,41.35203508052901,-71.84493691506512,20.52045,0,-1,3.439235640048973,4.690010154040796,-9999,15579.89845825,0.3082275390625,0.4305267333984375,-0.8547515869140625,1,0.63
2020-05-20 00:21:55.221 -0400,1589948514.001307,41.35203508052901,-71.84493691506512,20.52045,0,-1,3.439235640048973,4.690010154040796,-9999,15579.94834625,0.3126678466796875,0.434600830078125,-0.8502197265625,1,0.63
2020-05-20 00:21:55.271 -0400,1589948514.001307,41.35203508052901,-71.84493691506512,20.52045,0,-1,3.439235640048973,4.690010154040796,-9999,15579.99823825,0.30963134765625,0.4268646240234375,-0.85125732421875,1,0.63
2020-05-20 00:21:55.321 -0400,1589948515.001328,41.35205401233273,-71.84493656799903,20.81526,0,-1,3.422840310682743,4.701989072759964,-9999,15580.04812625,0.3121185302734375,0.4273223876953125,-0.842254638671875,1,0.63
2020-05-20 00:21:55.371 -0400,1589948515.001328,41.35205401233273,-71.84493656799903,20.81526,0,-1,3.422840310682743,4.701989072759964,-9999,15580.09801525,0.3212890625,0.4218292236328125,-0.8530120849609375,1,0.63
2020-05-20 00:21:55.421 -0400,1589948515.001328,41.35205401233273,-71.84493656799903,20.81526,0,-1,3.422840310682743,4.701989072759964,-9999,15580.14790625,0.3181915283203125,0.427581787109375,-0.8360748291015625,1,0.63
2020-05-20 00:21:55.470 -0400,1589948515.001328,41.35205401233273,-71.84493656799903,20.81526,0,-1,3.422840310682743,4.701989072759964,-9999,15580.19779925,0.3231964111328125,0.42962646484375,-0.85272216796875,1,0.63
2020-05-20 00:21:55.520 -0400,1589948515.001328,41.35205401233273,-71.84493656799903,20.81526,0,-1,3.422840310682743,4.701989072759964,-9999,15580.24769125,0.3204345703125,0.4236602783203125,-0.8482818603515625,1,0.63
2020-05-20 00:21:55.570 -0400,1589948515.001328,41.35205401233273,-71.84493656799903,20.81526,0,-1,3.422840310682743,4.701989072759964,-9999,15580.29758425,0.3232269287109375,0.42236328125,-0.8325347900390625,1,0.63
2020-05-20 00:21:55.620 -0400,1589948515.001328,41.35205401233273,-71.84493656799903,20.81526,0,-1,3.422840310682743,4.701989072759964,-9999,15580.34747625,0.3207244873046875,0.426116943359375,-0.8398895263671875,1,0.63
2020-05-20 00:21:55.670 -0400,1589948515.001328,41.35205401233273,-71.84493656799903,20.81526,0,-1,3.422840310682743,4.701989072759964,-9999,15580.39736925,0.327606201171875,0.43359375,-0.8513641357421875,1,0.63
2020-05-20 00:21:55.720 -0400,1589948515.001328,41.35205401233273,-71.84493656799903,20.81526,0,-1,3.422840310682743,4.701989072759964,-9999,15580.44726225,0.32763671875,0.43402099609375,-0.8402099609375,1,0.63
2020-05-20 00:21:55.770 -0400,1589948515.001328,41.35205401233273,-71.84493656799903,20.81526,0,-1,3.422840310682743,4.701989072759964,-9999,15580.49715425,0.330078125,0.4239959716796875,-0.849334716796875,1,0.63
2020-05-20 00:21:55.820 -0400,1589948515.001328,41.35205401233273,-71.84493656799903,20.81526,0,-1,3.422840310682743,4.701989072759964,-9999,15580.54704525,0.33001708984375,0.417449951171875,-0.8359222412109375,1,0.63
2020-05-20 00:21:55.870 -0400,1589948515.001328,41.35205401233273,-71.84493656799903,20.81526,0,-1,3.422840310682743,4.701989072759964,-9999,15580.59693825,0.325775146484375,0.4289703369140625,-0.8302459716796875,1,0.63
2020-05-20 00:21:55.920 -0400,1589948515.001328,41.35205401233273,-71.84493656799903,20.81526,0,-1,3.422840310682743,4.701989072759964,-9999,15580.64683425,0.3226776123046875,0.434112548828125,-0.83441162109375,1,0.63
2020-05-20 00:21:55.970 -0400,1589948515.001328,41.35205401233273,-71.84493656799903,20.81526,0,-1,3.422840310682743,4.701989072759964,-9999,15580.69672925,0.323699951171875,0.428497314453125,-0.844818115234375,1,0.63
2020-05-20 00:21:56.019 -0400,1589948515.001328,41.35205401233273,-71.84493656799903,20.81526,0,-1,3.422840310682743,4.701989072759964,-9999,15580.74662325,0.3238372802734375,0.43475341796875,-0.8477783203125,1,0.63
2020-05-20 00:21:56.069 -0400,1589948515.001328,41.35205401233273,-71.84493656799903,20.81526,0,-1,3.422840310682743,4.701989072759964,-9999,15580.79651825,0.325775146484375,0.43377685546875,-0.8463592529296875,1,0.63
2020-05-20 00:21:56.119 -0400,1589948515.001328,41.35205401233273,-71.84493656799903,20.81526,0,-1,3.422840310682743,4.701989072759964,-9999,15580.84641725,0.3249969482421875,0.428466796875,-0.8426361083984375,1,0.63
2020-05-20 00:21:56.169 -0400,1589948515.001328,41.35205401233273,-71.84493656799903,20.81526,0,-1,3.422840310682743,4.701989072759964,-9999,15580.896313625,0.324188232421875,0.4253692626953125,-0.84796142578125,1,0.63
2020-05-20 00:21:56.219 -0400,1589948515.001328,41.35205401233273,-71.84493656799903,20.81526,0,-1,3.422840310682743,4.701989072759964,-9999,15580.946210625,0.3212738037109375,0.43438720703125,-0.84698486328125,1,0.63
2020-05-20 00:21:56.269 -0400,1589948515.001328,41.35205401233273,-71.84493656799903,20.81526,0,-1,3.422840310682743,4.701989072759964,-9999,15580.996103625,0.314697265625,0.445068359375,-0.846649169921875,1,0.63
2020-05-20 00:21:56.319 -0400,1589948515.001328,41.35205401233273,-71.84493656799903,20.81526,0,-1,3.422840310682743,4.701989072759964,-9999,15581.045999625,0.3133392333984375,0.43548583984375,-0.846160888671875,1,0.63
2020-05-20 00:21:56.369 -0400,1589948516.001348,41.35205397566718,-71.84493726804227,20.70827,0,-1,3.396135536838976,4.721313424059907,-9999,15581.095894625,0.3125457763671875,0.43145751953125,-0.85064697265625,1,0.63
2020-05-20 00:21:56.419 -0400,1589948516.001348,41.35205397566718,-71.84493726804227,20.70827,0,-1,3.396135536838976,4.721313424059907,-9999,15581.145791625,0.317108154296875,0.426513671875,-0.85528564453125,1,0.63
2020-05-20 00:21:56.468 -0400,1589948516.001348,41.35205397566718,-71.84493726804227,20.70827,0,-1,3.396135536838976,4.721313424059907,-9999,15581.195686625,0.31085205078125,0.4208526611328125,-0.856964111328125,1,0.63
2020-05-20 00:21:56.518 -0400,1589948516.001348,41.35205397566718,-71.84493726804227,20.70827,0,-1,3.396135536838976,4.721313424059907,-9999,15581.245582625,0.3099365234375,0.4291839599609375,-0.8486328125,1,0.63
2020-05-20 00:21:56.568 -0400,1589948516.001348,41.35205397566718,-71.84493726804227,20.70827,0,-1,3.396135536838976,4.721313424059907,-9999,15581.295477625,0.3055267333984375,0.416748046875,-0.852935791015625,1,0.63
2020-05-20 00:21:56.618 -0400,1589948516.001348,41.35205397566718,-71.84493726804227,20.70827,0,-1,3.396135536838976,4.721313424059907,-9999,15581.345373625,0.315460205078125,0.4142303466796875,-0.8524627685546875,1,0.63
2020-05-20 00:21:56.668 -0400,1589948516.001348,41.35205397566718,-71.84493726804227,20.70827,0,-1,3.396135536838976,4.721313424059907,-9999,15581.395267625,0.3170318603515625,0.404693603515625,-0.84735107421875,1,0.63
2020-05-20 00:21:56.718 -0400,1589948516.001348,41.35205397566718,-71.84493726804227,20.70827,0,-1,3.396135536838976,4.721313424059907,-9999,15581.445160625,0.320068359375,0.376495361328125,-0.85723876953125,1,0.63
2020-05-20 00:21:56.768 -0400,1589948516.001348,41.35205397566718,-71.84493726804227,20.70827,0,-1,3.396135536838976,4.721313424059907,-9999,15581.495051625,0.306182861328125,0.416778564453125,-0.848175048828125,1,0.63
2020-05-20 00:21:56.818 -0400,1589948516.001348,41.35205397566718,-71.84493726804227,20.70827,0,-1,3.396135536838976,4.721313424059907,-9999,15581.544943625,0.3177337646484375,0.4423828125,-0.8827056884765625,1,0.63
2020-05-20 00:21:56.868 -0400,1589948516.001348,41.35205397566718,-71.84493726804227,20.70827,0,-1,3.396135536838976,4.721313424059907,-9999,15581.594834625,0.31768798828125,0.4150848388671875,-0.8482818603515625,1,0.63
2020-05-20 00:21:56.918 -0400,1589948516.001348,41.35205397566718,-71.84493726804227,20.70827,0,-1,3.396135536838976,4.721313424059907,-9999,15581.644723625,0.3050384521484375,0.432952880859375,-0.8670501708984375,1,0.63
2020-05-20 00:21:56.967 -0400,1589948516.001348,41.35205397566718,-71.84493726804227,20.70827,0,-1,3.396135536838976,4.721313424059907,-9999,15581.694616625,0.2883758544921875,0.4210357666015625,-0.8527374267578125,1,0.63
2020-05-20 00:21:57.017 -0400,1589948516.001348,41.35205397566718,-71.84493726804227,20.70827,0,-1,3.396135536838976,4.721313424059907,-9999,15581.744509625,0.3248291015625,0.3956146240234375,-0.862335205078125,1,0.63
2020-05-20 00:21:57.067 -0400,1589948516.001348,41.35205397566718,-71.84493726804227,20.70827,0,-1,3.396135536838976,4.721313424059907,-9999,15581.794402625,0.3282470703125,0.384368896484375,-0.8689727783203125,1,0.63
2020-05-20 00:21:57.117 -0400,1589948516.001348,41.35205397566718,-71.84493726804227,20.70827,0,-1,3.396135536838976,4.721313424059907,-9999,15581.844298625,0.3097076416015625,0.4060211181640625,-0.858489990234375,1,0.63
2020-05-20 00:21:57.167 -0400,1589948516.001348,41.35205397566718,-71.84493726804227,20.70827,0,-1,3.396135536838976,4.721313424059907,-9999,15581.8941935,0.3038177490234375,0.41021728515625,-0.861297607421875,1,0.63
2020-05-20 00:21:57.217 -0400,1589948516.001348,41.35205397566718,-71.84493726804227,20.70827,0,-1,3.396135536838976,4.721313424059907,-9999,15581.9440865,0.3204345703125,0.406341552734375,-0.8516082763671875,1,0.63
2020-05-20 00:21:57.274 -0400,1589948516.001348,41.35205397566718,-71.84493726804227,20.70827,0,-1,3.396135536838976,4.721313424059907,-9999,15581.9939775,0.3308258056640625,0.404296875,-0.8579559326171875,1,0.63
2020-05-20 00:21:57.317 -0400,1589948517.00137,41.35205325920454,-71.84493765088138,20.2142,0,-1,3.390397768314921,4.725435430242809,-9999,15582.0438685,0.3117828369140625,0.410003662109375,-0.858612060546875,1,0.63
2020-05-20 00:21:57.367 -0400,1589948517.00137,41.35205325920454,-71.84493765088138,20.2142,0,-1,3.390397768314921,4.725435430242809,-9999,15582.0937635,0.3085174560546875,0.413604736328125,-0.853759765625,1,0.63
2020-05-20 00:21:57.416 -0400,1589948517.00137,41.35205325920454,-71.84493765088138,20.2142,0,-1,3.390397768314921,4.725435430242809,-9999,15582.1436595,0.31915283203125,0.3924407958984375,-0.86297607421875,1,0.63
2020-05-20 00:21:57.466 -0400,1589948517.00137,41.35205325920454,-71.84493765088138,20.2142,0,-1,3.390397768314921,4.725435430242809,-9999,15582.1935565,0.31231689453125,0.3858184814453125,-0.861907958984375,1,0.63
2020-05-20 00:21:57.516 -0400,1589948517.00137,41.35205325920454,-71.84493765088138,20.2142,0,-1,3.390397768314921,4.725435430242809,-9999,15582.2434545,0.3034515380859375,0.4027862548828125,-0.8747711181640625,1,0.63
2020-05-20 00:21:57.566 -0400,1589948517.00137,41.35205325920454,-71.84493765088138,20.2142,0,-1,3.390397768314921,4.725435430242809,-9999,15582.2933545,0.30908203125,0.405975341796875,-0.8598785400390625,1,0.63
2020-05-20 00:21:57.616 -0400,1589948517.00137,41.35205325920454,-71.84493765088138,20.2142,0,-1,3.390397768314921,4.725435430242809,-9999,15582.3432505,0.31048583984375,0.3951873779296875,-0.8652191162109375,1,0.63
2020-05-20 00:21:57.666 -0400,1589948517.00137,41.35205325920454,-71.84493765088138,20.2142,0,-1,3.390397768314921,4.725435430242809,-9999,15582.3931475,0.30633544921875,0.40380859375,-0.861968994140625,1,0.63
2020-05-20 00:21:57.716 -0400,1589948517.00137,41.35205325920454,-71.84493765088138,20.2142,0,-1,3.390397768314921,4.725435430242809,-9999,15582.4430435,0.3036956787109375,0.4052734375,-0.8615570068359375,1,0.63
2020-05-20 00:21:57.766 -0400,1589948517.00137,41.35205325920454,-71.84493765088138,20.2142,0,-1,3.390397768314921,4.725435430242809,-9999,15582.4929395,0.3064422607421875,0.3961944580078125,-0.8658294677734375,1,0.63
2020-05-20 00:21:57.816 -0400,1589948517.00137,41.35205325920454,-71.84493765088138,20.2142,0,-1,3.390397768314921,4.725435430242809,-9999,15582.5428365,0.3010101318359375,0.3834228515625,-0.8721923828125,1,0.63
2020-05-20 00:21:57.866 -0400,1589948517.00137,41.35205325920454,-71.84493765088138,20.2142,0,-1,3.390397768314921,4.725435430242809,-9999,15582.5927345,0.29931640625,0.3989410400390625,-0.87060546875,1,0.63
2020-05-20 00:21:57.915 -0400,1589948517.00137,41.35205325920454,-71.84493765088138,20.2142,0,-1,3.390397768314921,4.725435430242809,-9999,15582.6426315,0.305511474609375,0.4176483154296875,-0.87347412109375,1,0.63
2020-05-20 00:21:57.965 -0400,1589948517.00137,41.35205325920454,-71.84493765088138,20.2142,0,-1,3.390397768314921,4.725435430242809,-9999,15582.6925265,0.3058319091796875,0.4265289306640625,-0.85113525390625,1,0.63
2020-05-20 00:21:58.015 -0400,1589948517.00137,41.35205325920454,-71.84493765088138,20.2142,0,-1,3.390397768314921,4.725435430242809,-9999,15582.7424195,0.3189239501953125,0.387420654296875,-0.8653411865234375,1,0.63
2020-05-20 00:21:58.065 -0400,1589948517.00137,41.35205325920454,-71.84493765088138,20.2142,0,-1,3.390397768314921,4.725435430242809,-9999,15582.7923125,0.3253326416015625,0.388336181640625,-0.8549346923828125,1,0.63
2020-05-20 00:21:58.115 -0400,1589948517.00137,41.35205325920454,-71.84493765088138,20.2142,0,-1,3.390397768314921,4.725435430242809,-9999,15582.8422065,0.3223876953125,0.3921051025390625,-0.847259521484375,1,0.63
2020-05-20 00:21:58.165 -0400,1589948517.00137,41.35205325920454,-71.84493765088138,20.2142,0,-1,3.390397768314921,4.725435430242809,-9999,15582.892098375,0.3186798095703125,0.4033660888671875,-0.866119384765625,1,0.63
2020-05-20 00:21:58.215 -0400,1589948517.00137,41.35205325920454,-71.84493765088138,20.2142,0,-1,3.390397768314921,4.725435430242809,-9999,15582.941990375,0.324615478515625,0.41290283203125,-0.8430023193359375,1,0.63
2020-05-20 00:21:58.265 -0400,1589948518.001391,41.35205369999689,-71.84493627395754,19.92698,0,-1,3.378783080503058,4.733747133898799,-9999,15582.991884375,0.330108642578125,0.4033966064453125,-0.8678436279296875,1,0.63
2020-05-20 00:21:58.314 -0400,1589948518.001391,41.35205369999689,-71.84493627395754,19.92698,0,-1,3.378783080503058,4.733747133898799,-9999,15583.041775375,0.33123779296875,0.389862060546875,-0.8585357666015625,1,0.63
2020-05-20 00:21:58.364 -0400,1589948518.001391,41.35205369999689,-71.84493627395754,19.92698,0,-1,3.378783080503058,4.733747133898799,-9999,15583.091669375,0.3287506103515625,0.3969268798828125,-0.8592529296875,1,0.63
2020-05-20 00:21:58.414 -0400,1589948518.001391,41.35205369999689,-71.84493627395754,19.92698,0,-1,3.378783080503058,4.733747133898799,-9999,15583.141558375,0.3269805908203125,0.3917083740234375,-0.84698486328125,1,0.63
2020-05-20 00:21:58.464 -0400,1589948518.001391,41.35205369999689,-71.84493627395754,19.92698,0,-1,3.378783080503058,4.733747133898799,-9999,15583.191444375,0.33551025390625,0.3741607666015625,-0.863525390625,1,0.63
2020-05-20 00:21:58.514 -0400,1589948518.001391,41.35205369999689,-71.84493627395754,19.92698,0,-1,3.378783080503058,4.733747133898799,-9999,15583.241333375,0.33148193359375,0.393524169921875,-0.8594512939453125,1,0.63
2020-05-20 00:21:58.564 -0400,1589948518.001391,41.35205369999689,-71.84493627395754,19.92698,0,-1,3.378783080503058,4.733747133898799,-9999,15583.291223375,0.3319091796875,0.41619873046875,-0.8468017578125,1,0.63
2020-05-20 00:21:58.614 -0400,1589948518.001391,41.35205369999689,-71.84493627395754,19.92698,0,-1,3.378783080503058,4.733747133898799,-9999,15583.341112375,0.3381195068359375,0.4113006591796875,-0.862152099609375,1,0.63
2020-05-20 00:21:58.664 -0400,1589948518.001391,41.35205369999689,-71.84493627395754,19.92698,0,-1,3.378783080503058,4.733747133898799,-9999,15583.391001375,0.3298797607421875,0.3814544677734375,-0.873077392578125,1,0.63
2020-05-20 00:21:58.714 -0400,1589948518.001391,41.35205369999689,-71.84493627395754,19.92698,0,-1,3.378783080503058,4.733747133898799,-9999,15583.440891375,0.3184661865234375,0.407196044921875,-0.860260009765625,1,0.63
2020-05-20 00:21:58.764 -0400,1589948518.001391,41.35205369999689,-71.84493627395754,19.92698,0,-1,3.378783080503058,4.733747133898799,-9999,15583.490784375,0.318878173828125,0.4114990234375,-0.8617401123046875,1,0.63
2020-05-20 00:21:58.814 -0400,1589948518.001391,41.35205369999689,-71.84493627395754,19.92698,0,-1,3.378783080503058,4.733747133898799,-9999,15583.540680375,0.3240814208984375,0.3971099853515625,-0.8656463623046875,1,0.63
2020-05-20 00:21:58.863 -0400,1589948518.001391,41.35205369999689,-71.84493627395754,19.92698,0,-1,3.378783080503058,4.733747133898799,-9999,15583.590570375,0.333770751953125,0.3944549560546875,-0.8474884033203125,1,0.63
2020-05-20 00:21:58.913 -0400,1589948518.001391,41.35205369999689,-71.84493627395754,19.92698,0,-1,3.378783080503058,4.733747133898799,-9999,15583.640459375,0.3411865234375,0.3906707763671875,-0.8785247802734375,1,0.63
2020-05-20 00:21:58.963 -0400,1589948518.001391,41.35205369999689,-71.84493627395754,19.92698,0,-1,3.378783080503058,4.733747133898799,-9999,15583.690348375,0.3183746337890625,0.4061737060546875,-0.876800537109375,1,0.63
2020-05-20 00:21:59.013 -0400,1589948518.001391,41.35205369999689,-71.84493627395754,19.92698,0,-1,3.378783080503058,4.733747133898799,-9999,15583.740238375,0.32000732421875,0.4119873046875,-0.852813720703125,1,0.63
2020-05-20 00:21:59.063 -0400,1589948518.001391,41.35205369999689,-71.84493627395754,19.92698,0,-1,3.378783080503058,4.733747133898799,-9999,15583.790132375,0.323028564453125,0.4115142822265625,-0.8541717529296875,1,0.63
2020-05-20 00:21:59.113 -0400,1589948518.001391,41.35205369999689,-71.84493627395754,19.92698,0,-1,3.378783080503058,4.733747133898799,-9999,15583.840025375,0.32403564453125,0.399993896484375,-0.860687255859375,1,0.63
2020-05-20 00:21:59.163 -0400,1589948518.001391,41.35205369999689,-71.84493627395754,19.92698,0,-1,3.378783080503058,4.733747133898799,-9999,15583.88991679167,0.3227996826171875,0.3960418701171875,-0.8589935302734375,1,0.63
2020-05-20 00:21:59.213 -0400,1589948518.001391,41.35205369999689,-71.84493627395754,19.92698,0,-1,3.378783080503058,4.733747133898799,-9999,15583.93980579167,0.330169677734375,0.4088287353515625,-0.8511199951171875,1,0.63
2020-05-20 00:21:59.263 -0400,1589948519.001411,41.35205473418021,-71.84493524898576,19.54683,0,-1,3.374130607016765,4.737064458035325,-9999,15583.98969879167,0.32794189453125,0.4022369384765625,-0.8608856201171875,1,0.63
2020-05-20 00:21:59.313 -0400,1589948519.001411,41.35205473418021,-71.84493524898576,19.54683,0,-1,3.374130607016765,4.737064458035325,-9999,15584.03959179167,0.314910888671875,0.401580810546875,-0.8423919677734375,1,0.63
2020-05-20 00:21:59.362 -0400,1589948519.001411,41.35205473418021,-71.84493524898576,19.54683,0,-1,3.374130607016765,4.737064458035325,-9999,15584.08948279167,0.3232879638671875,0.4028472900390625,-0.8435821533203125,1,0.63
2020-05-20 00:21:59.412 -0400,1589948519.001411,41.35205473418021,-71.84493524898576,19.54683,0,-1,3.374130607016765,4.737064458035325,-9999,15584.13937179167,0.32745361328125,0.4207305908203125,-0.8645172119140625,1,0.63
2020-05-20 00:21:59.462 -0400,1589948519.001411,41.35205473418021,-71.84493524898576,19.54683,0,-1,3.374130607016765,4.737064458035325,-9999,15584.18926179167,0.32861328125,0.396240234375,-0.83856201171875,1,0.63
2020-05-20 00:21:59.512 -0400,1589948519.001411,41.35205473418021,-71.84493524898576,19.54683,0,-1,3.374130607016765,4.737064458035325,-9999,15584.23915479167,0.32989501953125,0.408294677734375,-0.86468505859375,1,0.63
2020-05-20 00:21:59.562 -0400,1589948519.001411,41.35205473418021,-71.84493524898576,19.54683,0,-1,3.374130607016765,4.737064458035325,-9999,15584.28904479167,0.3271636962890625,0.401763916015625,-0.85601806640625,1,0.63
2020-05-20 00:21:59.612 -0400,1589948519.001411,41.35205473418021,-71.84493524898576,19.54683,0,-1,3.374130607016765,4.737064458035325,-9999,15584.33894079167,0.3321380615234375,0.4498748779296875,-0.92645263671875,1,0.63
2020-05-20 00:21:59.662 -0400,1589948519.001411,41.35205473418021,-71.84493524898576,19.54683,0,-1,3.374130607016765,4.737064458035325,-9999,15584.38883579167,0.312835693359375,0.410400390625,-0.867279052734375,1,0.63
2020-05-20 00:21:59.712 -0400,1589948519.001411,41.35205473418021,-71.84493524898576,19.54683,0,-1,3.374130607016765,4.737064458035325,-9999,15584.43873079167,0.3222808837890625,0.389312744140625,-0.8508758544921875,1,0.63
2020-05-20 00:21:59.761 -0400,1589948519.001411,41.35205473418021,-71.84493524898576,19.54683,0,-1,3.374130607016765,4.737064458035325,-9999,15584.48862379167,0.3256988525390625,0.3945159912109375,-0.854095458984375,1,0.63
2020-05-20 00:21:59.811 -0400,1589948519.001411,41.35205473418021,-71.84493524898576,19.54683,0,-1,3.374130607016765,4.737064458035325,-9999,15584.53851679167,0.32635498046875,0.3990325927734375,-0.8730621337890625,1,0.63
2020-05-20 00:21:59.861 -0400,1589948519.001411,41.35205473418021,-71.84493524898576,19.54683,0,-1,3.374130607016765,4.737064458035325,-9999,15584.58840879167,0.3191680908203125,0.4008331298828125,-0.8503265380859375,1,0.63
2020-05-20 00:21:59.911 -0400,1589948519.001411,41.35205473418021,-71.84493524898576,19.54683,0,-1,3.374130607016765,4.737064458035325,-9999,15584.63830179167,0.311248779296875,0.39312744140625,-0.8466644287109375,1,0.63
2020-05-20 00:21:59.961 -0400,1589948519.001411,41.35205473418021,-71.84493524898576,19.54683,0,-1,3.374130607016765,4.737064458035325,-9999,15584.68819479167,0.3177032470703125,0.389617919921875,-0.869781494140625,1,0.63
2020-05-20 00:22:00.011 -0400,1589948519.001411,41.35205473418021,-71.84493524898576,19.54683,0,-1,3.374130607016765,4.737064458035325,-9999,15584.73808579167,0.307891845703125,0.400421142578125,-0.880584716796875,1,0.63
2020-05-20 00:22:00.061 -0400,1589948519.001411,41.35205473418021,-71.84493524898576,19.54683,0,-1,3.374130607016765,4.737064458035325,-9999,15584.78798279167,0.3128814697265625,0.4153289794921875,-0.854766845703125,1,0.63
2020-05-20 00:22:00.111 -0400,1589948519.001411,41.35205473418021,-71.84493524898576,19.54683,0,-1,3.374130607016765,4.737064458035325,-9999,15584.83787779167,0.3290557861328125,0.4120635986328125,-0.856292724609375,1,0.63
2020-05-20 00:22:00.161 -0400,1589948519.001411,41.35205473418021,-71.84493524898576,19.54683,0,-1,3.374130607016765,4.737064458035325,-9999,15584.887773375,0.322113037109375,0.403839111328125,-0.8475494384765625,1,0.63
2020-05-20 00:22:00.211 -0400,1589948519.001411,41.35205473418021,-71.84493524898576,19.54683,0,-1,3.374130607016765,4.737064458035325,-9999,15584.937671375,0.3156585693359375,0.4241790771484375,-0.8594970703125,1,0.63
2020-05-20 00:22:00.260 -0400,1589948520.001433,41.35205534747166,-71.84493494284675,19.15639,0,-1,3.36293555935105,4.745018593898351,-9999,15584.987568375,0.3180999755859375,0.4026947021484375,-0.8591461181640625,1,0.63
2020-05-20 00:22:00.310 -0400,1589948520.001433,41.35205534747166,-71.84493494284675,19.15639,0,-1,3.36293555935105,4.745018593898351,-9999,15585.037465375,0.31976318359375,0.4025421142578125,-0.8613128662109375,1,0.63
2020-05-20 00:22:00.360 -0400,1589948520.001433,41.35205534747166,-71.84493494284675,19.15639,0,-1,3.36293555935105,4.745018593898351,-9999,15585.087364375,0.316192626953125,0.3885345458984375,-0.8319549560546875,1,0.63
2020-05-20 00:22:00.410 -0400,1589948520.001433,41.35205534747166,-71.84493494284675,19.15639,0,-1,3.36293555935105,4.745018593898351,-9999,15585.137263375,0.320831298828125,0.4045562744140625,-0.8599853515625,1,0.63
2020-05-20 00:22:00.460 -0400,1589948520.001433,41.35205534747166,-71.84493494284675,19.15639,0,-1,3.36293555935105,4.745018593898351,-9999,15585.187158375,0.31134033203125,0.41046142578125,-0.8646087646484375,1,0.63
2020-05-20 00:22:00.510 -0400,1589948520.001433,41.35205534747166,-71.84493494284675,19.15639,0,-1,3.36293555935105,4.745018593898351,-9999,15585.237053375,0.31475830078125,0.417938232421875,-0.8567047119140625,1,0.63
2020-05-20 00:22:00.560 -0400,1589948520.001433,41.35205534747166,-71.84493494284675,19.15639,0,-1,3.36293555935105,4.745018593898351,-9999,15585.286951375,0.3190460205078125,0.4061279296875,-0.8509674072265625,1,0.63
2020-05-20 00:22:00.610 -0400,1589948520.001433,41.35205534747166,-71.84493494284675,19.15639,0,-1,3.36293555935105,4.745018593898351,-9999,15585.336843375,0.316619873046875,0.4108123779296875,-0.87078857421875,1,0.63
2020-05-20 00:22:00.660 -0400,1589948520.001433,41.35205534747166,-71.84493494284675,19.15639,0,-1,3.36293555935105,4.745018593898351,-9999,15585.386738375,0.3003997802734375,0.407318115234375,-0.8694305419921875,1,0.63
2020-05-20 00:22:00.709 -0400,1589948520.001433,41.35205534747166,-71.84493494284675,19.15639,0,-1,3.36293555935105,4.745018593898351,-9999,15585.436632375,0.3077850341796875,0.4122467041015625,-0.8565216064453125,1,0.63
2020-05-20 00:22:00.759 -0400,1589948520.001433,41.35205534747166,-71.84493494284675,19.15639,0,-1,3.36293555935105,4.745018593898351,-9999,15585.486524375,0.3104248046875,0.42510986328125,-0.85205078125,1,0.63
2020-05-20 00:22:00.809 -0400,1589948520.001433,41.35205534747166,-71.84493494284675,19.15639,0,-1,3.36293555935105,4.745018593898351,-9999,15585.536418375,0.30975341796875,0.393768310546875,-0.871978759765625,1,0.63
2020-05-20 00:22:00.859 -0400,1589948520.001433,41.35205534747166,-71.84493494284675,19.15639,0,-1,3.36293555935105,4.745018593898351,-9999,15585.586314375,0.305084228515625,0.3957061767578125,-0.8587646484375,1,0.63
2020-05-20 00:22:00.909 -0400,1589948520.001433,41.35205534747166,-71.84493494284675,19.15639,0,-1,3.36293555935105,4.745018593898351,-9999,15585.636209375,0.307159423828125,0.401153564453125,-0.8713836669921875,1,0.63
2020-05-20 00:22:00.959 -0400,1589948520.001433,41.35205534747166,-71.84493494284675,19.15639,0,-1,3.36293555935105,4.745018593898351,-9999,15585.686104375,0.3345184326171875,0.440521240234375,-0.9115447998046875,1,0.63
2020-05-20 00:22:01.009 -0400,1589948520.001433,41.35205534747166,-71.84493494284675,19.15639,0,-1,3.36293555935105,4.745018593898351,-9999,15585.735999375,0.325103759765625,0.454986572265625,-0.9445648193359375,1,0.63
2020-05-20 00:22:01.059 -0400,1589948520.001433,41.35205534747166,-71.84493494284675,19.15639,0,-1,3.36293555935105,4.745018593898351,-9999,15585.785894375,0.3509063720703125,0.3795013427734375,-0.96588134765625,1,0.63
2020-05-20 00:22:01.109 -0400,1589948520.001433,41.35205534747166,-71.84493494284675,19.15639,0,-1,3.36293555935105,4.745018593898351,-9999,15585.835789375,0.36468505859375,0.1853790283203125,-1.238800048828125,1,0.63
2020-05-20 00:22:01.159 -0400,1589948520.001433,41.35205534747166,-71.84493494284675,19.15639,0,-1,3.36293555935105,4.745018593898351,-9999,15585.88568525,0.1882171630859375,0.18511962890625,-0.9700164794921875,1,0.63
2020-05-20 00:22:01.208 -0400,1589948520.001433,41.35205534747166,-71.84493494284675,19.15639,0,-1,3.36293555935105,4.745018593898351,-9999,15585.93558325,0.2160186767578125,-0.06640625,-1.215972900390625,1,0.63
2020-05-20 00:22:01.258 -0400,1589948520.001433,41.35205534747166,-71.84493494284675,19.15639,0,-1,3.36293555935105,4.745018593898351,-9999,15585.98548025,0.096832275390625,-0.0659332275390625,-0.9663543701171875,1,0.63
2020-05-20 00:22:01.309 -0400,1589948520.001433,41.35205534747166,-71.84493494284675,19.15639,0,-1,3.36293555935105,4.745018593898351,-9999,15586.03537625,-0.0291595458984375,-0.013671875,-0.9064178466796875,1,0.63
2020-05-20 00:22:01.358 -0400,1589948521.001453,41.3520544968282,-71.84493628966678,18.88882,0,-1,3.393253959869708,4.7233848664509,-9999,15586.08526925,-0.1399383544921875,-0.020416259765625,-0.838775634765625,1,0.63
2020-05-20 00:22:01.408 -0400,1589948521.001453,41.3520544968282,-71.84493628966678,18.88882,0,-1,3.393253959869708,4.7233848664509,-9999,15586.13516225,-0.1224517822265625,-0.19757080078125,-0.7734527587890625,1,0.63
2020-05-20 00:22:01.458 -0400,1589948521.001453,41.3520544968282,-71.84493628966678,18.88882,0,-1,3.393253959869708,4.7233848664509,-9999,15586.18505825,-0.1007537841796875,-0.45782470703125,-0.54156494140625,1,0.63
2020-05-20 00:22:01.508 -0400,1589948521.001453,41.3520544968282,-71.84493628966678,18.88882,0,-1,3.393253959869708,4.7233848664509,-9999,15586.23495325,0.0459442138671875,-0.7162628173828125,-0.6660614013671875,1,0.63
2020-05-20 00:22:01.558 -0400,1589948521.001453,41.3520544968282,-71.84493628966678,18.88882,0,-1,3.393253959869708,4.7233848664509,-9999,15586.28485025,0.1456298828125,-0.691864013671875,-0.66510009765625,1,0.63
2020-05-20 00:22:01.608 -0400,1589948521.001453,41.3520544968282,-71.84493628966678,18.88882,0,-1,3.393253959869708,4.7233848664509,-9999,15586.33474625,0.1637725830078125,-0.7029266357421875,-0.8430633544921875,1,0.63
2020-05-20 00:22:01.657 -0400,1589948521.001453,41.3520544968282,-71.84493628966678,18.88882,0,-1,3.393253959869708,4.7233848664509,-9999,15586.38464125,0.1601104736328125,-0.711395263671875,-0.7255401611328125,1,0.63
2020-05-20 00:22:01.707 -0400,1589948521.001453,41.3520544968282,-71.84493628966678,18.88882,0,-1,3.393253959869708,4.7233848664509,-9999,15586.43453225,0.142333984375,-0.6458740234375,-0.7826385498046875,1,0.63
2020-05-20 00:22:01.757 -0400,1589948521.001453,41.3520544968282,-71.84493628966678,18.88882,0,-1,3.393253959869708,4.7233848664509,-9999,15586.48442325,0.158111572265625,-0.6660003662109375,-0.7473907470703125,1,0.63
2020-05-20 00:22:01.807 -0400,1589948521.001453,41.3520544968282,-71.84493628966678,18.88882,0,-1,3.393253959869708,4.7233848664509,-9999,15586.53431325,0.1942901611328125,-0.586181640625,-0.8226776123046875,1,0.63
2020-05-20 00:22:01.857 -0400,1589948521.001453,41.3520544968282,-71.84493628966678,18.88882,0,-1,3.393253959869708,4.7233848664509,-9999,15586.58420625,0.199615478515625,-0.551513671875,-0.6850738525390625,1,0.63
2020-05-20 00:22:01.907 -0400,1589948521.001453,41.3520544968282,-71.84493628966678,18.88882,0,-1,3.393253959869708,4.7233848664509,-9999,15586.63409525,0.166534423828125,-0.6712799072265625,-0.70672607421875,1,0.63
2020-05-20 00:22:01.957 -0400,1589948521.001453,41.3520544968282,-71.84493628966678,18.88882,0,-1,3.393253959869708,4.7233848664509,-9999,15586.68398725,0.116058349609375,-0.657806396484375,-0.762481689453125,1,0.63
2020-05-20 00:22:02.007 -0400,1589948521.001453,41.3520544968282,-71.84493628966678,18.88882,0,-1,3.393253959869708,4.7233848664509,-9999,15586.73387725,0.0329437255859375,-0.6085052490234375,-0.736724853515625,1,0.63
2020-05-20 00:22:02.057 -0400,1589948521.001453,41.3520544968282,-71.84493628966678,18.88882,0,-1,3.393253959869708,4.7233848664509,-9999,15586.78376625,-0.025421142578125,-0.6558990478515625,-0.7799530029296875,1,0.63
2020-05-20 00:22:02.106 -0400,1589948521.001453,41.3520544968282,-71.84493628966678,18.88882,0,-1,3.393253959869708,4.7233848664509,-9999,15586.83365425,-0.084228515625,-0.6822357177734375,-0.7348175048828125,1,0.63
2020-05-20 00:22:02.156 -0400,1589948521.001453,41.3520544968282,-71.84493628966678,18.88882,0,-1,3.393253959869708,4.7233848664509,-9999,15586.883546125,-0.09796142578125,-0.6936187744140625,-0.756591796875,1,0.63
2020-05-20 00:22:02.206 -0400,1589948521.001453,41.3520544968282,-71.84493628966678,18.88882,0,-1,3.393253959869708,4.7233848664509,-9999,15586.933440125,-0.0765838623046875,-0.6713714599609375,-0.7520904541015625,1,0.63
2020-05-20 00:22:02.256 -0400,1589948522.001474,41.35205475807391,-71.84493772958793,18.58498,0,-1,3.383548453429083,4.730342154230124,-9999,15586.983330125,-0.035308837890625,-0.6763153076171875,-0.721893310546875,1,0.63
2020-05-20 00:22:02.307 -0400,1589948522.001474,41.35205475807391,-71.84493772958793,18.58498,0,-1,3.383548453429083,4.730342154230124,-9999,15587.033218125,4.57763671875e-05,-0.644287109375,-0.7326202392578125,1,0.63
2020-05-20 00:22:02.356 -0400,1589948522.001474,41.35205475807391,-71.84493772958793,18.58498,0,-1,3.383548453429083,4.730342154230124,-9999,15587.083107125,0.040435791015625,-0.64959716796875,-0.751129150390625,1,0.63
2020-05-20 00:22:02.406 -0400,1589948522.001474,41.35205475807391,-71.84493772958793,18.58498,0,-1,3.383548453429083,4.730342154230124,-9999,15587.132996125,0.0560760498046875,-0.6737823486328125,-0.731903076171875,1,0.63
2020-05-20 00:22:02.456 -0400,1589948522.001474,41.35205475807391,-71.84493772958793,18.58498,0,-1,3.383548453429083,4.730342154230124,-9999,15587.182888125,0.06781005859375,-0.6704559326171875,-0.7650299072265625,1,0.63
2020-05-20 00:22:02.506 -0400,1589948522.001474,41.35205475807391,-71.84493772958793,18.58498,0,-1,3.383548453429083,4.730342154230124,-9999,15587.232779125,0.0718231201171875,-0.7202606201171875,-0.7759246826171875,1,0.63
2020-05-20 00:22:02.555 -0400,1589948522.001474,41.35205475807391,-71.84493772958793,18.58498,0,-1,3.383548453429083,4.730342154230124,-9999,15587.282671125,0.052886962890625,-0.583984375,-0.83740234375,1,0.63
2020-05-20 00:22:02.606 -0400,1589948522.001474,41.35205475807391,-71.84493772958793,18.58498,0,-1,3.383548453429083,4.730342154230124,-9999,15587.332562125,0.0573883056640625,-0.7445068359375,-0.7274017333984375,1,0.63
2020-05-20 00:22:02.656 -0400,1589948522.001474,41.35205475807391,-71.84493772958793,18.58498,0,-1,3.383548453429083,4.730342154230124,-9999,15587.382450125,0.0661468505859375,-0.6320343017578125,-0.778564453125,1,0.63
2020-05-20 00:22:02.705 -0400,1589948522.001474,41.35205475807391,-71.84493772958793,18.58498,0,-1,3.383548453429083,4.730342154230124,-9999,15587.432339125,0.0326995849609375,-0.6051177978515625,-0.8251190185546875,1,0.63
2020-05-20 00:22:02.755 -0400,1589948522.001474,41.35205475807391,-71.84493772958793,18.58498,0,-1,3.383548453429083,4.730342154230124,-9999,15587.482231125,0.0090484619140625,-0.6089935302734375,-0.739227294921875,1,0.63
2020-05-20 00:22:02.805 -0400,1589948522.001474,41.35205475807391,-71.84493772958793,18.58498,0,-1,3.383548453429083,4.730342154230124,-9999,15587.532120125,0.0059814453125,-0.601837158203125,-0.756011962890625,1,0.63
2020-05-20 00:22:02.855 -0400,1589948522.001474,41.35205475807391,-71.84493772958793,18.58498,0,-1,3.383548453429083,4.730342154230124,-9999,15587.582010125,0.00396728515625,-0.5596771240234375,-0.8418426513671875,1,0.63
2020-05-20 00:22:02.905 -0400,1589948522.001474,41.35205475807391,-71.84493772958793,18.58498,0,-1,3.383548453429083,4.730342154230124,-9999,15587.631902125,0.007110595703125,-0.577423095703125,-0.83514404296875,1,0.63
2020-05-20 00:22:02.955 -0400,1589948522.001474,41.35205475807391,-71.84493772958793,18.58498,0,-1,3.383548453429083,4.730342154230124,-9999,15587.681793125,-0.02069091796875,-0.5282745361328125,-0.826934814453125,1,0.63
2020-05-20 00:22:03.005 -0400,1589948522.001474,41.35205475807391,-71.84493772958793,18.58498,0,-1,3.383548453429083,4.730342154230124,-9999,15587.731684125,-0.00628662109375,-0.5341339111328125,-0.8659210205078125,1,0.63
2020-05-20 00:22:03.055 -0400,1589948522.001474,41.35205475807391,-71.84493772958793,18.58498,0,-1,3.383548453429083,4.730342154230124,-9999,15587.781575125,-0.0129241943359375,-0.514251708984375,-0.84912109375,1,0.63
2020-05-20 00:22:03.105 -0400,1589948522.001474,41.35205475807391,-71.84493772958793,18.58498,0,-1,3.383548453429083,4.730342154230124,-9999,15587.831466125,-0.0044097900390625,-0.5225372314453125,-0.8669891357421875,1,0.63
2020-05-20 00:22:03.154 -0400,1589948522.001474,41.35205475807391,-71.84493772958793,18.58498,0,-1,3.383548453429083,4.730342154230124,-9999,15587.88135675,-0.0052490234375,-0.50970458984375,-0.8386077880859375,1,0.63
2020-05-20 00:22:03.204 -0400,1589948522.001474,41.35205475807391,-71.84493772958793,18.58498,0,-1,3.383548453429083,4.730342154230124,-9999,15587.93124775,0.012847900390625,-0.584228515625,-0.8296661376953125,1,0.63
2020-05-20 00:22:03.254 -0400,1589948523.001494,41.35205515623927,-71.84493822375076,18.15069,0,-1,3.371642779782152,4.73883551079078,-9999,15587.98113575,0.00537109375,-0.406951904296875,-0.862030029296875,1,0.63
2020-05-20 00:22:03.304 -0400,1589948523.001494,41.35205515623927,-71.84493822375076,18.15069,0,-1,3.371642779782152,4.73883551079078,-9999,15588.03102375,-0.0001678466796875,-0.5267333984375,-0.851806640625,1,0.63
2020-05-20 00:22:03.354 -0400,1589948523.001494,41.35205515623927,-71.84493822375076,18.15069,0,-1,3.371642779782152,4.73883551079078,-9999,15588.08091375,-0.0007476806640625,-0.4638519287109375,-0.867431640625,1,0.63
2020-05-20 00:22:03.404 -0400,1589948523.001494,41.35205515623927,-71.84493822375076,18.15069,0,-1,3.371642779782152,4.73883551079078,-9999,15588.13079875,0.003082275390625,-0.4980926513671875,-0.861907958984375,1,0.63
2020-05-20 00:22:03.453 -0400,1589948523.001494,41.35205515623927,-71.84493822375076,18.15069,0,-1,3.371642779782152,4.73883551079078,-9999,15588.18068675,0.0011749267578125,-0.492279052734375,-0.8797760009765625,1,0.63
2020-05-20 00:22:03.503 -0400,1589948523.001494,41.35205515623927,-71.84493822375076,18.15069,0,-1,3.371642779782152,4.73883551079078,-9999,15588.23057675,0.00665283203125,-0.4934844970703125,-0.878082275390625,1,0.63
2020-05-20 00:22:03.553 -0400,1589948523.001494,41.35205515623927,-71.84493822375076,18.15069,0,-1,3.371642779782152,4.73883551079078,-9999,15588.28046575,0.009521484375,-0.4840850830078125,-0.8798065185546875,1,0.63
2020-05-20 00:22:03.603 -0400,1589948523.001494,41.35205515623927,-71.84493822375076,18.15069,0,-1,3.371642779782152,4.73883551079078,-9999,15588.33035775,0.005950927734375,-0.460174560546875,-0.8715362548828125,1,0.63
2020-05-20 00:22:03.653 -0400,1589948523.001494,41.35205515623927,-71.84493822375076,18.15069,0,-1,3.371642779782152,4.73883551079078,-9999,15588.38024875,0.0083160400390625,-0.4660797119140625,-0.88043212890625,1,0.63
2020-05-20 00:22:03.703 -0400,1589948523.001494,41.35205515623927,-71.84493822375076,18.15069,0,-1,3.371642779782152,4.73883551079078,-9999,15588.43014175,0.0089111328125,-0.472564697265625,-0.8837127685546875,1,0.63
2020-05-20 00:22:03.753 -0400,1589948523.001494,41.35205515623927,-71.84493822375076,18.15069,0,-1,3.371642779782152,4.73883551079078,-9999,15588.48003575,0.014129638671875,-0.4722900390625,-0.8826751708984375,1,0.63
2020-05-20 00:22:03.803 -0400,1589948523.001494,41.35205515623927,-71.84493822375076,18.15069,0,-1,3.371642779782152,4.73883551079078,-9999,15588.52992775,0.0149078369140625,-0.4753265380859375,-0.876373291015625,1,0.63
2020-05-20 00:22:03.853 -0400,1589948523.001494,41.35205515623927,-71.84493822375076,18.15069,0,-1,3.371642779782152,4.73883551079078,-9999,15588.57982275,0.0206756591796875,-0.4619293212890625,-0.8877410888671875,1,0.63
2020-05-20 00:22:03.903 -0400,1589948523.001494,41.35205515623927,-71.84493822375076,18.15069,0,-1,3.371642779782152,4.73883551079078,-9999,15588.62971675,0.0164642333984375,-0.459320068359375,-0.8927459716796875,1,0.63
2020-05-20 00:22:03.953 -0400,1589948523.001494,41.35205515623927,-71.84493822375076,18.15069,0,-1,3.371642779782152,4.73883551079078,-9999,15588.67961075,0.0168304443359375,-0.4581298828125,-0.888580322265625,1,0.63
2020-05-20 00:22:04.002 -0400,1589948523.001494,41.35205515623927,-71.84493822375076,18.15069,0,-1,3.371642779782152,4.73883551079078,-9999,15588.72950175,0.009765625,-0.44500732421875,-0.8945465087890625,1,0.63
2020-05-20 00:22:04.053 -0400,1589948523.001494,41.35205515623927,-71.84493822375076,18.15069,0,-1,3.371642779782152,4.73883551079078,-9999,15588.77939575,0.004852294921875,-0.4401702880859375,-0.9111175537109375,1,0.63
2020-05-20 00:22:04.102 -0400,1589948523.001494,41.35205515623927,-71.84493822375076,18.15069,0,-1,3.371642779782152,4.73883551079078,-9999,15588.82928775,-0.000946044921875,-0.437957763671875,-0.8975067138671875,1,0.63
2020-05-20 00:22:04.152 -0400,1589948523.001494,41.35205515623927,-71.84493822375076,18.15069,0,-1,3.371642779782152,4.73883551079078,-9999,15588.87917929167,-0.0111541748046875,-0.45404052734375,-0.8711395263671875,1,0.63
2020-05-20 00:22:04.202 -0400,1589948523.001494,41.35205515623927,-71.84493822375076,18.15069,0,-1,3.371642779782152,4.73883551079078,-9999,15588.92906929167,-0.0090484619140625,-0.4171600341796875,-0.878875732421875,1,0.63
2020-05-20 00:22:04.252 -0400,1589948523.001494,41.35205515623927,-71.84493822375076,18.15069,0,-1,3.371642779782152,4.73883551079078,-9999,15588.97895829167,0.0025634765625,-0.41705322265625,-0.9038238525390625,1,0.63
2020-05-20 00:22:04.302 -0400,1589948523.001494,41.35205515623927,-71.84493822375076,18.15069,0,-1,3.371642779782152,4.73883551079078,-9999,15589.02884829167,0.0010986328125,-0.4258575439453125,-0.914215087890625,1,0.63
2020-05-20 00:22:04.352 -0400,1589948524.001515,41.35205760292206,-71.844940942935,18.96433,0,-1,3.403264057163151,4.716177561331873,-9999,15589.07874229167,0.0015106201171875,-0.42352294921875,-0.922027587890625,1,0.63
2020-05-20 00:22:04.402 -0400,1589948524.001515,41.35205760292206,-71.844940942935,18.96433,0,-1,3.403264057163151,4.716177561331873,-9999,15589.12863129167,-0.0006561279296875,-0.4257965087890625,-0.9169158935546875,1,0.63
2020-05-20 00:22:04.451 -0400,1589948524.001515,41.35205760292206,-71.844940942935,18.96433,0,-1,3.403264057163151,4.716177561331873,-9999,15589.17852129167,-0.0453643798828125,-0.422149658203125,-0.9003448486328125,1,0.63
2020-05-20 00:22:04.501 -0400,1589948524.001515,41.35205760292206,-71.844940942935,18.96433,0,-1,3.403264057163151,4.716177561331873,-9999,15589.22841129167,-0.1522979736328125,-0.4496917724609375,-0.9771270751953125,1,0.63
2020-05-20 00:22:04.551 -0400,1589948524.001515,41.35205760292206,-71.844940942935,18.96433,0,-1,3.403264057163151,4.716177561331873,-9999,15589.27830329167,-0.2343597412109375,-0.4273223876953125,-0.975494384765625,1,0.63
2020-05-20 00:22:04.601 -0400,1589948524.001515,41.35205760292206,-71.844940942935,18.96433,0,-1,3.403264057163151,4.716177561331873,-9999,15589.32819529167,-0.1815643310546875,-0.383575439453125,-0.917694091796875,1,0.63
2020-05-20 00:22:04.651 -0400,1589948524.001515,41.35205760292206,-71.844940942935,18.96433,0,-1,3.403264057163151,4.716177561331873,-9999,15589.37808529167,-0.073822021484375,-0.3804779052734375,-0.9066162109375,1,0.63
2020-05-20 00:22:04.701 -0400,1589948524.001515,41.35205760292206,-71.844940942935,18.96433,0,-1,3.403264057163151,4.716177561331873,-9999,15589.42797429167,-0.0364837646484375,-0.3825531005859375,-0.8407440185546875,1,0.63
2020-05-20 00:22:04.751 -0400,1589948524.001515,41.35205760292206,-71.844940942935,18.96433,0,-1,3.403264057163151,4.716177561331873,-9999,15589.47786529167,0.03070068359375,-0.4264068603515625,-0.901153564453125,1,0.63
2020-05-20 00:22:04.801 -0400,1589948524.001515,41.35205760292206,-71.844940942935,18.96433,0,-1,3.403264057163151,4.716177561331873,-9999,15589.52775529167,0.059814453125,-0.372222900390625,-0.9822235107421875,1,0.63
