loggingTime(txt),locationTimestamp_since1970(s),locationLatitude(WGS84),locationLongitude(WGS84),locationAltitude(m),locationSpeed(m/s),locationCourse(°),locationVerticalAccuracy(m),locationHorizontalAccuracy(m),locationFloor(Z),accelerometerTimestamp_sinceReboot(s),accelerometerAccelerationX(G),accelerometerAccelerationY(G),accelerometerAccelerationZ(G),batteryState,batteryLevel
2020-05-19 09:55:29.930 -0400,1589896529.000303,41.35199701355344,-71.84493944447199,17.58184,0,-1,3.279941418268355,4.802761843514272,-9999,63488.00895775,-0.51751708984375,-0.7173614501953125,-0.44732666015625,1,0.84
2020-05-19 09:55:29.973 -0400,1589896529.000303,41.35199701355344,-71.84493944447199,17.58184,0,-1,3.279941418268355,4.802761843514272,-9999,63488.05885075001,-0.5258941650390625,-0.7148284912109375,-0.43572998046875,1,0.84
2020-05-19 09:55:30.023 -0400,1589896529.000303,41.35199701355344,-71.84493944447199,17.58184,0,-1,3.279941418268355,4.802761843514272,-9999,63488.10874275,-0.5160980224609375,-0.7516937255859375,-0.431396484375,1,0.84
2020-05-19 09:55:30.073 -0400,1589896529.000303,41.35199701355344,-71.84493944447199,17.58184,0,-1,3.279941418268355,4.802761843514272,-9999,63488.15863375,-0.5105438232421875,-0.726959228515625,-0.4391326904296875,1,0.84
2020-05-19 09:55:30.123 -0400,1589896529.000303,41.35199701355344,-71.84493944447199,17.58184,0,-1,3.279941418268355,4.802761843514272,-9999,63488.20852075001,-0.50677490234375,-0.7412872314453125,-0.4248199462890625,1,0.84
2020-05-19 09:55:30.173 -0400,1589896529.000303,41.35199701355344,-71.84493944447199,17.58184,0,-1,3.279941418268355,4.802761843514272,-9999,63488.2584065,-0.5614013671875,-0.7097625732421875,-0.4131011962890625,1,0.84
2020-05-19 09:55:30.223 -0400,1589896530.000305,41.35199701355344,-71.84493944447199,17.58184,0,-1,3.24197548804642,4.828470976167819,-9999,63488.30829550001,-0.5395660400390625,-0.779876708984375,-0.4031219482421875,1,0.84
2020-05-19 09:55:30.273 -0400,1589896530.000305,41.35199701355344,-71.84493944447199,17.58184,0,-1,3.24197548804642,4.828470976167819,-9999,63488.3581865,-0.5110931396484375,-0.7250213623046875,-0.410858154296875,1,0.84
2020-05-19 09:55:30.323 -0400,1589896530.000305,41.35199701355344,-71.84493944447199,17.58184,0,-1,3.24197548804642,4.828470976167819,-9999,63488.4080785,-0.529510498046875,-0.807403564453125,-0.3613739013671875,1,0.84
2020-05-19 09:55:30.372 -0400,1589896530.000305,41.35199701355344,-71.84493944447199,17.58184,0,-1,3.24197548804642,4.828470976167819,-9999,63488.45797050001,-0.592315673828125,-0.605255126953125,-0.519561767578125,1,0.84
2020-05-19 09:55:30.422 -0400,1589896530.000305,41.35199701355344,-71.84493944447199,17.58184,0,-1,3.24197548804642,4.828470976167819,-9999,63488.5078615,-0.595062255859375,-0.658935546875,-0.549224853515625,1,0.84
2020-05-19 09:55:30.479 -0400,1589896530.000305,41.35199701355344,-71.84493944447199,17.58184,0,-1,3.24197548804642,4.828470976167819,-9999,63488.5577525,-0.5586395263671875,-0.3727569580078125,-0.5840911865234375,1,0.84
2020-05-19 09:55:30.522 -0400,1589896530.000305,41.35199701355344,-71.84493944447199,17.58184,0,-1,3.24197548804642,4.828470976167819,-9999,63488.60764450001,-0.6192169189453125,-0.1345977783203125,-0.57000732421875,1,0.84
2020-05-19 09:55:30.572 -0400,1589896530.000305,41.35199701355344,-71.84493944447199,17.58184,0,-1,3.24197548804642,4.828470976167819,-9999,63488.6575375,-0.65673828125,-0.0237274169921875,-0.741363525390625,1,0.84
2020-05-19 09:55:30.622 -0400,1589896530.000305,41.35199701355344,-71.84493944447199,17.58184,0,-1,3.24197548804642,4.828470976167819,-9999,63488.70743050001,-0.6457366943359375,0.03839111328125,-0.7710113525390625,1,0.84
2020-05-19 09:55:30.672 -0400,1589896530.000305,41.35199701355344,-71.84493944447199,17.58184,0,-1,3.24197548804642,4.828470976167819,-9999,63488.7573235,-0.5189056396484375,0.089752197265625,-0.8724365234375,1,0.84
2020-05-19 09:55:30.722 -0400,1589896530.000305,41.35199701355344,-71.84493944447199,17.58184,0,-1,3.24197548804642,4.828470976167819,-9999,63488.8072155,-0.4833984375,0.0198211669921875,-0.9961090087890625,1,0.84
2020-05-19 09:55:30.772 -0400,1589896530.000305,41.35199701355344,-71.84493944447199,17.58184,0,-1,3.24197548804642,4.828470976167819,-9999,63488.85710550001,-0.42706298828125,-0.087005615234375,-1.04620361328125,1,0.84
2020-05-19 09:55:30.821 -0400,1589896530.000305,41.35199701355344,-71.84493944447199,17.58184,0,-1,3.24197548804642,4.828470976167819,-9999,63488.9069975,-0.41851806640625,-0.1343994140625,-0.9644927978515625,1,0.84
2020-05-19 09:55:30.872 -0400,1589896530.000305,41.35199701355344,-71.84493944447199,17.58184,0,-1,3.24197548804642,4.828470976167819,-9999,63488.9568895,-0.464935302734375,-0.1480255126953125,-0.888824462890625,1,0.84
2020-05-19 09:55:30.921 -0400,1589896530.000305,41.35199701355344,-71.84493944447199,17.58184,0,-1,3.24197548804642,4.828470976167819,-9999,63489.0067835,-0.507354736328125,-0.016998291015625,-0.821990966796875,1,0.84
2020-05-19 09:55:30.982 -0400,1589896530.000305,41.35199701355344,-71.84493944447199,17.58184,0,-1,3.24197548804642,4.828470976167819,-9999,63489.0566735,-0.4998016357421875,0.012115478515625,-0.8480377197265625,1,0.84
2020-05-19 09:55:31.021 -0400,1589896530.000305,41.35199701355344,-71.84493944447199,17.58184,0,-1,3.24197548804642,4.828470976167819,-9999,63489.10656550001,-0.4652862548828125,-0.0018768310546875,-0.8945159912109375,1,0.84
2020-05-19 09:55:31.071 -0400,1589896530.000305,41.35199701355344,-71.84493944447199,17.58184,0,-1,3.24197548804642,4.828470976167819,-9999,63489.1564595,-0.4723968505859375,-0.0563812255859375,-0.8866424560546875,1,0.84
2020-05-19 09:55:31.121 -0400,1589896530.000305,41.35199701355344,-71.84493944447199,17.58184,0,-1,3.24197548804642,4.828470976167819,-9999,63489.20635450001,-0.4899444580078125,0.002227783203125,-0.8757476806640625,1,0.84
2020-05-19 09:55:31.171 -0400,1589896530.000305,41.35199701355344,-71.84493944447199,17.58184,0,-1,3.24197548804642,4.828470976167819,-9999,63489.256246625,-0.4793701171875,0.0035247802734375,-0.8939056396484375,1,0.84
2020-05-19 09:55:31.221 -0400,1589896530.000305,41.35199701355344,-71.84493944447199,17.58184,0,-1,3.24197548804642,4.828470976167819,-9999,63489.306136625,-0.488128662109375,-0.0105133056640625,-0.878662109375,1,0.84
2020-05-19 09:55:31.271 -0400,1589896530.000305,41.35199701355344,-71.84493944447199,17.58184,0,-1,3.24197548804642,4.828470976167819,-9999,63489.35602762501,-0.489166259765625,0.0139923095703125,-0.867889404296875,1,0.84
2020-05-19 09:55:31.321 -0400,1589896531.000312,41.35199701355344,-71.84493944447199,17.58184,0,-1,3.318926358279465,4.775904611809855,-9999,63489.405920625,-0.4825592041015625,-0.0157928466796875,-0.8712158203125,1,0.84
2020-05-19 09:55:31.370 -0400,1589896531.000312,41.35199701355344,-71.84493944447199,17.58184,0,-1,3.318926358279465,4.775904611809855,-9999,63489.455810625,-0.4796295166015625,0.006561279296875,-0.881591796875,1,0.84
2020-05-19 09:55:31.420 -0400,1589896531.000312,41.35199701355344,-71.84493944447199,17.58184,0,-1,3.318926358279465,4.775904611809855,-9999,63489.505705625,-0.482391357421875,0.006195068359375,-0.8814239501953125,1,0.84
2020-05-19 09:55:31.483 -0400,1589896531.000312,41.35199701355344,-71.84493944447199,17.58184,0,-1,3.318926358279465,4.775904611809855,-9999,63489.55560262501,-0.4896087646484375,0.0084381103515625,-0.8736114501953125,1,0.84
2020-05-19 09:55:31.520 -0400,1589896531.000312,41.35199701355344,-71.84493944447199,17.58184,0,-1,3.318926358279465,4.775904611809855,-9999,63489.605499625,-0.484375,-0.0156707763671875,-0.8733367919921875,1,0.84
2020-05-19 09:55:31.570 -0400,1589896531.000312,41.35199701355344,-71.84493944447199,17.58184,0,-1,3.318926358279465,4.775904611809855,-9999,63489.65539362501,-0.479217529296875,0.0259857177734375,-0.8605499267578125,1,0.84
2020-05-19 09:55:31.620 -0400,1589896531.000312,41.35199701355344,-71.84493944447199,17.58184,0,-1,3.318926358279465,4.775904611809855,-9999,63489.705287625,-0.48040771484375,-0.0547637939453125,-0.90380859375,1,0.84
2020-05-19 09:55:31.670 -0400,1589896531.000312,41.35199701355344,-71.84493944447199,17.58184,0,-1,3.318926358279465,4.775904611809855,-9999,63489.75518162501,-0.467742919921875,-0.076416015625,-0.88458251953125,1,0.84
2020-05-19 09:55:31.720 -0400,1589896531.000312,41.35199701355344,-71.84493944447199,17.58184,0,-1,3.318926358279465,4.775904611809855,-9999,63489.805077625,-0.4761810302734375,-0.0635223388671875,-0.8717041015625,1,0.84
2020-05-19 09:55:31.769 -0400,1589896531.000312,41.35199701355344,-71.84493944447199,17.58184,0,-1,3.318926358279465,4.775904611809855,-9999,63489.85497162501,-0.49322509765625,-0.049041748046875,-0.847198486328125,1,0.84
2020-05-19 09:55:31.820 -0400,1589896531.000312,41.35199701355344,-71.84493944447199,17.58184,0,-1,3.318926358279465,4.775904611809855,-9999,63489.904866625,-0.4716033935546875,-0.0500640869140625,-0.9074859619140625,1,0.84
2020-05-19 09:55:31.869 -0400,1589896531.000312,41.35199701355344,-71.84493944447199,17.58184,0,-1,3.318926358279465,4.775904611809855,-9999,63489.95476062501,-0.48077392578125,-0.0285491943359375,-0.874847412109375,1,0.84
2020-05-19 09:55:31.919 -0400,1589896531.000312,41.35199701355344,-71.84493944447199,17.58184,0,-1,3.318926358279465,4.775904611809855,-9999,63490.004654625,-0.4699249267578125,-0.0764617919921875,-0.8767547607421875,1,0.84
2020-05-19 09:55:31.982 -0400,1589896531.000312,41.35199701355344,-71.84493944447199,17.58184,0,-1,3.318926358279465,4.775904611809855,-9999,63490.054548625,-0.465118408203125,-0.049285888671875,-0.8660736083984375,1,0.84
2020-05-19 09:55:32.019 -0400,1589896531.000312,41.35199701355344,-71.84493944447199,17.58184,0,-1,3.318926358279465,4.775904611809855,-9999,63490.104445625,-0.481475830078125,-0.041107177734375,-0.892059326171875,1,0.84
2020-05-19 09:55:32.069 -0400,1589896531.000312,41.35199701355344,-71.84493944447199,17.58184,0,-1,3.318926358279465,4.775904611809855,-9999,63490.15434162501,-0.4728546142578125,-0.0235595703125,-0.8762359619140625,1,0.84
2020-05-19 09:55:32.119 -0400,1589896531.000312,41.35199701355344,-71.84493944447199,17.58184,0,-1,3.318926358279465,4.775904611809855,-9999,63490.204237625,-0.482208251953125,-0.0338287353515625,-0.8749542236328125,1,0.84
2020-05-19 09:55:32.169 -0400,1589896531.000312,41.35199701355344,-71.84493944447199,17.58184,0,-1,3.318926358279465,4.775904611809855,-9999,63490.25413162501,-0.47491455078125,-0.0808868408203125,-0.891326904296875,1,0.84
2020-05-19 09:55:32.219 -0400,1589896531.000312,41.35199701355344,-71.84493944447199,17.58184,0,-1,3.318926358279465,4.775904611809855,-9999,63490.304025625,-0.47320556640625,-0.037139892578125,-0.8815155029296875,1,0.84
2020-05-19 09:55:32.269 -0400,1589896531.000312,41.35199701355344,-71.84493944447199,17.58184,0,-1,3.318926358279465,4.775904611809855,-9999,63490.35392062501,-0.474456787109375,-0.0334014892578125,-0.8800201416015625,1,0.84
2020-05-19 09:55:32.318 -0400,1589896532.000311,41.3519928489595,-71.84494469020254,17.36041,0,93.73366912288077,3.360320746866132,4.746870707210159,-9999,63490.403815625,-0.4784393310546875,-0.044830322265625,-0.8781585693359375,1,0.84
2020-05-19 09:55:32.368 -0400,1589896532.000311,41.3519928489595,-71.84494469020254,17.36041,0,93.73366912288077,3.360320746866132,4.746870707210159,-9999,63490.45370862501,-0.4711761474609375,-0.05126953125,-0.886016845703125,1,0.84
2020-05-19 09:55:32.418 -0400,1589896532.000311,41.3519928489595,-71.84494469020254,17.36041,0,93.73366912288077,3.360320746866132,4.746870707210159,-9999,63490.503604625,-0.47442626953125,-0.040771484375,-0.89056396484375,1,0.84
2020-05-19 09:55:32.478 -0400,1589896532.000311,41.3519928489595,-71.84494469020254,17.36041,0,93.73366912288077,3.360320746866132,4.746870707210159,-9999,63490.55350162501,-0.4848480224609375,-0.04705810546875,-0.8702392578125,1,0.84
2020-05-19 09:55:32.518 -0400,1589896532.000311,41.3519928489595,-71.84494469020254,17.36041,0,93.73366912288077,3.360320746866132,4.746870707210159,-9999,63490.603397625,-0.479888916015625,-0.0512847900390625,-0.875762939453125,1,0.84
2020-05-19 09:55:32.568 -0400,1589896532.000311,41.3519928489595,-71.84494469020254,17.36041,0,93.73366912288077,3.360320746866132,4.746870707210159,-9999,63490.653294625,-0.4701080322265625,-0.05914306640625,-0.88214111328125,1,0.84
2020-05-19 09:55:32.618 -0400,1589896532.000311,41.3519928489595,-71.84494469020254,17.36041,0,93.73366912288077,3.360320746866132,4.746870707210159,-9999,63490.703189625,-0.4705047607421875,-0.050384521484375,-0.8774261474609375,1,0.84
2020-05-19 09:55:32.667 -0400,1589896532.000311,41.3519928489595,-71.84494469020254,17.36041,0,93.73366912288077,3.360320746866132,4.746870707210159,-9999,63490.753084625,-0.47418212890625,-0.04754638671875,-0.86370849609375,1,0.84
2020-05-19 09:55:32.718 -0400,1589896532.000311,41.3519928489595,-71.84494469020254,17.36041,0,93.73366912288077,3.360320746866132,4.746870707210159,-9999,63490.802976625,-0.468505859375,-0.0574188232421875,-0.896942138671875,1,0.84
2020-05-19 09:55:32.767 -0400,1589896532.000311,41.3519928489595,-71.84494469020254,17.36041,0,93.73366912288077,3.360320746866132,4.746870707210159,-9999,63490.85286862501,-0.472686767578125,-0.0969696044921875,-0.8758392333984375,1,0.84
2020-05-19 09:55:32.817 -0400,1589896532.000311,41.3519928489595,-71.84494469020254,17.36041,0,93.73366912288077,3.360320746866132,4.746870707210159,-9999,63490.902762625,-0.4701385498046875,-0.10150146484375,-0.8860015869140625,1,0.84
2020-05-19 09:55:32.867 -0400,1589896532.000311,41.3519928489595,-71.84494469020254,17.36041,0,93.73366912288077,3.360320746866132,4.746870707210159,-9999,63490.95265562501,-0.4656982421875,-0.1293487548828125,-0.8737640380859375,1,0.84
2020-05-19 09:55:32.917 -0400,1589896532.000311,41.3519928489595,-71.84494469020254,17.36041,0,93.73366912288077,3.360320746866132,4.746870707210159,-9999,63491.002550625,-0.46240234375,-0.09112548828125,-0.8891143798828125,1,0.84
2020-05-19 09:55:32.971 -0400,1589896532.000311,41.3519928489595,-71.84494469020254,17.36041,0,93.73366912288077,3.360320746866132,4.746870707210159,-9999,63491.052442625,-0.4719390869140625,-0.0813446044921875,-0.8798828125,1,0.84
2020-05-19 09:55:33.017 -0400,1589896532.000311,41.3519928489595,-71.84494469020254,17.36041,0,93.73366912288077,3.360320746866132,4.746870707210159,-9999,63491.102334625,-0.4685211181640625,-0.0699310302734375,-0.885345458984375,1,0.84
2020-05-19 09:55:33.067 -0400,1589896532.000311,41.3519928489595,-71.84494469020254,17.36041,0,93.73366912288077,3.360320746866132,4.746870707210159,-9999,63491.152227625,-0.4652099609375,-0.0765228271484375,-0.8811492919921875,1,0.84
2020-05-19 09:55:33.117 -0400,1589896532.000311,41.3519928489595,-71.84494469020254,17.36041,0,93.73366912288077,3.360320746866132,4.746870707210159,-9999,63491.20212262501,-0.4637451171875,-0.0735321044921875,-0.87994384765625,1,0.84
2020-05-19 09:55:33.167 -0400,1589896532.000311,41.3519928489595,-71.84494469020254,17.36041,0,93.73366912288077,3.360320746866132,4.746870707210159,-9999,63491.252016375,-0.4749908447265625,-0.0615692138671875,-0.8745574951171875,1,0.84
2020-05-19 09:55:33.216 -0400,1589896532.000311,41.3519928489595,-71.84494469020254,17.36041,0,93.73366912288077,3.360320746866132,4.746870707210159,-9999,63491.301910375,-0.474395751953125,-0.06964111328125,-0.8774261474609375,1,0.84
2020-05-19 09:55:33.266 -0400,1589896533.000315,41.35198835070858,-71.8449491353612,16.6154,0,93.73366711883703,3.357896188114077,4.748586128800635,-9999,63491.351802375,-0.4668121337890625,-0.0823516845703125,-0.8819580078125,1,0.84
2020-05-19 09:55:33.316 -0400,1589896533.000315,41.35198835070858,-71.8449491353612,16.6154,0,93.73366711883703,3.357896188114077,4.748586128800635,-9999,63491.401694375,-0.46942138671875,-0.038330078125,-0.8728179931640625,1,0.84
2020-05-19 09:55:33.366 -0400,1589896533.000315,41.35198835070858,-71.8449491353612,16.6154,0,93.73366711883703,3.357896188114077,4.748586128800635,-9999,63491.45158637501,-0.472686767578125,-0.090118408203125,-0.8933563232421875,1,0.84
2020-05-19 09:55:33.416 -0400,1589896533.000315,41.35198835070858,-71.8449491353612,16.6154,0,93.73366711883703,3.357896188114077,4.748586128800635,-9999,63491.501482375,-0.4700775146484375,-0.0495758056640625,-0.8780670166015625,1,0.84
2020-05-19 09:55:33.468 -0400,1589896533.000315,41.35198835070858,-71.8449491353612,16.6154,0,93.73366711883703,3.357896188114077,4.748586128800635,-9999,63491.55137637501,-0.4676361083984375,-0.068023681640625,-0.8859710693359375,1,0.84
2020-05-19 09:55:33.516 -0400,1589896533.000315,41.35198835070858,-71.8449491353612,16.6154,0,93.73366711883703,3.357896188114077,4.748586128800635,-9999,63491.601268375,-0.46826171875,-0.0698394775390625,-0.8800506591796875,1,0.84
2020-05-19 09:55:33.566 -0400,1589896533.000315,41.35198835070858,-71.8449491353612,16.6154,0,93.73366711883703,3.357896188114077,4.748586128800635,-9999,63491.651161375,-0.464111328125,-0.075653076171875,-0.9158172607421875,1,0.84
2020-05-19 09:55:33.616 -0400,1589896533.000315,41.35198835070858,-71.8449491353612,16.6154,0,93.73366711883703,3.357896188114077,4.748586128800635,-9999,63491.701056375,-0.43646240234375,0.075927734375,-0.948486328125,1,0.84
2020-05-19 09:55:33.665 -0400,1589896533.000315,41.35198835070858,-71.8449491353612,16.6154,0,93.73366711883703,3.357896188114077,4.748586128800635,-9999,63491.750950375,-0.5293121337890625,-0.00775146484375,-1.009674072265625,1,0.84
2020-05-19 09:55:33.715 -0400,1589896533.000315,41.35198835070858,-71.8449491353612,16.6154,0,93.73366711883703,3.357896188114077,4.748586128800635,-9999,63491.80084337501,-0.51702880859375,0.0940399169921875,-0.9603271484375,1,0.84
2020-05-19 09:55:33.765 -0400,1589896533.000315,41.35198835070858,-71.8449491353612,16.6154,0,93.73366711883703,3.357896188114077,4.748586128800635,-9999,63491.850739375,-0.5643310546875,0.0942230224609375,-0.9604644775390625,1,0.84
2020-05-19 09:55:33.815 -0400,1589896533.000315,41.35198835070858,-71.8449491353612,16.6154,0,93.73366711883703,3.357896188114077,4.748586128800635,-9999,63491.900635375,-0.610870361328125,-0.05059814453125,-0.9079437255859375,1,0.84
2020-05-19 09:55:33.865 -0400,1589896533.000315,41.35198835070858,-71.8449491353612,16.6154,0,93.73366711883703,3.357896188114077,4.748586128800635,-9999,63491.950530375,-0.6433868408203125,-0.185028076171875,-0.831146240234375,1,0.84
2020-05-19 09:55:33.915 -0400,1589896533.000315,41.35198835070858,-71.8449491353612,16.6154,0,93.73366711883703,3.357896188114077,4.748586128800635,-9999,63492.000425375,-0.5962677001953125,-0.2027130126953125,-0.7876434326171875,1,0.84
2020-05-19 09:55:33.966 -0400,1589896533.000315,41.35198835070858,-71.8449491353612,16.6154,0,93.73366711883703,3.357896188114077,4.748586128800635,-9999,63492.050317375,-0.5140838623046875,-0.397705078125,-0.7503204345703125,1,0.84
2020-05-19 09:55:34.015 -0400,1589896533.000315,41.35198835070858,-71.8449491353612,16.6154,0,93.73366711883703,3.357896188114077,4.748586128800635,-9999,63492.10020937501,-0.3621826171875,-0.1707916259765625,-0.798492431640625,1,0.84
2020-05-19 09:55:34.065 -0400,1589896533.000315,41.35198835070858,-71.8449491353612,16.6154,0,93.73366711883703,3.357896188114077,4.748586128800635,-9999,63492.150098375,-0.408355712890625,-0.3214874267578125,-0.7253570556640625,1,0.84
2020-05-19 09:55:34.115 -0400,1589896533.000315,41.35198835070858,-71.8449491353612,16.6154,0,93.73366711883703,3.357896188114077,4.748586128800635,-9999,63492.199986375,-0.465484619140625,-0.436614990234375,-0.8455657958984375,1,0.84
2020-05-19 09:55:34.164 -0400,1589896533.000315,41.35198835070858,-71.8449491353612,16.6154,0,93.73366711883703,3.357896188114077,4.748586128800635,-9999,63492.24987679167,-0.4378662109375,-0.470001220703125,-0.808624267578125,1,0.84
2020-05-19 09:55:34.214 -0400,1589896533.000315,41.35198835070858,-71.8449491353612,16.6154,0,93.73366711883703,3.357896188114077,4.748586128800635,-9999,63492.29976879167,-0.6412200927734375,-0.343109130859375,-0.735870361328125,1,0.84
2020-05-19 09:55:34.264 -0400,1589896534.000321,41.35199351357127,-71.84493949952964,16.22501,0,93.73367237052108,3.391938560180047,4.724329564790389,-9999,63492.34966079167,-0.71478271484375,-0.123779296875,-0.73828125,1,0.84
2020-05-19 09:55:34.314 -0400,1589896534.000321,41.35199351357127,-71.84493949952964,16.22501,0,93.73367237052108,3.391938560180047,4.724329564790389,-9999,63492.39955179167,-0.8363037109375,0.051971435546875,-0.709228515625,1,0.84
2020-05-19 09:55:34.364 -0400,1589896534.000321,41.35199351357127,-71.84493949952964,16.22501,0,93.73367237052108,3.391938560180047,4.724329564790389,-9999,63492.44944579167,-0.86737060546875,-0.0404510498046875,-0.6476287841796875,1,0.84
2020-05-19 09:55:34.414 -0400,1589896534.000321,41.35199351357127,-71.84493949952964,16.22501,0,93.73367237052108,3.391938560180047,4.724329564790389,-9999,63492.49934279167,-0.621185302734375,0.04278564453125,-0.974151611328125,1,0.84
2020-05-19 09:55:34.468 -0400,1589896534.000321,41.35199351357127,-71.84493949952964,16.22501,0,93.73367237052108,3.391938560180047,4.724329564790389,-9999,63492.54923679167,-0.8854827880859375,-0.17706298828125,-0.521728515625,1,0.84
2020-05-19 09:55:34.514 -0400,1589896534.000321,41.35199351357127,-71.84493949952964,16.22501,0,93.73367237052108,3.391938560180047,4.724329564790389,-9999,63492.59912979167,-0.6163330078125,-0.138336181640625,-0.8206024169921875,1,0.84
2020-05-19 09:55:34.564 -0400,1589896534.000321,41.35199351357127,-71.84493949952964,16.22501,0,93.73367237052108,3.391938560180047,4.724329564790389,-9999,63492.64902179167,-0.6874542236328125,-0.18084716796875,-0.64385986328125,1,0.84
2020-05-19 09:55:34.613 -0400,1589896534.000321,41.35199351357127,-71.84493949952964,16.22501,0,93.73367237052108,3.391938560180047,4.724329564790389,-9999,63492.69891579167,-0.552642822265625,-0.150665283203125,-0.7680511474609375,1,0.84
2020-05-19 09:55:34.663 -0400,1589896534.000321,41.35199351357127,-71.84493949952964,16.22501,0,93.73367237052108,3.391938560180047,4.724329564790389,-9999,63492.74880879167,-0.56268310546875,-0.10858154296875,-0.7770843505859375,1,0.84
2020-05-19 09:55:34.713 -0400,1589896534.000321,41.35199351357127,-71.84493949952964,16.22501,0,93.73367237052108,3.391938560180047,4.724329564790389,-9999,63492.79869879167,-0.49395751953125,-0.106292724609375,-0.83013916015625,1,0.84
2020-05-19 09:55:34.763 -0400,1589896534.000321,41.35199351357127,-71.84493949952964,16.22501,0,93.73367237052108,3.391938560180047,4.724329564790389,-9999,63492.84859179167,-0.523223876953125,-0.1718292236328125,-0.78118896484375,1,0.84
2020-05-19 09:55:34.813 -0400,1589896534.000321,41.35199351357127,-71.84493949952964,16.22501,0,93.73367237052108,3.391938560180047,4.724329564790389,-9999,63492.89848579167,-0.47454833984375,-0.24609375,-0.867950439453125,1,0.84
2020-05-19 09:55:34.863 -0400,1589896534.000321,41.35199351357127,-71.84493949952964,16.22501,0,93.73367237052108,3.391938560180047,4.724329564790389,-9999,63492.94838079167,-0.492034912109375,-0.29754638671875,-0.805755615234375,1,0.84
2020-05-19 09:55:34.913 -0400,1589896534.000321,41.35199351357127,-71.84493949952964,16.22501,0,93.73367237052108,3.391938560180047,4.724329564790389,-9999,63492.99827579167,-0.465484619140625,-0.2840576171875,-0.881500244140625,1,0.84
2020-05-19 09:55:34.963 -0400,1589896534.000321,41.35199351357127,-71.84493949952964,16.22501,0,93.73367237052108,3.391938560180047,4.724329564790389,-9999,63493.04817079167,-0.5113983154296875,-0.2217559814453125,-0.78155517578125,1,0.84
2020-05-19 09:55:35.012 -0400,1589896534.000321,41.35199351357127,-71.84493949952964,16.22501,0,93.73367237052108,3.391938560180047,4.724329564790389,-9999,63493.09806279167,-0.512908935546875,-0.2362823486328125,-0.7997894287109375,1,0.84
2020-05-19 09:55:35.063 -0400,1589896534.000321,41.35199351357127,-71.84493949952964,16.22501,0,93.73367237052108,3.391938560180047,4.724329564790389,-9999,63493.14795279167,-0.458465576171875,-0.340118408203125,-0.77362060546875,1,0.84
2020-05-19 09:55:35.112 -0400,1589896534.000321,41.35199351357127,-71.84493949952964,16.22501,0,93.73367237052108,3.391938560180047,4.724329564790389,-9999,63493.19784479167,-0.485107421875,-0.3739471435546875,-0.8055419921875,1,0.84
2020-05-19 09:55:35.162 -0400,1589896534.000321,41.35199351357127,-71.84493949952964,16.22501,0,93.73367237052108,3.391938560180047,4.724329564790389,-9999,63493.24773825001,-0.5133819580078125,-0.1139678955078125,-0.8118438720703125,1,0.84
2020-05-19 09:55:35.212 -0400,1589896534.000321,41.35199351357127,-71.84493949952964,16.22501,0,93.73367237052108,3.391938560180047,4.724329564790389,-9999,63493.29763125,-0.5066986083984375,-0.310028076171875,-0.7973175048828125,1,0.84
2020-05-19 09:55:35.262 -0400,1589896535.000321,41.35199298382732,-71.84494493426925,16.18436,0,93.73366893731877,3.396496149975108,4.721054006892222,-9999,63493.34752325001,-0.52294921875,-0.2849578857421875,-0.8437652587890625,1,0.84
2020-05-19 09:55:35.312 -0400,1589896535.000321,41.35199298382732,-71.84494493426925,16.18436,0,93.73366893731877,3.396496149975108,4.721054006892222,-9999,63493.39741725,-0.501007080078125,-0.34063720703125,-0.8065338134765625,1,0.84
2020-05-19 09:55:35.362 -0400,1589896535.000321,41.35199298382732,-71.84494493426925,16.18436,0,93.73366893731877,3.396496149975108,4.721054006892222,-9999,63493.44731125001,-0.5124359130859375,-0.3471527099609375,-0.794677734375,1,0.84
2020-05-19 09:55:35.412 -0400,1589896535.000321,41.35199298382732,-71.84494493426925,16.18436,0,93.73366893731877,3.396496149975108,4.721054006892222,-9999,63493.49720525,-0.5472564697265625,-0.2884368896484375,-0.7557220458984375,1,0.84
2020-05-19 09:55:35.469 -0400,1589896535.000321,41.35199298382732,-71.84494493426925,16.18436,0,93.73366893731877,3.396496149975108,4.721054006892222,-9999,63493.54710025001,-0.5424041748046875,-0.2460174560546875,-0.8245697021484375,1,0.84
2020-05-19 09:55:35.511 -0400,1589896535.000321,41.35199298382732,-71.84494493426925,16.18436,0,93.73366893731877,3.396496149975108,4.721054006892222,-9999,63493.59699625,-0.5442047119140625,-0.2150115966796875,-0.794647216796875,1,0.84
2020-05-19 09:55:35.562 -0400,1589896535.000321,41.35199298382732,-71.84494493426925,16.18436,0,93.73366893731877,3.396496149975108,4.721054006892222,-9999,63493.64689525001,-0.51068115234375,-0.2027740478515625,-0.8473968505859375,1,0.84
2020-05-19 09:55:35.611 -0400,1589896535.000321,41.35199298382732,-71.84494493426925,16.18436,0,93.73366893731877,3.396496149975108,4.721054006892222,-9999,63493.69679325,-0.5005645751953125,-0.248321533203125,-0.8588714599609375,1,0.84
2020-05-19 09:55:35.661 -0400,1589896535.000321,41.35199298382732,-71.84494493426925,16.18436,0,93.73366893731877,3.396496149975108,4.721054006892222,-9999,63493.74668925,-0.4922943115234375,-0.2758941650390625,-0.8512115478515625,1,0.84
2020-05-19 09:55:35.711 -0400,1589896535.000321,41.35199298382732,-71.84494493426925,16.18436,0,93.73366893731877,3.396496149975108,4.721054006892222,-9999,63493.79658325,-0.5213623046875,-0.2105865478515625,-0.81512451171875,1,0.84
2020-05-19 09:55:35.761 -0400,1589896535.000321,41.35199298382732,-71.84494493426925,16.18436,0,93.73366893731877,3.396496149975108,4.721054006892222,-9999,63493.84647725,-0.4681243896484375,-0.257110595703125,-0.8687286376953125,1,0.84
2020-05-19 09:55:35.811 -0400,1589896535.000321,41.35199298382732,-71.84494493426925,16.18436,0,93.73366893731877,3.396496149975108,4.721054006892222,-9999,63493.89637525001,-0.49420166015625,-0.2568206787109375,-0.8173828125,1,0.84
2020-05-19 09:55:35.861 -0400,1589896535.000321,41.35199298382732,-71.84494493426925,16.18436,0,93.73366893731877,3.396496149975108,4.721054006892222,-9999,63493.94627125,-0.4982147216796875,-0.286407470703125,-0.851318359375,1,0.84
2020-05-19 09:55:35.911 -0400,1589896535.000321,41.35199298382732,-71.84494493426925,16.18436,0,93.73366893731877,3.396496149975108,4.721054006892222,-9999,63493.99616525001,-0.4584503173828125,-0.3006744384765625,-0.81573486328125,1,0.84
2020-05-19 09:55:35.972 -0400,1589896535.000321,41.35199298382732,-71.84494493426925,16.18436,0,93.73366893731877,3.396496149975108,4.721054006892222,-9999,63494.04606325,-0.4914398193359375,-0.265960693359375,-0.7607574462890625,1,0.84
2020-05-19 09:55:36.011 -0400,1589896535.000321,41.35199298382732,-71.84494493426925,16.18436,0,93.73366893731877,3.396496149975108,4.721054006892222,-9999,63494.09596325,-0.4604339599609375,-0.3555755615234375,-0.826416015625,1,0.84
2020-05-19 09:55:36.060 -0400,1589896535.000321,41.35199298382732,-71.84494493426925,16.18436,0,93.73366893731877,3.396496149975108,4.721054006892222,-9999,63494.14586025001,-0.4329071044921875,-0.305908203125,-0.8057403564453125,1,0.84
2020-05-19 09:55:36.110 -0400,1589896535.000321,41.35199298382732,-71.84494493426925,16.18436,0,93.73366893731877,3.396496149975108,4.721054006892222,-9999,63494.19575725,-0.5135345458984375,-0.328948974609375,-0.778961181640625,1,0.84
2020-05-19 09:55:36.160 -0400,1589896535.000321,41.35199298382732,-71.84494493426925,16.18436,0,93.73366893731877,3.396496149975108,4.721054006892222,-9999,63494.24565525,-0.521575927734375,-0.36376953125,-0.857696533203125,1,0.84
2020-05-19 09:55:36.210 -0400,1589896535.000321,41.35199298382732,-71.84494493426925,16.18436,0,93.73366893731877,3.396496149975108,4.721054006892222,-9999,63494.29555025,-0.466156005859375,-0.28021240234375,-0.8472442626953125,1,0.84
2020-05-19 09:55:36.260 -0400,1589896535.000321,41.35199298382732,-71.84494493426925,16.18436,0,93.73366893731877,3.396496149975108,4.721054006892222,-9999,63494.34544625,-0.455596923828125,-0.2906494140625,-0.8240966796875,1,0.84
2020-05-19 09:55:36.310 -0400,1589896536.000328,41.35199886490279,-71.84494603758864,15.72983,0,93.73366705582262,3.404974641743792,4.714942706106891,-9999,63494.39534225001,-0.4677886962890625,-0.31329345703125,-0.8031005859375,1,0.84
2020-05-19 09:55:36.360 -0400,1589896536.000328,41.35199886490279,-71.84494603758864,15.72983,0,93.73366705582262,3.404974641743792,4.714942706106891,-9999,63494.44523425,-0.4687347412109375,-0.411376953125,-0.850341796875,1,0.84
2020-05-19 09:55:36.410 -0400,1589896536.000328,41.35199886490279,-71.84494603758864,15.72983,0,93.73366705582262,3.404974641743792,4.714942706106891,-9999,63494.49512725,-0.478546142578125,-0.4144744873046875,-0.8217620849609375,1,0.84
2020-05-19 09:55:36.468 -0400,1589896536.000328,41.35199886490279,-71.84494603758864,15.72983,0,93.73366705582262,3.404974641743792,4.714942706106891,-9999,63494.54501925001,-0.4767303466796875,-0.3050689697265625,-0.774871826171875,1,0.84
2020-05-19 09:55:36.509 -0400,1589896536.000328,41.35199886490279,-71.84494603758864,15.72983,0,93.73366705582262,3.404974641743792,4.714942706106891,-9999,63494.59490725,-0.4475860595703125,-0.3493804931640625,-0.8511505126953125,1,0.84
2020-05-19 09:55:36.559 -0400,1589896536.000328,41.35199886490279,-71.84494603758864,15.72983,0,93.73366705582262,3.404974641743792,4.714942706106891,-9999,63494.64480125,-0.46484375,-0.28692626953125,-0.8167572021484375,1,0.84
2020-05-19 09:55:36.609 -0400,1589896536.000328,41.35199886490279,-71.84494603758864,15.72983,0,93.73366705582262,3.404974641743792,4.714942706106891,-9999,63494.69469725,-0.4504547119140625,-0.3482208251953125,-0.8302764892578125,1,0.84
2020-05-19 09:55:36.659 -0400,1589896536.000328,41.35199886490279,-71.84494603758864,15.72983,0,93.73366705582262,3.404974641743792,4.714942706106891,-9999,63494.74459125,-0.43878173828125,-0.36688232421875,-0.840240478515625,1,0.84
2020-05-19 09:55:36.709 -0400,1589896536.000328,41.35199886490279,-71.84494603758864,15.72983,0,93.73366705582262,3.404974641743792,4.714942706106891,-9999,63494.79448625,-0.4611663818359375,-0.3227691650390625,-0.8175811767578125,1,0.84
2020-05-19 09:55:36.759 -0400,1589896536.000328,41.35199886490279,-71.84494603758864,15.72983,0,93.73366705582262,3.404974641743792,4.714942706106891,-9999,63494.84437925,-0.4682769775390625,-0.3524169921875,-0.7979278564453125,1,0.84
2020-05-19 09:55:36.809 -0400,1589896536.000328,41.35199886490279,-71.84494603758864,15.72983,0,93.73366705582262,3.404974641743792,4.714942706106891,-9999,63494.89427125001,-0.4595184326171875,-0.347900390625,-0.816741943359375,1,0.84
2020-05-19 09:55:36.859 -0400,1589896536.000328,41.35199886490279,-71.84494603758864,15.72983,0,93.73366705582262,3.404974641743792,4.714942706106891,-9999,63494.94416325,-0.4526519775390625,-0.3802032470703125,-0.806304931640625,1,0.84
2020-05-19 09:55:36.909 -0400,1589896536.000328,41.35199886490279,-71.84494603758864,15.72983,0,93.73366705582262,3.404974641743792,4.714942706106891,-9999,63494.99405625001,-0.4478302001953125,-0.3663787841796875,-0.8157958984375,1,0.84
2020-05-19 09:55:36.969 -0400,1589896536.000328,41.35199886490279,-71.84494603758864,15.72983,0,93.73366705582262,3.404974641743792,4.714942706106891,-9999,63495.04394925,-0.446807861328125,-0.3790740966796875,-0.8145751953125,1,0.84
2020-05-19 09:55:37.009 -0400,1589896536.000328,41.35199886490279,-71.84494603758864,15.72983,0,93.73366705582262,3.404974641743792,4.714942706106891,-9999,63495.09384125,-0.4430084228515625,-0.387847900390625,-0.825439453125,1,0.84
2020-05-19 09:55:37.058 -0400,1589896536.000328,41.35199886490279,-71.84494603758864,15.72983,0,93.73366705582262,3.404974641743792,4.714942706106891,-9999,63495.14373625001,-0.4392547607421875,-0.37713623046875,-0.807159423828125,1,0.84
2020-05-19 09:55:37.108 -0400,1589896536.000328,41.35199886490279,-71.84494603758864,15.72983,0,93.73366705582262,3.404974641743792,4.714942706106891,-9999,63495.19363225,-0.44329833984375,-0.3841552734375,-0.7983856201171875,1,0.84
2020-05-19 09:55:37.158 -0400,1589896536.000328,41.35199886490279,-71.84494603758864,15.72983,0,93.73366705582262,3.404974641743792,4.714942706106891,-9999,63495.24352887501,-0.45745849609375,-0.3727874755859375,-0.826629638671875,1,0.84
2020-05-19 09:55:37.208 -0400,1589896536.000328,41.35199886490279,-71.84494603758864,15.72983,0,93.73366705582262,3.404974641743792,4.714942706106891,-9999,63495.293424875,-0.4543914794921875,-0.3751373291015625,-0.796356201171875,1,0.84
2020-05-19 09:55:37.258 -0400,1589896536.000328,41.35199886490279,-71.84494603758864,15.72983,0,93.73366705582262,3.404974641743792,4.714942706106891,-9999,63495.34332087501,-0.4542083740234375,-0.3978729248046875,-0.818450927734375,1,0.84
2020-05-19 09:55:37.308 -0400,1589896537.000328,41.35199898888724,-71.84495055634063,16.14351,0,93.73366408961873,3.415441309853634,4.707366322237322,-9999,63495.393215875,-0.447174072265625,-0.379119873046875,-0.807830810546875,1,0.84
2020-05-19 09:55:37.358 -0400,1589896537.000328,41.35199898888724,-71.84495055634063,16.14351,0,93.73366408961873,3.415441309853634,4.707366322237322,-9999,63495.443113875,-0.449676513671875,-0.381195068359375,-0.804962158203125,1,0.84
2020-05-19 09:55:37.408 -0400,1589896537.000328,41.35199898888724,-71.84495055634063,16.14351,0,93.73366408961873,3.415441309853634,4.707366322237322,-9999,63495.493010875,-0.4531402587890625,-0.3768310546875,-0.8205108642578125,1,0.84
2020-05-19 09:55:37.468 -0400,1589896537.000328,41.35199898888724,-71.84495055634063,16.14351,0,93.73366408961873,3.415441309853634,4.707366322237322,-9999,63495.542909875,-0.454925537109375,-0.3751678466796875,-0.81048583984375,1,0.84
2020-05-19 09:55:37.507 -0400,1589896537.000328,41.35199898888724,-71.84495055634063,16.14351,0,93.73366408961873,3.415441309853634,4.707366322237322,-9999,63495.59280687501,-0.4521331787109375,-0.3492279052734375,-0.8470001220703125,1,0.84
2020-05-19 09:55:37.558 -0400,1589896537.000328,41.35199898888724,-71.84495055634063,16.14351,0,93.73366408961873,3.415441309853634,4.707366322237322,-9999,63495.642701875,-0.4506072998046875,-0.3681640625,-0.80718994140625,1,0.84
2020-05-19 09:55:37.607 -0400,1589896537.000328,41.35199898888724,-71.84495055634063,16.14351,0,93.73366408961873,3.415441309853634,4.707366322237322,-9999,63495.692597875,-0.443328857421875,-0.3561248779296875,-0.842376708984375,1,0.84
2020-05-19 09:55:37.657 -0400,1589896537.000328,41.35199898888724,-71.84495055634063,16.14351,0,93.73366408961873,3.415441309853634,4.707366322237322,-9999,63495.742490875,-0.438751220703125,-0.369903564453125,-0.808746337890625,1,0.84
2020-05-19 09:55:37.707 -0400,1589896537.000328,41.35199898888724,-71.84495055634063,16.14351,0,93.73366408961873,3.415441309853634,4.707366322237322,-9999,63495.79238387501,-0.459686279296875,-0.3715972900390625,-0.7914581298828125,1,0.84
2020-05-19 09:55:37.757 -0400,1589896537.000328,41.35199898888724,-71.84495055634063,16.14351,0,93.73366408961873,3.415441309853634,4.707366322237322,-9999,63495.842278875,-0.4514923095703125,-0.3517303466796875,-0.811737060546875,1,0.84
2020-05-19 09:55:37.807 -0400,1589896537.000328,41.35199898888724,-71.84495055634063,16.14351,0,93.73366408961873,3.415441309853634,4.707366322237322,-9999,63495.89217487501,-0.4476165771484375,-0.395782470703125,-0.7840728759765625,1,0.84
2020-05-19 09:55:37.856 -0400,1589896537.000328,41.35199898888724,-71.84495055634063,16.14351,0,93.73366408961873,3.415441309853634,4.707366322237322,-9999,63495.942067875,-0.44940185546875,-0.374542236328125,-0.80096435546875,1,0.84
2020-05-19 09:55:37.907 -0400,1589896537.000328,41.35199898888724,-71.84495055634063,16.14351,0,93.73366408961873,3.415441309853634,4.707366322237322,-9999,63495.99196387501,-0.4788970947265625,-0.386993408203125,-0.7784881591796875,1,0.84
2020-05-19 09:55:37.968 -0400,1589896537.000328,41.35199898888724,-71.84495055634063,16.14351,0,93.73366408961873,3.415441309853634,4.707366322237322,-9999,63496.041861875,-0.4955596923828125,-0.3500823974609375,-0.821197509765625,1,0.84
2020-05-19 09:55:38.007 -0400,1589896537.000328,41.35199898888724,-71.84495055634063,16.14351,0,93.73366408961873,3.415441309853634,4.707366322237322,-9999,63496.091759875,-0.4368438720703125,-0.3894195556640625,-0.864013671875,1,0.84
2020-05-19 09:55:38.056 -0400,1589896537.000328,41.35199898888724,-71.84495055634063,16.14351,0,93.73366408961873,3.415441309853634,4.707366322237322,-9999,63496.14165487501,-0.483062744140625,-0.3267822265625,-0.8165130615234375,1,0.84
2020-05-19 09:55:38.106 -0400,1589896537.000328,41.35199898888724,-71.84495055634063,16.14351,0,93.73366408961873,3.415441309853634,4.707366322237322,-9999,63496.191550875,-0.489715576171875,-0.3233184814453125,-0.8051605224609375,1,0.84
2020-05-19 09:55:38.156 -0400,1589896537.000328,41.35199898888724,-71.84495055634063,16.14351,0,93.73366408961873,3.415441309853634,4.707366322237322,-9999,63496.24144654167,-0.4860076904296875,-0.3482208251953125,-0.807220458984375,1,0.84
2020-05-19 09:55:38.206 -0400,1589896537.000328,41.35199898888724,-71.84495055634063,16.14351,0,93.73366408961873,3.415441309853634,4.707366322237322,-9999,63496.29134354167,-0.4781036376953125,-0.345703125,-0.79681396484375,1,0.84
2020-05-19 09:55:38.256 -0400,1589896537.000328,41.35199898888724,-71.84495055634063,16.14351,0,93.73366408961873,3.415441309853634,4.707366322237322,-9999,63496.34124154167,-0.4683380126953125,-0.3654632568359375,-0.81103515625,1,0.84
2020-05-19 09:55:38.306 -0400,1589896537.000328,41.35199898888724,-71.84495055634063,16.14351,0,93.73366408961873,3.415441309853634,4.707366322237322,-9999,63496.39114154167,-0.4573516845703125,-0.373046875,-0.81494140625,1,0.84
2020-05-19 09:55:38.356 -0400,1589896538.000331,41.35200044980643,-71.84495310225186,15.96824,0,93.73366214328442,3.413797670265029,4.708558431121132,-9999,63496.44103954167,-0.459625244140625,-0.3633575439453125,-0.8147430419921875,1,0.84
2020-05-19 09:55:38.405 -0400,1589896538.000331,41.35200044980643,-71.84495310225186,15.96824,0,93.73366214328442,3.413797670265029,4.708558431121132,-9999,63496.49093554167,-0.453887939453125,-0.35821533203125,-0.8148040771484375,1,0.84
2020-05-19 09:55:38.468 -0400,1589896538.000331,41.35200044980643,-71.84495310225186,15.96824,0,93.73366214328442,3.413797670265029,4.708558431121132,-9999,63496.54083354167,-0.44317626953125,-0.34637451171875,-0.804046630859375,1,0.84
2020-05-19 09:55:38.505 -0400,1589896538.000331,41.35200044980643,-71.84495310225186,15.96824,0,93.73366214328442,3.413797670265029,4.708558431121132,-9999,63496.59073554167,-0.465057373046875,-0.3695068359375,-0.790985107421875,1,0.84
2020-05-19 09:55:38.555 -0400,1589896538.000331,41.35200044980643,-71.84495310225186,15.96824,0,93.73366214328442,3.413797670265029,4.708558431121132,-9999,63496.64063254167,-0.4688720703125,-0.3539886474609375,-0.8167724609375,1,0.84
2020-05-19 09:55:38.605 -0400,1589896538.000331,41.35200044980643,-71.84495310225186,15.96824,0,93.73366214328442,3.413797670265029,4.708558431121132,-9999,63496.69053054167,-0.4728546142578125,-0.3470916748046875,-0.8062744140625,1,0.84
2020-05-19 09:55:38.655 -0400,1589896538.000331,41.35200044980643,-71.84495310225186,15.96824,0,93.73366214328442,3.413797670265029,4.708558431121132,-9999,63496.74042954167,-0.4878997802734375,-0.3374176025390625,-0.7843170166015625,1,0.84
2020-05-19 09:55:38.705 -0400,1589896538.000331,41.35200044980643,-71.84495310225186,15.96824,0,93.73366214328442,3.413797670265029,4.708558431121132,-9999,63496.79032754167,-0.480926513671875,-0.318450927734375,-0.842559814453125,1,0.84
2020-05-19 09:55:38.755 -0400,1589896538.000331,41.35200044980643,-71.84495310225186,15.96824,0,93.73366214328442,3.413797670265029,4.708558431121132,-9999,63496.84022654167,-0.4778594970703125,-0.334564208984375,-0.810272216796875,1,0.84
2020-05-19 09:55:38.805 -0400,1589896538.000331,41.35200044980643,-71.84495310225186,15.96824,0,93.73366214328442,3.413797670265029,4.708558431121132,-9999,63496.89012354167,-0.472930908203125,-0.3416595458984375,-0.808441162109375,1,0.84
2020-05-19 09:55:38.855 -0400,1589896538.000331,41.35200044980643,-71.84495310225186,15.96824,0,93.73366214328442,3.413797670265029,4.708558431121132,-9999,63496.94002054167,-0.4747467041015625,-0.3414459228515625,-0.804046630859375,1,0.84
2020-05-19 09:55:38.905 -0400,1589896538.000331,41.35200044980643,-71.84495310225186,15.96824,0,93.73366214328442,3.413797670265029,4.708558431121132,-9999,63496.98991554167,-0.466033935546875,-0.338104248046875,-0.8157196044921875,1,0.84
2020-05-19 09:55:38.968 -0400,1589896538.000331,41.35200044980643,-71.84495310225186,15.96824,0,93.73366214328442,3.413797670265029,4.708558431121132,-9999,63497.03980954167,-0.468597412109375,-0.3499908447265625,-0.811248779296875,1,0.84
2020-05-19 09:55:39.004 -0400,1589896538.000331,41.35200044980643,-71.84495310225186,15.96824,0,93.73366214328442,3.413797670265029,4.708558431121132,-9999,63497.08970554167,-0.462188720703125,-0.3488922119140625,-0.819091796875,1,0.84
2020-05-19 09:55:39.054 -0400,1589896538.000331,41.35200044980643,-71.84495310225186,15.96824,0,93.73366214328442,3.413797670265029,4.708558431121132,-9999,63497.13959954167,-0.4549713134765625,-0.3447113037109375,-0.8130035400390625,1,0.84
2020-05-19 09:55:39.104 -0400,1589896538.000331,41.35200044980643,-71.84495310225186,15.96824,0,93.73366214328442,3.413797670265029,4.708558431121132,-9999,63497.18949354167,-0.46099853515625,-0.3452301025390625,-0.82000732421875,1,0.84
2020-05-19 09:55:39.154 -0400,1589896538.000331,41.35200044980643,-71.84495310225186,15.96824,0,93.73366214328442,3.413797670265029,4.708558431121132,-9999,63497.23938254167,-0.469482421875,-0.3489532470703125,-0.8213653564453125,1,0.84
2020-05-19 09:55:39.204 -0400,1589896538.000331,41.35200044980643,-71.84495310225186,15.96824,0,93.73366214328442,3.413797670265029,4.708558431121132,-9999,63497.28927454167,-0.4677581787109375,-0.344512939453125,-0.809539794921875,1,0.84
2020-05-19 09:55:39.254 -0400,1589896539.000336,41.35200423098832,-71.84495447972448,16.28463,0,93.73366049866209,3.385723861197214,4.728785358684475,-9999,63497.33916554167,-0.4679412841796875,-0.34918212890625,-0.8083953857421875,1,0.84
2020-05-19 09:55:39.304 -0400,1589896539.000336,41.35200423098832,-71.84495447972448,16.28463,0,93.73366049866209,3.385723861197214,4.728785358684475,-9999,63497.38905354167,-0.46954345703125,-0.3460235595703125,-0.808563232421875,1,0.84
2020-05-19 09:55:39.353 -0400,1589896539.000336,41.35200423098832,-71.84495447972448,16.28463,0,93.73366049866209,3.385723861197214,4.728785358684475,-9999,63497.43894254167,-0.4700164794921875,-0.3493194580078125,-0.817474365234375,1,0.84
2020-05-19 09:55:39.403 -0400,1589896539.000336,41.35200423098832,-71.84495447972448,16.28463,0,93.73366049866209,3.385723861197214,4.728785358684475,-9999,63497.48883254167,-0.4693450927734375,-0.34228515625,-0.8110809326171875,1,0.84
2020-05-19 09:55:39.469 -0400,1589896539.000336,41.35200423098832,-71.84495447972448,16.28463,0,93.73366049866209,3.385723861197214,4.728785358684475,-9999,63497.53872254167,-0.4658355712890625,-0.344451904296875,-0.8108978271484375,1,0.84
2020-05-19 09:55:39.503 -0400,1589896539.000336,41.35200423098832,-71.84495447972448,16.28463,0,93.73366049866209,3.385723861197214,4.728785358684475,-9999,63497.58861454167,-0.4514007568359375,-0.357513427734375,-0.815277099609375,1,0.84
2020-05-19 09:55:39.553 -0400,1589896539.000336,41.35200423098832,-71.84495447972448,16.28463,0,93.73366049866209,3.385723861197214,4.728785358684475,-9999,63497.63850454167,-0.4585113525390625,-0.351715087890625,-0.809112548828125,1,0.84
2020-05-19 09:55:39.603 -0400,1589896539.000336,41.35200423098832,-71.84495447972448,16.28463,0,93.73366049866209,3.385723861197214,4.728785358684475,-9999,63497.68839654167,-0.47418212890625,-0.3424530029296875,-0.8125152587890625,1,0.84
2020-05-19 09:55:39.653 -0400,1589896539.000336,41.35200423098832,-71.84495447972448,16.28463,0,93.73366049866209,3.385723861197214,4.728785358684475,-9999,63497.73828554167,-0.470550537109375,-0.3414306640625,-0.822418212890625,1,0.84
2020-05-19 09:55:39.703 -0400,1589896539.000336,41.35200423098832,-71.84495447972448,16.28463,0,93.73366049866209,3.385723861197214,4.728785358684475,-9999,63497.78817554167,-0.4730224609375,-0.336151123046875,-0.803466796875,1,0.84
2020-05-19 09:55:39.753 -0400,1589896539.000336,41.35200423098832,-71.84495447972448,16.28463,0,93.73366049866209,3.385723861197214,4.728785358684475,-9999,63497.83806854167,-0.4722137451171875,-0.3407440185546875,-0.8155975341796875,1,0.84
2020-05-19 09:55:39.803 -0400,1589896539.000336,41.35200423098832,-71.84495447972448,16.28463,0,93.73366049866209,3.385723861197214,4.728785358684475,-9999,63497.88795954167,-0.4644317626953125,-0.3453216552734375,-0.815643310546875,1,0.84
2020-05-19 09:55:39.853 -0400,1589896539.000336,41.35200423098832,-71.84495447972448,16.28463,0,93.73366049866209,3.385723861197214,4.728785358684475,-9999,63497.93785254167,-0.470306396484375,-0.3537139892578125,-0.815887451171875,1,0.84
2020-05-19 09:55:39.902 -0400,1589896539.000336,41.35200423098832,-71.84495447972448,16.28463,0,93.73366049866209,3.385723861197214,4.728785358684475,-9999,63497.98774654167,-0.4732666015625,-0.355804443359375,-0.812408447265625,1,0.84
2020-05-19 09:55:39.952 -0400,1589896539.000336,41.35200423098832,-71.84495447972448,16.28463,0,93.73366049866209,3.385723861197214,4.728785358684475,-9999,63498.03764254167,-0.4757232666015625,-0.3519287109375,-0.816741943359375,1,0.84
2020-05-19 09:55:40.002 -0400,1589896539.000336,41.35200423098832,-71.84495447972448,16.28463,0,93.73366049866209,3.385723861197214,4.728785358684475,-9999,63498.08753954167,-0.47003173828125,-0.350830078125,-0.806304931640625,1,0.84
2020-05-19 09:55:40.052 -0400,1589896539.000336,41.35200423098832,-71.84495447972448,16.28463,0,93.73366049866209,3.385723861197214,4.728785358684475,-9999,63498.13743454167,-0.4695892333984375,-0.3497161865234375,-0.8106536865234375,1,0.84
2020-05-19 09:55:40.102 -0400,1589896539.000336,41.35200423098832,-71.84495447972448,16.28463,0,93.73366049866209,3.385723861197214,4.728785358684475,-9999,63498.18732954167,-0.4665069580078125,-0.3499755859375,-0.8140869140625,1,0.84
2020-05-19 09:55:40.152 -0400,1589896539.000336,41.35200423098832,-71.84495447972448,16.28463,0,93.73366049866209,3.385723861197214,4.728785358684475,-9999,63498.23722437501,-0.4692840576171875,-0.3415069580078125,-0.8127593994140625,1,0.84
2020-05-19 09:55:40.202 -0400,1589896539.000336,41.35200423098832,-71.84495447972448,16.28463,0,93.73366049866209,3.385723861197214,4.728785358684475,-9999,63498.287120375,-0.456207275390625,-0.34613037109375,-0.808502197265625,1,0.84
2020-05-19 09:55:40.252 -0400,1589896539.000336,41.35200423098832,-71.84495447972448,16.28463,0,93.73366049866209,3.385723861197214,4.728785358684475,-9999,63498.33701437501,-0.458038330078125,-0.34979248046875,-0.812103271484375,1,0.84
2020-05-19 09:55:40.301 -0400,1589896539.000336,41.35200423098832,-71.84495447972448,16.28463,0,93.73366049866209,3.385723861197214,4.728785358684475,-9999,63498.386909375,-0.450408935546875,-0.3448333740234375,-0.8148193359375,1,0.84
2020-05-19 09:55:40.351 -0400,1589896540.00034,41.35201049041448,-71.84495732179151,15.95468,0,93.73365741041474,3.387518868261648,4.727499650974091,-9999,63498.43680137501,-0.457183837890625,-0.350555419921875,-0.798095703125,1,0.84
2020-05-19 09:55:40.401 -0400,1589896540.00034,41.35201049041448,-71.84495732179151,15.95468,0,93.73365741041474,3.387518868261648,4.727499650974091,-9999,63498.486697375,-0.4718475341796875,-0.341339111328125,-0.809173583984375,1,0.84
2020-05-19 09:55:40.451 -0400,1589896540.00034,41.35201049041448,-71.84495732179151,15.95468,0,93.73365741041474,3.387518868261648,4.727499650974091,-9999,63498.536595375,-0.4802703857421875,-0.3418426513671875,-0.8179473876953125,1,0.84
2020-05-19 09:55:40.501 -0400,1589896540.00034,41.35201049041448,-71.84495732179151,15.95468,0,93.73365741041474,3.387518868261648,4.727499650974091,-9999,63498.586490375,-0.4393768310546875,-0.3283538818359375,-0.821441650390625,1,0.84
2020-05-19 09:55:40.551 -0400,1589896540.00034,41.35201049041448,-71.84495732179151,15.95468,0,93.73365741041474,3.387518868261648,4.727499650974091,-9999,63498.636386375,-0.4278564453125,-0.3253631591796875,-0.8161163330078125,1,0.84
2020-05-19 09:55:40.601 -0400,1589896540.00034,41.35201049041448,-71.84495732179151,15.95468,0,93.73365741041474,3.387518868261648,4.727499650974091,-9999,63498.686278375,-0.4104461669921875,-0.304779052734375,-0.802764892578125,1,0.84
2020-05-19 09:55:40.651 -0400,1589896540.00034,41.35201049041448,-71.84495732179151,15.95468,0,93.73365741041474,3.387518868261648,4.727499650974091,-9999,63498.73617137501,-0.4261474609375,-0.3136749267578125,-0.834625244140625,1,0.84
2020-05-19 09:55:40.701 -0400,1589896540.00034,41.35201049041448,-71.84495732179151,15.95468,0,93.73365741041474,3.387518868261648,4.727499650974091,-9999,63498.786063375,-0.5258026123046875,-0.28582763671875,-0.7798309326171875,1,0.84
2020-05-19 09:55:40.750 -0400,1589896540.00034,41.35201049041448,-71.84495732179151,15.95468,0,93.73365741041474,3.387518868261648,4.727499650974091,-9999,63498.83595537501,-0.6173095703125,-0.229644775390625,-0.7492828369140625,1,0.84
2020-05-19 09:55:40.800 -0400,1589896540.00034,41.35201049041448,-71.84495732179151,15.95468,0,93.73365741041474,3.387518868261648,4.727499650974091,-9999,63498.88584537501,-0.59100341796875,-0.2660675048828125,-0.7230987548828125,1,0.84
2020-05-19 09:55:40.851 -0400,1589896540.00034,41.35201049041448,-71.84495732179151,15.95468,0,93.73365741041474,3.387518868261648,4.727499650974091,-9999,63498.935735375,-0.5886383056640625,-0.1903076171875,-0.78546142578125,1,0.84
2020-05-19 09:55:40.900 -0400,1589896540.00034,41.35201049041448,-71.84495732179151,15.95468,0,93.73365741041474,3.387518868261648,4.727499650974091,-9999,63498.98562837501,-0.5612030029296875,-0.20068359375,-0.716583251953125,1,0.84
2020-05-19 09:55:40.950 -0400,1589896540.00034,41.35201049041448,-71.84495732179151,15.95468,0,93.73365741041474,3.387518868261648,4.727499650974091,-9999,63499.035520375,-0.6047515869140625,-0.1493377685546875,-0.751800537109375,1,0.84
2020-05-19 09:55:41.000 -0400,1589896540.00034,41.35201049041448,-71.84495732179151,15.95468,0,93.73365741041474,3.387518868261648,4.727499650974091,-9999,63499.085413375,-0.6371917724609375,-0.152587890625,-0.7895660400390625,1,0.84
2020-05-19 09:55:41.050 -0400,1589896540.00034,41.35201049041448,-71.84495732179151,15.95468,0,93.73365741041474,3.387518868261648,4.727499650974091,-9999,63499.13530837501,-0.4081573486328125,-0.210540771484375,-0.88134765625,1,0.84
2020-05-19 09:55:41.100 -0400,1589896540.00034,41.35201049041448,-71.84495732179151,15.95468,0,93.73365741041474,3.387518868261648,4.727499650974091,-9999,63499.185206375,-0.4071197509765625,-0.1568603515625,-0.895233154296875,1,0.84
2020-05-19 09:55:41.149 -0400,1589896540.00034,41.35201049041448,-71.84495732179151,15.95468,0,93.73365741041474,3.387518868261648,4.727499650974091,-9999,63499.2351005,-0.2931060791015625,-0.14971923828125,-0.779388427734375,1,0.84
2020-05-19 09:55:41.200 -0400,1589896540.00034,41.35201049041448,-71.84495732179151,15.95468,0,93.73365741041474,3.387518868261648,4.727499650974091,-9999,63499.2849925,-0.4595489501953125,-0.0785369873046875,-0.6390380859375,1,0.84
2020-05-19 09:55:41.249 -0400,1589896540.00034,41.35201049041448,-71.84495732179151,15.95468,0,93.73365741041474,3.387518868261648,4.727499650974091,-9999,63499.3348855,-1.29986572265625,-0.182342529296875,-0.644378662109375,1,0.84
2020-05-19 09:55:41.299 -0400,1589896540.00034,41.35201049041448,-71.84495732179151,15.95468,0,93.73365741041474,3.387518868261648,4.727499650974091,-9999,63499.3847815,-1.369308471679688,0.1252899169921875,-0.637451171875,1,0.84
2020-05-19 09:55:41.349 -0400,1589896540.00034,41.35201049041448,-71.84495732179151,15.95468,0,93.73365741041474,3.387518868261648,4.727499650974091,-9999,63499.4346775,-0.6474456787109375,-0.0037078857421875,-0.4533233642578125,1,0.84
2020-05-19 09:55:41.399 -0400,1589896541.000347,41.35201049041448,-71.84495732179151,15.95468,0,93.73365741041474,3.400527537386369,4.718151067978412,-9999,63499.4845715,-0.2462615966796875,0.334686279296875,-0.891876220703125,1,0.84
2020-05-19 09:55:41.449 -0400,1589896541.000347,41.35201049041448,-71.84495732179151,15.95468,0,93.73365741041474,3.400527537386369,4.718151067978412,-9999,63499.5344655,-0.320892333984375,0.75775146484375,-1.41058349609375,1,0.84
2020-05-19 09:55:41.499 -0400,1589896541.000347,41.35201049041448,-71.84495732179151,15.95468,0,93.73365741041474,3.400527537386369,4.718151067978412,-9999,63499.5843605,-0.4593505859375,0.382476806640625,-1.06207275390625,1,0.84
2020-05-19 09:55:41.549 -0400,1589896541.000347,41.35201049041448,-71.84495732179151,15.95468,0,93.73365741041474,3.400527537386369,4.718151067978412,-9999,63499.6342535,-0.5430755615234375,-0.0899810791015625,-0.7017059326171875,1,0.84
2020-05-19 09:55:41.599 -0400,1589896541.000347,41.35201049041448,-71.84495732179151,15.95468,0,93.73365741041474,3.400527537386369,4.718151067978412,-9999,63499.6841475,-0.559173583984375,-0.0789337158203125,-0.688629150390625,1,0.84
2020-05-19 09:55:41.649 -0400,1589896541.000347,41.35201049041448,-71.84495732179151,15.95468,0,93.73365741041474,3.400527537386369,4.718151067978412,-9999,63499.73404050001,-0.51153564453125,-0.0796966552734375,-0.833831787109375,1,0.84
2020-05-19 09:55:41.698 -0400,1589896541.000347,41.35201049041448,-71.84495732179151,15.95468,0,93.73365741041474,3.400527537386369,4.718151067978412,-9999,63499.7839345,-0.4605560302734375,-0.46710205078125,-0.95159912109375,1,0.84
2020-05-19 09:55:41.748 -0400,1589896541.000347,41.35201049041448,-71.84495732179151,15.95468,0,93.73365741041474,3.400527537386369,4.718151067978412,-9999,63499.83382950001,-0.468963623046875,0.032806396484375,-0.9246826171875,1,0.84
2020-05-19 09:55:41.798 -0400,1589896541.000347,41.35201049041448,-71.84495732179151,15.95468,0,93.73365741041474,3.400527537386369,4.718151067978412,-9999,63499.8837215,-0.524505615234375,-0.0796356201171875,-0.8647003173828125,1,0.84
2020-05-19 09:55:41.848 -0400,1589896541.000347,41.35201049041448,-71.84495732179151,15.95468,0,93.73365741041474,3.400527537386369,4.718151067978412,-9999,63499.93361550001,-0.5374755859375,0.1451263427734375,-0.805450439453125,1,0.84
2020-05-19 09:55:41.898 -0400,1589896541.000347,41.35201049041448,-71.84495732179151,15.95468,0,93.73365741041474,3.400527537386369,4.718151067978412,-9999,63499.9835095,-0.561126708984375,-0.110137939453125,-0.803131103515625,1,0.84
2020-05-19 09:55:41.948 -0400,1589896541.000347,41.35201049041448,-71.84495732179151,15.95468,0,93.73365741041474,3.400527537386369,4.718151067978412,-9999,63500.0334025,-0.5583343505859375,0.047027587890625,-0.8225860595703125,1,0.84
2020-05-19 09:55:41.998 -0400,1589896541.000347,41.35201049041448,-71.84495732179151,15.95468,0,93.73365741041474,3.400527537386369,4.718151067978412,-9999,63500.0832955,-0.55609130859375,-0.081939697265625,-0.7858428955078125,1,0.84
2020-05-19 09:55:42.048 -0400,1589896541.000347,41.35201049041448,-71.84495732179151,15.95468,0,93.73365741041474,3.400527537386369,4.718151067978412,-9999,63500.1331885,-0.5236968994140625,0.0520477294921875,-0.7534027099609375,1,0.84
2020-05-19 09:55:42.098 -0400,1589896541.000347,41.35201049041448,-71.84495732179151,15.95468,0,93.73365741041474,3.400527537386369,4.718151067978412,-9999,63500.18307950001,-0.5562744140625,0.0364227294921875,-0.775726318359375,1,0.84
2020-05-19 09:55:42.147 -0400,1589896541.000347,41.35201049041448,-71.84495732179151,15.95468,0,93.73365741041474,3.400527537386369,4.718151067978412,-9999,63500.232971625,-0.4035797119140625,0.02099609375,-0.7641754150390625,1,0.84
2020-05-19 09:55:42.198 -0400,1589896541.000347,41.35201049041448,-71.84495732179151,15.95468,0,93.73365741041474,3.400527537386369,4.718151067978412,-9999,63500.28286562501,-0.384124755859375,0.0183258056640625,-0.8154754638671875,1,0.84
2020-05-19 09:55:42.247 -0400,1589896542.000346,41.35201550843003,-71.84496854646891,15.97429,0,93.73364911067955,3.405204285079675,4.71477685682619,-9999,63500.332760625,-0.6555633544921875,-0.1088714599609375,-1.039093017578125,1,0.84
2020-05-19 09:55:42.297 -0400,1589896542.000346,41.35201550843003,-71.84496854646891,15.97429,0,93.73364911067955,3.405204285079675,4.71477685682619,-9999,63500.38265462501,-0.84130859375,-0.139862060546875,-0.9028778076171875,1,0.84
2020-05-19 09:55:42.347 -0400,1589896542.000346,41.35201550843003,-71.84496854646891,15.97429,0,93.73364911067955,3.405204285079675,4.71477685682619,-9999,63500.432547625,-0.7445831298828125,-0.0350189208984375,-0.7612457275390625,1,0.84
2020-05-19 09:55:42.397 -0400,1589896542.000346,41.35201550843003,-71.84496854646891,15.97429,0,93.73364911067955,3.405204285079675,4.71477685682619,-9999,63500.482439625,-0.4067535400390625,0.0167999267578125,-0.88311767578125,1,0.84
2020-05-19 09:55:42.447 -0400,1589896542.000346,41.35201550843003,-71.84496854646891,15.97429,0,93.73364911067955,3.405204285079675,4.71477685682619,-9999,63500.53233062501,-0.380218505859375,0.0024566650390625,-0.915313720703125,1,0.84
2020-05-19 09:55:42.497 -0400,1589896542.000346,41.35201550843003,-71.84496854646891,15.97429,0,93.73364911067955,3.405204285079675,4.71477685682619,-9999,63500.582221625,-0.4835357666015625,-0.034423828125,-0.87896728515625,1,0.84
2020-05-19 09:55:42.547 -0400,1589896542.000346,41.35201550843003,-71.84496854646891,15.97429,0,93.73364911067955,3.405204285079675,4.71477685682619,-9999,63500.632111625,-0.5041351318359375,0.0053558349609375,-0.8524627685546875,1,0.84
2020-05-19 09:55:42.596 -0400,1589896542.000346,41.35201550843003,-71.84496854646891,15.97429,0,93.73364911067955,3.405204285079675,4.71477685682619,-9999,63500.68199962501,-0.48431396484375,-0.016632080078125,-0.88018798828125,1,0.84
2020-05-19 09:55:42.646 -0400,1589896542.000346,41.35201550843003,-71.84496854646891,15.97429,0,93.73364911067955,3.405204285079675,4.71477685682619,-9999,63500.73188962501,-0.4840240478515625,-0.0725860595703125,-0.8680572509765625,1,0.84
2020-05-19 09:55:42.696 -0400,1589896542.000346,41.35201550843003,-71.84496854646891,15.97429,0,93.73364911067955,3.405204285079675,4.71477685682619,-9999,63500.781779625,-0.485870361328125,-0.0692291259765625,-0.8656768798828125,1,0.84
2020-05-19 09:55:42.746 -0400,1589896542.000346,41.35201550843003,-71.84496854646891,15.97429,0,93.73364911067955,3.405204285079675,4.71477685682619,-9999,63500.83167262501,-0.485748291015625,-0.0062408447265625,-0.8642578125,1,0.84
2020-05-19 09:55:42.796 -0400,1589896542.000346,41.35201550843003,-71.84496854646891,15.97429,0,93.73364911067955,3.405204285079675,4.71477685682619,-9999,63500.881565625,-0.494354248046875,-0.049560546875,-0.8734130859375,1,0.84
2020-05-19 09:55:42.846 -0400,1589896542.000346,41.35201550843003,-71.84496854646891,15.97429,0,93.73364911067955,3.405204285079675,4.71477685682619,-9999,63500.931459625,-0.493621826171875,-0.0659332275390625,-0.876068115234375,1,0.84
2020-05-19 09:55:42.896 -0400,1589896542.000346,41.35201550843003,-71.84496854646891,15.97429,0,93.73364911067955,3.405204285079675,4.71477685682619,-9999,63500.981356625,-0.4903411865234375,-0.0310516357421875,-0.8766937255859375,1,0.84
2020-05-19 09:55:42.946 -0400,1589896542.000346,41.35201550843003,-71.84496854646891,15.97429,0,93.73364911067955,3.405204285079675,4.71477685682619,-9999,63501.03125362501,-0.4866790771484375,-0.0376129150390625,-0.8662872314453125,1,0.84
2020-05-19 09:55:42.996 -0400,1589896542.000346,41.35201550843003,-71.84496854646891,15.97429,0,93.73364911067955,3.405204285079675,4.71477685682619,-9999,63501.081146625,-0.4863433837890625,-0.04852294921875,-0.8743133544921875,1,0.84
2020-05-19 09:55:43.046 -0400,1589896542.000346,41.35201550843003,-71.84496854646891,15.97429,0,93.73364911067955,3.405204285079675,4.71477685682619,-9999,63501.131038625,-0.487640380859375,-0.0370941162109375,-0.870147705078125,1,0.84
2020-05-19 09:55:43.095 -0400,1589896542.000346,41.35201550843003,-71.84496854646891,15.97429,0,93.73364911067955,3.405204285079675,4.71477685682619,-9999,63501.18092962501,-0.490997314453125,-0.0478363037109375,-0.8744049072265625,1,0.84
2020-05-19 09:55:43.145 -0400,1589896542.000346,41.35201550843003,-71.84496854646891,15.97429,0,93.73364911067955,3.405204285079675,4.71477685682619,-9999,63501.230821375,-0.492767333984375,-0.041900634765625,-0.8734283447265625,1,0.84
2020-05-19 09:55:43.195 -0400,1589896542.000346,41.35201550843003,-71.84496854646891,15.97429,0,93.73364911067955,3.405204285079675,4.71477685682619,-9999,63501.280712375,-0.490447998046875,-0.0345306396484375,-0.87554931640625,1,0.84
2020-05-19 09:55:43.245 -0400,1589896542.000346,41.35201550843003,-71.84496854646891,15.97429,0,93.73364911067955,3.405204285079675,4.71477685682619,-9999,63501.33060437501,-0.48809814453125,-0.043548583984375,-0.874542236328125,1,0.84
2020-05-19 09:55:43.295 -0400,1589896542.000346,41.35201550843003,-71.84496854646891,15.97429,0,93.73364911067955,3.405204285079675,4.71477685682619,-9999,63501.380499375,-0.4877471923828125,-0.0413665771484375,-0.86962890625,1,0.84
