loggingTime(txt),locationTimestamp_since1970(s),locationLatitude(WGS84),locationLongitude(WGS84),locationAltitude(m),locationSpeed(m/s),locationCourse(°),locationVerticalAccuracy(m),locationHorizontalAccuracy(m),locationFloor(Z),accelerometerTimestamp_sinceReboot(s),accelerometerAccelerationX(G),accelerometerAccelerationY(G),accelerometerAccelerationZ(G),batteryState,batteryLevel
2020-05-19 10:07:27.741 -0400,1589897246.99979,41.35199833048136,-71.84494455830702,21.3934,0,-1,3.468897259226126,4.668114055774805,-9999,64061.71732029167,0.522735595703125,-0.769195556640625,-0.3675079345703125,1,0.83
2020-05-19 10:07:27.791 -0400,1589897246.99979,41.35199833048136,-71.84494455830702,21.3934,0,-1,3.468897259226126,4.668114055774805,-9999,64061.76721229167,0.5175933837890625,-0.769256591796875,-0.3748626708984375,1,0.83
2020-05-19 10:07:27.841 -0400,1589897246.99979,41.35199833048136,-71.84494455830702,21.3934,0,-1,3.468897259226126,4.668114055774805,-9999,64061.81710229167,0.514434814453125,-0.76690673828125,-0.3712921142578125,1,0.83
2020-05-19 10:07:27.896 -0400,1589897246.99979,41.35199833048136,-71.84494455830702,21.3934,0,-1,3.468897259226126,4.668114055774805,-9999,64061.866992,0.5150146484375,-0.77099609375,-0.3552398681640625,1,0.83
2020-05-19 10:07:27.941 -0400,1589897246.99979,41.35199833048136,-71.84494455830702,21.3934,0,-1,3.468897259226126,4.668114055774805,-9999,64061.91688500001,0.50732421875,-0.767730712890625,-0.3533477783203125,1,0.83
2020-05-19 10:07:27.991 -0400,1589897246.99979,41.35199833048136,-71.84494455830702,21.3934,0,-1,3.468897259226126,4.668114055774805,-9999,64061.966775,0.515228271484375,-0.7613677978515625,-0.362335205078125,1,0.83
2020-05-19 10:07:28.041 -0400,1589897246.99979,41.35199833048136,-71.84494455830702,21.3934,0,-1,3.468897259226126,4.668114055774805,-9999,64062.016668,0.5090789794921875,-0.7700653076171875,-0.3534698486328125,1,0.83
2020-05-19 10:07:28.091 -0400,1589897246.99979,41.35199833048136,-71.84494455830702,21.3934,0,-1,3.468897259226126,4.668114055774805,-9999,64062.06655900001,0.5167388916015625,-0.766998291015625,-0.35687255859375,1,0.83
2020-05-19 10:07:28.141 -0400,1589897246.99979,41.35199833048136,-71.84494455830702,21.3934,0,-1,3.468897259226126,4.668114055774805,-9999,64062.116451,0.519500732421875,-0.77362060546875,-0.36956787109375,1,0.83
2020-05-19 10:07:28.190 -0400,1589897246.99979,41.35199833048136,-71.84494455830702,21.3934,0,-1,3.468897259226126,4.668114055774805,-9999,64062.166342,0.5186614990234375,-0.77337646484375,-0.36700439453125,1,0.83
2020-05-19 10:07:28.241 -0400,1589897247.999783,41.35199855195269,-71.84494858863981,21.02049,0,-1,3.467124375600062,4.66943097142561,-9999,64062.21623200001,0.52728271484375,-0.77105712890625,-0.3675537109375,1,0.83
2020-05-19 10:07:28.290 -0400,1589897247.999783,41.35199855195269,-71.84494858863981,21.02049,0,-1,3.467124375600062,4.66943097142561,-9999,64062.26612000001,0.53082275390625,-0.7688751220703125,-0.36700439453125,1,0.83
2020-05-19 10:07:28.341 -0400,1589897247.999783,41.35199855195269,-71.84494858863981,21.02049,0,-1,3.467124375600062,4.66943097142561,-9999,64062.316008,0.5368194580078125,-0.751708984375,-0.3520050048828125,1,0.83
2020-05-19 10:07:28.391 -0400,1589897247.999783,41.35199855195269,-71.84494858863981,21.02049,0,-1,3.467124375600062,4.66943097142561,-9999,64062.365895,0.572265625,-0.735137939453125,-0.3165130615234375,1,0.83
2020-05-19 10:07:28.440 -0400,1589897247.999783,41.35199855195269,-71.84494858863981,21.02049,0,-1,3.467124375600062,4.66943097142561,-9999,64062.415785,0.5652923583984375,-0.7482757568359375,-0.2934112548828125,1,0.83
2020-05-19 10:07:28.490 -0400,1589897247.999783,41.35199855195269,-71.84494858863981,21.02049,0,-1,3.467124375600062,4.66943097142561,-9999,64062.46567100001,0.5616912841796875,-0.7152252197265625,-0.3359832763671875,1,0.83
2020-05-19 10:07:28.540 -0400,1589897247.999783,41.35199855195269,-71.84494858863981,21.02049,0,-1,3.467124375600062,4.66943097142561,-9999,64062.51555700001,0.5669708251953125,-0.6267242431640625,-0.4561767578125,1,0.83
2020-05-19 10:07:28.590 -0400,1589897247.999783,41.35199855195269,-71.84494858863981,21.02049,0,-1,3.467124375600062,4.66943097142561,-9999,64062.56544400001,0.5308990478515625,-0.590301513671875,-0.467193603515625,1,0.83
2020-05-19 10:07:28.639 -0400,1589897247.999783,41.35199855195269,-71.84494858863981,21.02049,0,-1,3.467124375600062,4.66943097142561,-9999,64062.615334,0.4534454345703125,-0.6344146728515625,-0.6278228759765625,1,0.83
2020-05-19 10:07:28.690 -0400,1589897247.999783,41.35199855195269,-71.84494858863981,21.02049,0,-1,3.467124375600062,4.66943097142561,-9999,64062.665223,0.4195556640625,-0.1285400390625,-0.820037841796875,1,0.83
2020-05-19 10:07:28.739 -0400,1589897247.999783,41.35199855195269,-71.84494858863981,21.02049,0,-1,3.467124375600062,4.66943097142561,-9999,64062.71511400001,0.3399200439453125,-0.0740509033203125,-0.898040771484375,1,0.83
2020-05-19 10:07:28.789 -0400,1589897247.999783,41.35199855195269,-71.84494858863981,21.02049,0,-1,3.467124375600062,4.66943097142561,-9999,64062.765004,0.2768096923828125,0.252288818359375,-1.0625,1,0.83
2020-05-19 10:07:28.839 -0400,1589897247.999783,41.35199855195269,-71.84494858863981,21.02049,0,-1,3.467124375600062,4.66943097142561,-9999,64062.814891,0.218780517578125,0.397857666015625,-0.994415283203125,1,0.83
2020-05-19 10:07:28.889 -0400,1589897247.999783,41.35199855195269,-71.84494858863981,21.02049,0,-1,3.467124375600062,4.66943097142561,-9999,64062.86477866667,0.110198974609375,0.4402923583984375,-0.909942626953125,1,0.83
2020-05-19 10:07:28.939 -0400,1589897247.999783,41.35199855195269,-71.84494858863981,21.02049,0,-1,3.467124375600062,4.66943097142561,-9999,64062.91466666667,0.0411224365234375,0.6666107177734375,-0.831268310546875,1,0.83
2020-05-19 10:07:28.988 -0400,1589897247.999783,41.35199855195269,-71.84494858863981,21.02049,0,-1,3.467124375600062,4.66943097142561,-9999,64062.96455366667,-0.00799560546875,0.619110107421875,-0.830657958984375,1,0.83
2020-05-19 10:07:29.038 -0400,1589897247.999783,41.35199855195269,-71.84494858863981,21.02049,0,-1,3.467124375600062,4.66943097142561,-9999,64063.01444266667,0.045074462890625,0.7384796142578125,-0.9259185791015625,1,0.83
2020-05-19 10:07:29.088 -0400,1589897247.999783,41.35199855195269,-71.84494858863981,21.02049,0,-1,3.467124375600062,4.66943097142561,-9999,64063.06432966667,0.0800933837890625,0.605621337890625,-0.737152099609375,1,0.83
2020-05-19 10:07:29.138 -0400,1589897247.999783,41.35199855195269,-71.84494858863981,21.02049,0,-1,3.467124375600062,4.66943097142561,-9999,64063.11421666667,0.0254974365234375,0.5671234130859375,-0.74755859375,1,0.83
2020-05-19 10:07:29.188 -0400,1589897247.999783,41.35199855195269,-71.84494858863981,21.02049,0,-1,3.467124375600062,4.66943097142561,-9999,64063.16410266667,0.1064453125,0.49920654296875,-0.7653961181640625,1,0.83
2020-05-19 10:07:29.238 -0400,1589897248.999791,41.35199815261302,-71.84495028480885,20.7958,0,-1,3.46063881129055,4.674239622717086,-9999,64063.21398866667,0.060272216796875,0.59246826171875,-0.912628173828125,1,0.83
2020-05-19 10:07:29.288 -0400,1589897248.999791,41.35199815261302,-71.84495028480885,20.7958,0,-1,3.46063881129055,4.674239622717086,-9999,64063.26387766667,0.0560302734375,0.6070404052734375,-0.890625,1,0.83
2020-05-19 10:07:29.338 -0400,1589897248.999791,41.35199815261302,-71.84495028480885,20.7958,0,-1,3.46063881129055,4.674239622717086,-9999,64063.31376266667,0.085174560546875,0.349884033203125,-0.9010162353515625,1,0.83
2020-05-19 10:07:29.388 -0400,1589897248.999791,41.35199815261302,-71.84495028480885,20.7958,0,-1,3.46063881129055,4.674239622717086,-9999,64063.36365066667,0.0190887451171875,0.77996826171875,-0.8284912109375,1,0.83
2020-05-19 10:07:29.437 -0400,1589897248.999791,41.35199815261302,-71.84495028480885,20.7958,0,-1,3.46063881129055,4.674239622717086,-9999,64063.41354166667,0.034881591796875,0.422821044921875,-0.8563995361328125,1,0.83
2020-05-19 10:07:29.487 -0400,1589897248.999791,41.35199815261302,-71.84495028480885,20.7958,0,-1,3.46063881129055,4.674239622717086,-9999,64063.46343066667,-0.04656982421875,0.5897369384765625,-0.629638671875,1,0.83
2020-05-19 10:07:29.537 -0400,1589897248.999791,41.35199815261302,-71.84495028480885,20.7958,0,-1,3.46063881129055,4.674239622717086,-9999,64063.51331966667,-0.0291290283203125,0.47320556640625,-0.830108642578125,1,0.83
2020-05-19 10:07:29.587 -0400,1589897248.999791,41.35199815261302,-71.84495028480885,20.7958,0,-1,3.46063881129055,4.674239622717086,-9999,64063.56320766667,0.0012359619140625,0.40576171875,-0.7910919189453125,1,0.83
2020-05-19 10:07:29.637 -0400,1589897248.999791,41.35199815261302,-71.84495028480885,20.7958,0,-1,3.46063881129055,4.674239622717086,-9999,64063.61309566667,-0.019805908203125,0.6533203125,-0.854522705078125,1,0.83
2020-05-19 10:07:29.687 -0400,1589897248.999791,41.35199815261302,-71.84495028480885,20.7958,0,-1,3.46063881129055,4.674239622717086,-9999,64063.66298466667,-0.0046539306640625,0.634979248046875,-0.775787353515625,1,0.83
2020-05-19 10:07:29.737 -0400,1589897248.999791,41.35199815261302,-71.84495028480885,20.7958,0,-1,3.46063881129055,4.674239622717086,-9999,64063.71287266667,-0.0214691162109375,0.6618804931640625,-0.7657318115234375,1,0.83
2020-05-19 10:07:29.787 -0400,1589897248.999791,41.35199815261302,-71.84495028480885,20.7958,0,-1,3.46063881129055,4.674239622717086,-9999,64063.76275966667,-0.017974853515625,0.71844482421875,-0.740631103515625,1,0.83
2020-05-19 10:07:29.837 -0400,1589897248.999791,41.35199815261302,-71.84495028480885,20.7958,0,-1,3.46063881129055,4.674239622717086,-9999,64063.81264666667,-0.0306854248046875,0.5220184326171875,-0.6732177734375,1,0.83
2020-05-19 10:07:29.887 -0400,1589897248.999791,41.35199815261302,-71.84495028480885,20.7958,0,-1,3.46063881129055,4.674239622717086,-9999,64063.86253329167,0.067962646484375,0.5823822021484375,-0.8148345947265625,1,0.83
2020-05-19 10:07:29.937 -0400,1589897248.999791,41.35199815261302,-71.84495028480885,20.7958,0,-1,3.46063881129055,4.674239622717086,-9999,64063.91242129167,0.007568359375,0.6812896728515625,-0.821258544921875,1,0.83
2020-05-19 10:07:29.987 -0400,1589897248.999791,41.35199815261302,-71.84495028480885,20.7958,0,-1,3.46063881129055,4.674239622717086,-9999,64063.96231129167,0.00775146484375,0.686004638671875,-0.9390869140625,1,0.83
2020-05-19 10:07:30.036 -0400,1589897248.999791,41.35199815261302,-71.84495028480885,20.7958,0,-1,3.46063881129055,4.674239622717086,-9999,64064.01220029167,0.0408782958984375,0.455352783203125,-0.94219970703125,1,0.83
2020-05-19 10:07:30.086 -0400,1589897248.999791,41.35199815261302,-71.84495028480885,20.7958,0,-1,3.46063881129055,4.674239622717086,-9999,64064.06208929167,0.037506103515625,0.5096435546875,-0.818084716796875,1,0.83
2020-05-19 10:07:30.136 -0400,1589897248.999791,41.35199815261302,-71.84495028480885,20.7958,0,-1,3.46063881129055,4.674239622717086,-9999,64064.11197829167,0.0658111572265625,0.4656524658203125,-0.92047119140625,1,0.83
2020-05-19 10:07:30.186 -0400,1589897248.999791,41.35199815261302,-71.84495028480885,20.7958,0,-1,3.46063881129055,4.674239622717086,-9999,64064.16186629167,0.01458740234375,0.427581787109375,-0.8886566162109375,1,0.83
2020-05-19 10:07:30.236 -0400,1589897249.999796,41.35199773945558,-71.84495045831699,20.61551,0,-1,3.456632277046319,4.677203259862716,-9999,64064.21175429167,0.0211944580078125,0.46844482421875,-0.879241943359375,1,0.83
2020-05-19 10:07:30.286 -0400,1589897249.999796,41.35199773945558,-71.84495045831699,20.61551,0,-1,3.456632277046319,4.677203259862716,-9999,64064.26164229167,0.0542755126953125,0.531524658203125,-0.8906097412109375,1,0.83
2020-05-19 10:07:30.336 -0400,1589897249.999796,41.35199773945558,-71.84495045831699,20.61551,0,-1,3.456632277046319,4.677203259862716,-9999,64064.31153029167,0.0303802490234375,0.5176239013671875,-0.859649658203125,1,0.83
2020-05-19 10:07:30.392 -0400,1589897249.999796,41.35199773945558,-71.84495045831699,20.61551,0,-1,3.456632277046319,4.677203259862716,-9999,64064.36141829167,0.022491455078125,0.4963531494140625,-0.8526763916015625,1,0.83
2020-05-19 10:07:30.435 -0400,1589897249.999796,41.35199773945558,-71.84495045831699,20.61551,0,-1,3.456632277046319,4.677203259862716,-9999,64064.41130429167,0.032623291015625,0.53680419921875,-0.8549652099609375,1,0.83
2020-05-19 10:07:30.485 -0400,1589897249.999796,41.35199773945558,-71.84495045831699,20.61551,0,-1,3.456632277046319,4.677203259862716,-9999,64064.46119229167,0.0438690185546875,0.5236053466796875,-0.8886566162109375,1,0.83
2020-05-19 10:07:30.535 -0400,1589897249.999796,41.35199773945558,-71.84495045831699,20.61551,0,-1,3.456632277046319,4.677203259862716,-9999,64064.51108129167,0.02154541015625,0.5313568115234375,-0.8501434326171875,1,0.83
2020-05-19 10:07:30.585 -0400,1589897249.999796,41.35199773945558,-71.84495045831699,20.61551,0,-1,3.456632277046319,4.677203259862716,-9999,64064.56096829167,0.0284423828125,0.53265380859375,-0.883026123046875,1,0.83
2020-05-19 10:07:30.635 -0400,1589897249.999796,41.35199773945558,-71.84495045831699,20.61551,0,-1,3.456632277046319,4.677203259862716,-9999,64064.61085429167,-0.0044708251953125,0.53564453125,-0.8104400634765625,1,0.83
2020-05-19 10:07:30.685 -0400,1589897249.999796,41.35199773945558,-71.84495045831699,20.61551,0,-1,3.456632277046319,4.677203259862716,-9999,64064.66073729167,0.0152587890625,0.563690185546875,-0.8568115234375,1,0.83
2020-05-19 10:07:30.735 -0400,1589897249.999796,41.35199773945558,-71.84495045831699,20.61551,0,-1,3.456632277046319,4.677203259862716,-9999,64064.71062329167,0.0116119384765625,0.60504150390625,-0.803741455078125,1,0.83
2020-05-19 10:07:30.785 -0400,1589897249.999796,41.35199773945558,-71.84495045831699,20.61551,0,-1,3.456632277046319,4.677203259862716,-9999,64064.76051029167,-0.0020294189453125,0.542510986328125,-0.81982421875,1,0.83
2020-05-19 10:07:30.835 -0400,1589897249.999796,41.35199773945558,-71.84495045831699,20.61551,0,-1,3.456632277046319,4.677203259862716,-9999,64064.81039729167,-0.0272674560546875,0.674957275390625,-0.7572479248046875,1,0.83
2020-05-19 10:07:30.892 -0400,1589897249.999796,41.35199773945558,-71.84495045831699,20.61551,0,-1,3.456632277046319,4.677203259862716,-9999,64064.86028691667,-0.016632080078125,0.5885467529296875,-0.759429931640625,1,0.83
2020-05-19 10:07:30.934 -0400,1589897249.999796,41.35199773945558,-71.84495045831699,20.61551,0,-1,3.456632277046319,4.677203259862716,-9999,64064.91017191667,-0.00494384765625,0.6136627197265625,-0.817718505859375,1,0.83
2020-05-19 10:07:30.984 -0400,1589897249.999796,41.35199773945558,-71.84495045831699,20.61551,0,-1,3.456632277046319,4.677203259862716,-9999,64064.96005591667,0.0014495849609375,0.5877838134765625,-0.82177734375,1,0.83
2020-05-19 10:07:31.034 -0400,1589897249.999796,41.35199773945558,-71.84495045831699,20.61551,0,-1,3.456632277046319,4.677203259862716,-9999,64065.00994191667,0.00128173828125,0.537750244140625,-0.82305908203125,1,0.83
2020-05-19 10:07:31.084 -0400,1589897249.999796,41.35199773945558,-71.84495045831699,20.61551,0,-1,3.456632277046319,4.677203259862716,-9999,64065.05982891667,0.005523681640625,0.611297607421875,-0.816314697265625,1,0.83
2020-05-19 10:07:31.134 -0400,1589897249.999796,41.35199773945558,-71.84495045831699,20.61551,0,-1,3.456632277046319,4.677203259862716,-9999,64065.10971791667,0.0062255859375,0.593994140625,-0.822235107421875,1,0.83
2020-05-19 10:07:31.184 -0400,1589897249.999796,41.35199773945558,-71.84495045831699,20.61551,0,-1,3.456632277046319,4.677203259862716,-9999,64065.15960391667,-0.0131683349609375,0.5958404541015625,-0.7867889404296875,1,0.83
2020-05-19 10:07:31.234 -0400,1589897250.999801,41.35199199485999,-71.84495381776388,22.20592,0.5478078,-1,3.47123453431208,4.666376307220414,-9999,64065.20948591667,-0.0145263671875,0.6125946044921875,-0.7802886962890625,1,0.83
2020-05-19 10:07:31.283 -0400,1589897250.999801,41.35199199485999,-71.84495381776388,22.20592,0.5478078,-1,3.47123453431208,4.666376307220414,-9999,64065.25936991667,0.0193023681640625,0.574310302734375,-0.86328125,1,0.83
2020-05-19 10:07:31.333 -0400,1589897250.999801,41.35199199485999,-71.84495381776388,22.20592,0.5478078,-1,3.47123453431208,4.666376307220414,-9999,64065.30925391667,-0.0065155029296875,0.64141845703125,-0.7860260009765625,1,0.83
2020-05-19 10:07:31.392 -0400,1589897250.999801,41.35199199485999,-71.84495381776388,22.20592,0.5478078,-1,3.47123453431208,4.666376307220414,-9999,64065.35913991667,0.018218994140625,0.5254364013671875,-0.8207244873046875,1,0.83
2020-05-19 10:07:31.433 -0400,1589897250.999801,41.35199199485999,-71.84495381776388,22.20592,0.5478078,-1,3.47123453431208,4.666376307220414,-9999,64065.40902591667,-0.005279541015625,0.5908050537109375,-0.786865234375,1,0.83
2020-05-19 10:07:31.483 -0400,1589897250.999801,41.35199199485999,-71.84495381776388,22.20592,0.5478078,-1,3.47123453431208,4.666376307220414,-9999,64065.45891191667,0.0552215576171875,0.6078643798828125,-0.87774658203125,1,0.83
2020-05-19 10:07:31.533 -0400,1589897250.999801,41.35199199485999,-71.84495381776388,22.20592,0.5478078,-1,3.47123453431208,4.666376307220414,-9999,64065.50879791667,0.015869140625,0.5579376220703125,-0.7925872802734375,1,0.83
2020-05-19 10:07:31.583 -0400,1589897250.999801,41.35199199485999,-71.84495381776388,22.20592,0.5478078,-1,3.47123453431208,4.666376307220414,-9999,64065.55868491667,0.04461669921875,0.568603515625,-0.8557281494140625,1,0.83
2020-05-19 10:07:31.633 -0400,1589897250.999801,41.35199199485999,-71.84495381776388,22.20592,0.5478078,-1,3.47123453431208,4.666376307220414,-9999,64065.60857091667,0.02008056640625,0.602569580078125,-0.833892822265625,1,0.83
2020-05-19 10:07:31.683 -0400,1589897250.999801,41.35199199485999,-71.84495381776388,22.20592,0.5478078,-1,3.47123453431208,4.666376307220414,-9999,64065.65845591667,0.0222625732421875,0.5410614013671875,-0.8087615966796875,1,0.83
2020-05-19 10:07:31.733 -0400,1589897250.999801,41.35199199485999,-71.84495381776388,22.20592,0.5478078,-1,3.47123453431208,4.666376307220414,-9999,64065.70833891667,0.032745361328125,0.52886962890625,-0.87274169921875,1,0.83
2020-05-19 10:07:31.782 -0400,1589897250.999801,41.35199199485999,-71.84495381776388,22.20592,0.5478078,-1,3.47123453431208,4.666376307220414,-9999,64065.75822491667,0.021697998046875,0.55828857421875,-0.8198699951171875,1,0.83
2020-05-19 10:07:31.832 -0400,1589897250.999801,41.35199199485999,-71.84495381776388,22.20592,0.5478078,-1,3.47123453431208,4.666376307220414,-9999,64065.80811191667,0.0272064208984375,0.5609130859375,-0.821868896484375,1,0.83
2020-05-19 10:07:31.892 -0400,1589897250.999801,41.35199199485999,-71.84495381776388,22.20592,0.5478078,-1,3.47123453431208,4.666376307220414,-9999,64065.85799987501,0.026641845703125,0.545623779296875,-0.8560943603515625,1,0.83
2020-05-19 10:07:31.932 -0400,1589897250.999801,41.35199199485999,-71.84495381776388,22.20592,0.5478078,-1,3.47123453431208,4.666376307220414,-9999,64065.907886875,0.027557373046875,0.5537872314453125,-0.84649658203125,1,0.83
2020-05-19 10:07:31.982 -0400,1589897250.999801,41.35199199485999,-71.84495381776388,22.20592,0.5478078,-1,3.47123453431208,4.666376307220414,-9999,64065.957770875,0.029937744140625,0.54638671875,-0.82794189453125,1,0.83
2020-05-19 10:07:32.032 -0400,1589897250.999801,41.35199199485999,-71.84495381776388,22.20592,0.5478078,-1,3.47123453431208,4.666376307220414,-9999,64066.007656875,0.0321502685546875,0.5447845458984375,-0.852630615234375,1,0.83
2020-05-19 10:07:32.082 -0400,1589897250.999801,41.35199199485999,-71.84495381776388,22.20592,0.5478078,-1,3.47123453431208,4.666376307220414,-9999,64066.057538875,0.0135955810546875,0.527618408203125,-0.837493896484375,1,0.83
2020-05-19 10:07:32.131 -0400,1589897250.999801,41.35199199485999,-71.84495381776388,22.20592,0.5478078,-1,3.47123453431208,4.666376307220414,-9999,64066.107424875,0.0169525146484375,0.5247344970703125,-0.8392181396484375,1,0.83
2020-05-19 10:07:32.181 -0400,1589897250.999801,41.35199199485999,-71.84495381776388,22.20592,0.5478078,-1,3.47123453431208,4.666376307220414,-9999,64066.157312875,0.034515380859375,0.547088623046875,-0.85076904296875,1,0.83
2020-05-19 10:07:32.231 -0400,1589897251.999809,41.35199438482537,-71.84495249523904,19.73333,0.6505589,-1,3.477889227291017,4.661418620493329,-9999,64066.207199875,0.0283355712890625,0.566192626953125,-0.8294219970703125,1,0.83
2020-05-19 10:07:32.281 -0400,1589897251.999809,41.35199438482537,-71.84495249523904,19.73333,0.6505589,-1,3.477889227291017,4.661418620493329,-9999,64066.25708887501,0.02301025390625,0.539093017578125,-0.8544921875,1,0.83
2020-05-19 10:07:32.331 -0400,1589897251.999809,41.35199438482537,-71.84495249523904,19.73333,0.6505589,-1,3.477889227291017,4.661418620493329,-9999,64066.30697787501,0.012359619140625,0.50933837890625,-0.845062255859375,1,0.83
2020-05-19 10:07:32.392 -0400,1589897251.999809,41.35199438482537,-71.84495249523904,19.73333,0.6505589,-1,3.477889227291017,4.661418620493329,-9999,64066.356867875,0.0171356201171875,0.5360870361328125,-0.85455322265625,1,0.83
2020-05-19 10:07:32.431 -0400,1589897251.999809,41.35199438482537,-71.84495249523904,19.73333,0.6505589,-1,3.477889227291017,4.661418620493329,-9999,64066.406759875,0.0144805908203125,0.520599365234375,-0.859344482421875,1,0.83
2020-05-19 10:07:32.481 -0400,1589897251.999809,41.35199438482537,-71.84495249523904,19.73333,0.6505589,-1,3.477889227291017,4.661418620493329,-9999,64066.45665087501,0.0221405029296875,0.514739990234375,-0.8476409912109375,1,0.83
2020-05-19 10:07:32.531 -0400,1589897251.999809,41.35199438482537,-71.84495249523904,19.73333,0.6505589,-1,3.477889227291017,4.661418620493329,-9999,64066.506539875,0.024017333984375,0.54058837890625,-0.85662841796875,1,0.83
2020-05-19 10:07:32.581 -0400,1589897251.999809,41.35199438482537,-71.84495249523904,19.73333,0.6505589,-1,3.477889227291017,4.661418620493329,-9999,64066.556432875,0.017486572265625,0.518218994140625,-0.861328125,1,0.83
2020-05-19 10:07:32.631 -0400,1589897251.999809,41.35199438482537,-71.84495249523904,19.73333,0.6505589,-1,3.477889227291017,4.661418620493329,-9999,64066.60632387501,0.0185394287109375,0.503082275390625,-0.849029541015625,1,0.83
2020-05-19 10:07:32.680 -0400,1589897251.999809,41.35199438482537,-71.84495249523904,19.73333,0.6505589,-1,3.477889227291017,4.661418620493329,-9999,64066.656216875,0.03033447265625,0.5411834716796875,-0.85418701171875,1,0.83
2020-05-19 10:07:32.730 -0400,1589897251.999809,41.35199438482537,-71.84495249523904,19.73333,0.6505589,-1,3.477889227291017,4.661418620493329,-9999,64066.706107875,0.0141448974609375,0.51953125,-0.84332275390625,1,0.83
2020-05-19 10:07:32.780 -0400,1589897251.999809,41.35199438482537,-71.84495249523904,19.73333,0.6505589,-1,3.477889227291017,4.661418620493329,-9999,64066.75599687501,0.0194244384765625,0.5202178955078125,-0.853179931640625,1,0.83
2020-05-19 10:07:32.830 -0400,1589897251.999809,41.35199438482537,-71.84495249523904,19.73333,0.6505589,-1,3.477889227291017,4.661418620493329,-9999,64066.805887875,0.0257568359375,0.5142974853515625,-0.853240966796875,1,0.83
2020-05-19 10:07:32.891 -0400,1589897251.999809,41.35199438482537,-71.84495249523904,19.73333,0.6505589,-1,3.477889227291017,4.661418620493329,-9999,64066.855777875,0.021697998046875,0.529296875,-0.8656005859375,1,0.83
2020-05-19 10:07:32.930 -0400,1589897251.999809,41.35199438482537,-71.84495249523904,19.73333,0.6505589,-1,3.477889227291017,4.661418620493329,-9999,64066.905671375,0.01812744140625,0.5113983154296875,-0.8489227294921875,1,0.83
2020-05-19 10:07:32.980 -0400,1589897251.999809,41.35199438482537,-71.84495249523904,19.73333,0.6505589,-1,3.477889227291017,4.661418620493329,-9999,64066.95556337501,0.0342254638671875,0.493804931640625,-0.8841552734375,1,0.83
2020-05-19 10:07:33.030 -0400,1589897251.999809,41.35199438482537,-71.84495249523904,19.73333,0.6505589,-1,3.477889227291017,4.661418620493329,-9999,64067.005456375,0.023956298828125,0.49420166015625,-0.8701171875,1,0.83
2020-05-19 10:07:33.079 -0400,1589897251.999809,41.35199438482537,-71.84495249523904,19.73333,0.6505589,-1,3.477889227291017,4.661418620493329,-9999,64067.055346375,0.016632080078125,0.5160064697265625,-0.8624420166015625,1,0.83
2020-05-19 10:07:33.129 -0400,1589897251.999809,41.35199438482537,-71.84495249523904,19.73333,0.6505589,-1,3.477889227291017,4.661418620493329,-9999,64067.10523637501,0.01336669921875,0.5180511474609375,-0.844970703125,1,0.83
2020-05-19 10:07:33.179 -0400,1589897251.999809,41.35199438482537,-71.84495249523904,19.73333,0.6505589,-1,3.477889227291017,4.661418620493329,-9999,64067.15512437501,0.0186309814453125,0.5219879150390625,-0.8759307861328125,1,0.83
2020-05-19 10:07:33.229 -0400,1589897252.999815,41.35198615726903,-71.84496147790539,23.01892,0.7924787,-1,3.479813209165165,4.659982517360818,-9999,64067.205015375,0.018829345703125,0.5234375,-0.8470306396484375,1,0.83
2020-05-19 10:07:33.279 -0400,1589897252.999815,41.35198615726903,-71.84496147790539,23.01892,0.7924787,-1,3.479813209165165,4.659982517360818,-9999,64067.254905375,0.0181884765625,0.5065460205078125,-0.870025634765625,1,0.83
2020-05-19 10:07:33.329 -0400,1589897252.999815,41.35198615726903,-71.84496147790539,23.01892,0.7924787,-1,3.479813209165165,4.659982517360818,-9999,64067.30479637501,0.02252197265625,0.5079193115234375,-0.8652801513671875,1,0.83
2020-05-19 10:07:33.390 -0400,1589897252.999815,41.35198615726903,-71.84496147790539,23.01892,0.7924787,-1,3.479813209165165,4.659982517360818,-9999,64067.354687375,0.022491455078125,0.5142974853515625,-0.87200927734375,1,0.83
2020-05-19 10:07:33.429 -0400,1589897252.999815,41.35198615726903,-71.84496147790539,23.01892,0.7924787,-1,3.479813209165165,4.659982517360818,-9999,64067.404578375,0.015289306640625,0.5101318359375,-0.8581085205078125,1,0.83
2020-05-19 10:07:33.479 -0400,1589897252.999815,41.35198615726903,-71.84496147790539,23.01892,0.7924787,-1,3.479813209165165,4.659982517360818,-9999,64067.45447037501,0.0230712890625,0.50872802734375,-0.86151123046875,1,0.83
2020-05-19 10:07:33.529 -0400,1589897252.999815,41.35198615726903,-71.84496147790539,23.01892,0.7924787,-1,3.479813209165165,4.659982517360818,-9999,64067.504360375,0.01422119140625,0.5131378173828125,-0.8691864013671875,1,0.83
2020-05-19 10:07:33.578 -0400,1589897252.999815,41.35198615726903,-71.84496147790539,23.01892,0.7924787,-1,3.479813209165165,4.659982517360818,-9999,64067.554248375,0.019744873046875,0.4903564453125,-0.866485595703125,1,0.83
2020-05-19 10:07:33.628 -0400,1589897252.999815,41.35198615726903,-71.84496147790539,23.01892,0.7924787,-1,3.479813209165165,4.659982517360818,-9999,64067.60413837501,0.028472900390625,0.4951934814453125,-0.8735809326171875,1,0.83
2020-05-19 10:07:33.678 -0400,1589897252.999815,41.35198615726903,-71.84496147790539,23.01892,0.7924787,-1,3.479813209165165,4.659982517360818,-9999,64067.654033375,0.021636962890625,0.48065185546875,-0.856048583984375,1,0.83
2020-05-19 10:07:33.728 -0400,1589897252.999815,41.35198615726903,-71.84496147790539,23.01892,0.7924787,-1,3.479813209165165,4.659982517360818,-9999,64067.703925375,0.0267791748046875,0.5001678466796875,-0.869964599609375,1,0.83
2020-05-19 10:07:33.778 -0400,1589897252.999815,41.35198615726903,-71.84496147790539,23.01892,0.7924787,-1,3.479813209165165,4.659982517360818,-9999,64067.75381537501,0.0212554931640625,0.507537841796875,-0.853546142578125,1,0.83
2020-05-19 10:07:33.828 -0400,1589897252.999815,41.35198615726903,-71.84496147790539,23.01892,0.7924787,-1,3.479813209165165,4.659982517360818,-9999,64067.803707375,0.0191192626953125,0.5128326416015625,-0.869903564453125,1,0.83
2020-05-19 10:07:33.892 -0400,1589897252.999815,41.35198615726903,-71.84496147790539,23.01892,0.7924787,-1,3.479813209165165,4.659982517360818,-9999,64067.853599375,0.0283966064453125,0.5027923583984375,-0.8613128662109375,1,0.83
2020-05-19 10:07:33.928 -0400,1589897252.999815,41.35198615726903,-71.84496147790539,23.01892,0.7924787,-1,3.479813209165165,4.659982517360818,-9999,64067.903493375,0.033294677734375,0.517608642578125,-0.8619537353515625,1,0.83
2020-05-19 10:07:33.978 -0400,1589897252.999815,41.35198615726903,-71.84496147790539,23.01892,0.7924787,-1,3.479813209165165,4.659982517360818,-9999,64067.953382375,0.0320892333984375,0.498992919921875,-0.8725128173828125,1,0.83
2020-05-19 10:07:34.027 -0400,1589897252.999815,41.35198615726903,-71.84496147790539,23.01892,0.7924787,-1,3.479813209165165,4.659982517360818,-9999,64068.003271375,0.0303192138671875,0.5067291259765625,-0.8618316650390625,1,0.83
2020-05-19 10:07:34.078 -0400,1589897252.999815,41.35198615726903,-71.84496147790539,23.01892,0.7924787,-1,3.479813209165165,4.659982517360818,-9999,64068.05316137501,0.0307159423828125,0.5198516845703125,-0.8605499267578125,1,0.83
2020-05-19 10:07:34.127 -0400,1589897252.999815,41.35198615726903,-71.84496147790539,23.01892,0.7924787,-1,3.479813209165165,4.659982517360818,-9999,64068.103055375,0.030303955078125,0.506378173828125,-0.8819732666015625,1,0.83
2020-05-19 10:07:34.177 -0400,1589897252.999815,41.35198615726903,-71.84496147790539,23.01892,0.7924787,-1,3.479813209165165,4.659982517360818,-9999,64068.15295037501,0.036468505859375,0.496673583984375,-0.864044189453125,1,0.83
2020-05-19 10:07:34.227 -0400,1589897253.99982,41.35198544405431,-71.84495859289549,21.11405,0,-1,3.488687387793471,4.65334259893247,-9999,64068.202846375,0.0244903564453125,0.514312744140625,-0.87054443359375,1,0.83
2020-05-19 10:07:34.277 -0400,1589897253.99982,41.35198544405431,-71.84495859289549,21.11405,0,-1,3.488687387793471,4.65334259893247,-9999,64068.25274337501,0.0380096435546875,0.507232666015625,-0.8626861572265625,1,0.83
2020-05-19 10:07:34.327 -0400,1589897253.99982,41.35198544405431,-71.84495859289549,21.11405,0,-1,3.488687387793471,4.65334259893247,-9999,64068.302637375,0.0412445068359375,0.5050506591796875,-0.853179931640625,1,0.83
2020-05-19 10:07:34.391 -0400,1589897253.99982,41.35198544405431,-71.84495859289549,21.11405,0,-1,3.488687387793471,4.65334259893247,-9999,64068.35252937501,0.0331878662109375,0.5007781982421875,-0.8635711669921875,1,0.83
2020-05-19 10:07:34.427 -0400,1589897253.99982,41.35198544405431,-71.84495859289549,21.11405,0,-1,3.488687387793471,4.65334259893247,-9999,64068.402418375,0.0423736572265625,0.508087158203125,-0.8566741943359375,1,0.83
2020-05-19 10:07:34.476 -0400,1589897253.99982,41.35198544405431,-71.84495859289549,21.11405,0,-1,3.488687387793471,4.65334259893247,-9999,64068.452311375,0.0359649658203125,0.5104522705078125,-0.8608245849609375,1,0.83
2020-05-19 10:07:34.526 -0400,1589897253.99982,41.35198544405431,-71.84495859289549,21.11405,0,-1,3.488687387793471,4.65334259893247,-9999,64068.50220637501,0.0292205810546875,0.5156097412109375,-0.865509033203125,1,0.83
2020-05-19 10:07:34.576 -0400,1589897253.99982,41.35198544405431,-71.84495859289549,21.11405,0,-1,3.488687387793471,4.65334259893247,-9999,64068.552099375,0.044952392578125,0.503570556640625,-0.8639678955078125,1,0.83
2020-05-19 10:07:34.626 -0400,1589897253.99982,41.35198544405431,-71.84495859289549,21.11405,0,-1,3.488687387793471,4.65334259893247,-9999,64068.60199337501,0.0400238037109375,0.510101318359375,-0.85711669921875,1,0.83
2020-05-19 10:07:34.676 -0400,1589897253.99982,41.35198544405431,-71.84495859289549,21.11405,0,-1,3.488687387793471,4.65334259893247,-9999,64068.651886375,0.0346832275390625,0.513946533203125,-0.87225341796875,1,0.83
2020-05-19 10:07:34.726 -0400,1589897253.99982,41.35198544405431,-71.84495859289549,21.11405,0,-1,3.488687387793471,4.65334259893247,-9999,64068.701776375,0.0338287353515625,0.495819091796875,-0.8623504638671875,1,0.83
2020-05-19 10:07:34.776 -0400,1589897253.99982,41.35198544405431,-71.84495859289549,21.11405,0,-1,3.488687387793471,4.65334259893247,-9999,64068.751669375,0.026458740234375,0.522216796875,-0.8530731201171875,1,0.83
2020-05-19 10:07:34.826 -0400,1589897253.99982,41.35198544405431,-71.84495859289549,21.11405,0,-1,3.488687387793471,4.65334259893247,-9999,64068.801559375,0.03173828125,0.5083465576171875,-0.85260009765625,1,0.83
2020-05-19 10:07:34.875 -0400,1589897253.99982,41.35198544405431,-71.84495859289549,21.11405,0,-1,3.488687387793471,4.65334259893247,-9999,64068.851450375,0.0330657958984375,0.4924163818359375,-0.854156494140625,1,0.83
2020-05-19 10:07:34.926 -0400,1589897253.99982,41.35198544405431,-71.84495859289549,21.11405,0,-1,3.488687387793471,4.65334259893247,-9999,64068.90134279167,0.0262908935546875,0.49481201171875,-0.8692169189453125,1,0.83
2020-05-19 10:07:34.975 -0400,1589897253.99982,41.35198544405431,-71.84495859289549,21.11405,0,-1,3.488687387793471,4.65334259893247,-9999,64068.95123479167,0.02947998046875,0.4967803955078125,-0.8705902099609375,1,0.83
2020-05-19 10:07:35.025 -0400,1589897253.99982,41.35198544405431,-71.84495859289549,21.11405,0,-1,3.488687387793471,4.65334259893247,-9999,64069.00112479167,0.024749755859375,0.5066070556640625,-0.8531646728515625,1,0.83
2020-05-19 10:07:35.075 -0400,1589897253.99982,41.35198544405431,-71.84495859289549,21.11405,0,-1,3.488687387793471,4.65334259893247,-9999,64069.05102079167,0.0274658203125,0.50885009765625,-0.8574066162109375,1,0.83
2020-05-19 10:07:35.125 -0400,1589897253.99982,41.35198544405431,-71.84495859289549,21.11405,0,-1,3.488687387793471,4.65334259893247,-9999,64069.10091379167,0.032073974609375,0.4983978271484375,-0.8755035400390625,1,0.83
2020-05-19 10:07:35.175 -0400,1589897253.99982,41.35198544405431,-71.84495859289549,21.11405,0,-1,3.488687387793471,4.65334259893247,-9999,64069.15080879167,0.0182647705078125,0.5090179443359375,-0.8620452880859375,1,0.83
2020-05-19 10:07:35.225 -0400,1589897254.999825,41.35198442990481,-71.84495679666024,20.68449,0,-1,3.486157060341768,4.655238552793839,-9999,64069.20070279167,0.0789947509765625,0.5968780517578125,-0.9095916748046875,1,0.83
2020-05-19 10:07:35.275 -0400,1589897254.999825,41.35198442990481,-71.84495679666024,20.68449,0,-1,3.486157060341768,4.655238552793839,-9999,64069.25059779167,0.02886962890625,0.5082855224609375,-0.9078369140625,1,0.83
2020-05-19 10:07:35.325 -0400,1589897254.999825,41.35198442990481,-71.84495679666024,20.68449,0,-1,3.486157060341768,4.655238552793839,-9999,64069.30049079167,0.0751190185546875,0.2668609619140625,-1.0079345703125,1,0.83
2020-05-19 10:07:35.375 -0400,1589897254.999825,41.35198442990481,-71.84495679666024,20.68449,0,-1,3.486157060341768,4.655238552793839,-9999,64069.35038579167,0.0401153564453125,0.1427154541015625,-0.994781494140625,1,0.83
2020-05-19 10:07:35.425 -0400,1589897254.999825,41.35198442990481,-71.84495679666024,20.68449,0,-1,3.486157060341768,4.655238552793839,-9999,64069.40028079167,0.027740478515625,0.0327606201171875,-0.883636474609375,1,0.83
2020-05-19 10:07:35.474 -0400,1589897254.999825,41.35198442990481,-71.84495679666024,20.68449,0,-1,3.486157060341768,4.655238552793839,-9999,64069.45017479167,0.0223541259765625,0.2379302978515625,-0.922271728515625,1,0.83
2020-05-19 10:07:35.524 -0400,1589897254.999825,41.35198442990481,-71.84495679666024,20.68449,0,-1,3.486157060341768,4.655238552793839,-9999,64069.50006779167,0.07073974609375,0.1271820068359375,-0.923858642578125,1,0.83
2020-05-19 10:07:35.574 -0400,1589897254.999825,41.35198442990481,-71.84495679666024,20.68449,0,-1,3.486157060341768,4.655238552793839,-9999,64069.54995979167,0.093963623046875,0.1683197021484375,-1.125717163085938,1,0.83
2020-05-19 10:07:35.624 -0400,1589897254.999825,41.35198442990481,-71.84495679666024,20.68449,0,-1,3.486157060341768,4.655238552793839,-9999,64069.59984979167,0.0192413330078125,-0.0682830810546875,-1.097076416015625,1,0.83
2020-05-19 10:07:35.674 -0400,1589897254.999825,41.35198442990481,-71.84495679666024,20.68449,0,-1,3.486157060341768,4.655238552793839,-9999,64069.64974179167,-0.075653076171875,-0.22662353515625,-0.823760986328125,1,0.83
2020-05-19 10:07:35.724 -0400,1589897254.999825,41.35198442990481,-71.84495679666024,20.68449,0,-1,3.486157060341768,4.655238552793839,-9999,64069.69963279167,0.0353546142578125,-0.357269287109375,-0.828887939453125,1,0.83
2020-05-19 10:07:35.774 -0400,1589897254.999825,41.35198442990481,-71.84495679666024,20.68449,0,-1,3.486157060341768,4.655238552793839,-9999,64069.74952179167,0.0616912841796875,-0.02020263671875,-0.9313812255859375,1,0.83
2020-05-19 10:07:35.824 -0400,1589897254.999825,41.35198442990481,-71.84495679666024,20.68449,0,-1,3.486157060341768,4.655238552793839,-9999,64069.79941279167,0.09844970703125,0.1092987060546875,-0.9358062744140625,1,0.83
2020-05-19 10:07:35.873 -0400,1589897254.999825,41.35198442990481,-71.84495679666024,20.68449,0,-1,3.486157060341768,4.655238552793839,-9999,64069.84930579167,0.0961151123046875,0.3533935546875,-1.182525634765625,1,0.83
2020-05-19 10:07:35.923 -0400,1589897254.999825,41.35198442990481,-71.84495679666024,20.68449,0,-1,3.486157060341768,4.655238552793839,-9999,64069.89919754167,0.094390869140625,0.1641693115234375,-0.874969482421875,1,0.83
2020-05-19 10:07:35.973 -0400,1589897254.999825,41.35198442990481,-71.84495679666024,20.68449,0,-1,3.486157060341768,4.655238552793839,-9999,64069.94908754167,0.0756072998046875,0.28466796875,-1.028182983398438,1,0.83
2020-05-19 10:07:36.023 -0400,1589897254.999825,41.35198442990481,-71.84495679666024,20.68449,0,-1,3.486157060341768,4.655238552793839,-9999,64069.99897554167,0.0581207275390625,0.4418792724609375,-0.95062255859375,1,0.83
2020-05-19 10:07:36.073 -0400,1589897254.999825,41.35198442990481,-71.84495679666024,20.68449,0,-1,3.486157060341768,4.655238552793839,-9999,64070.04886254167,0.0567626953125,0.3749847412109375,-0.851531982421875,1,0.83
2020-05-19 10:07:36.123 -0400,1589897254.999825,41.35198442990481,-71.84495679666024,20.68449,0,-1,3.486157060341768,4.655238552793839,-9999,64070.09874954167,0.0640411376953125,0.442596435546875,-0.912994384765625,1,0.83
2020-05-19 10:07:36.173 -0400,1589897254.999825,41.35198442990481,-71.84495679666024,20.68449,0,-1,3.486157060341768,4.655238552793839,-9999,64070.14863754167,0.092803955078125,0.4094390869140625,-0.87969970703125,1,0.83
2020-05-19 10:07:36.223 -0400,1589897255.999833,41.35197880016658,-71.8449651810346,25.19316,1.833898,-1,3.490497496105293,4.651984980894878,-9999,64070.19852754167,0.073272705078125,0.4228057861328125,-0.937744140625,1,0.83
2020-05-19 10:07:36.273 -0400,1589897255.999833,41.35197880016658,-71.8449651810346,25.19316,1.833898,-1,3.490497496105293,4.651984980894878,-9999,64070.24842154167,0.056396484375,0.478271484375,-0.8767852783203125,1,0.83
2020-05-19 10:07:36.322 -0400,1589897255.999833,41.35197880016658,-71.8449651810346,25.19316,1.833898,-1,3.490497496105293,4.651984980894878,-9999,64070.29831654167,0.059356689453125,0.4498138427734375,-0.91796875,1,0.83
2020-05-19 10:07:36.372 -0400,1589897255.999833,41.35197880016658,-71.8449651810346,25.19316,1.833898,-1,3.490497496105293,4.651984980894878,-9999,64070.34820854167,0.058502197265625,0.549835205078125,-0.83441162109375,1,0.83
2020-05-19 10:07:36.422 -0400,1589897255.999833,41.35197880016658,-71.8449651810346,25.19316,1.833898,-1,3.490497496105293,4.651984980894878,-9999,64070.39809754167,0.063507080078125,0.4840545654296875,-0.8611907958984375,1,0.83
2020-05-19 10:07:36.472 -0400,1589897255.999833,41.35197880016658,-71.8449651810346,25.19316,1.833898,-1,3.490497496105293,4.651984980894878,-9999,64070.44799054167,0.078643798828125,0.509429931640625,-0.867523193359375,1,0.83
2020-05-19 10:07:36.522 -0400,1589897255.999833,41.35197880016658,-71.8449651810346,25.19316,1.833898,-1,3.490497496105293,4.651984980894878,-9999,64070.49788354167,0.0899810791015625,0.5462188720703125,-0.860809326171875,1,0.83
2020-05-19 10:07:36.572 -0400,1589897255.999833,41.35197880016658,-71.8449651810346,25.19316,1.833898,-1,3.490497496105293,4.651984980894878,-9999,64070.54777454167,0.0921783447265625,0.4988555908203125,-0.8361968994140625,1,0.83
2020-05-19 10:07:36.622 -0400,1589897255.999833,41.35197880016658,-71.8449651810346,25.19316,1.833898,-1,3.490497496105293,4.651984980894878,-9999,64070.59766454167,0.0731658935546875,0.5571136474609375,-0.8109588623046875,1,0.83
2020-05-19 10:07:36.672 -0400,1589897255.999833,41.35197880016658,-71.8449651810346,25.19316,1.833898,-1,3.490497496105293,4.651984980894878,-9999,64070.64755554167,0.0894927978515625,0.559600830078125,-0.8132171630859375,1,0.83
2020-05-19 10:07:36.722 -0400,1589897255.999833,41.35197880016658,-71.8449651810346,25.19316,1.833898,-1,3.490497496105293,4.651984980894878,-9999,64070.69744954167,0.0766448974609375,0.6838836669921875,-0.818817138671875,1,0.83
2020-05-19 10:07:36.772 -0400,1589897255.999833,41.35197880016658,-71.8449651810346,25.19316,1.833898,-1,3.490497496105293,4.651984980894878,-9999,64070.74734454167,0.0936126708984375,0.5747222900390625,-0.783111572265625,1,0.83
2020-05-19 10:07:36.821 -0400,1589897255.999833,41.35197880016658,-71.8449651810346,25.19316,1.833898,-1,3.490497496105293,4.651984980894878,-9999,64070.79723754167,0.088043212890625,0.6316375732421875,-0.7863006591796875,1,0.83
2020-05-19 10:07:36.871 -0400,1589897255.999833,41.35197880016658,-71.8449651810346,25.19316,1.833898,-1,3.490497496105293,4.651984980894878,-9999,64070.84712854167,0.0972442626953125,0.5632476806640625,-0.80352783203125,1,0.83
2020-05-19 10:07:36.921 -0400,1589897255.999833,41.35197880016658,-71.8449651810346,25.19316,1.833898,-1,3.490497496105293,4.651984980894878,-9999,64070.89701950001,0.0818939208984375,0.68267822265625,-0.769744873046875,1,0.83
2020-05-19 10:07:36.971 -0400,1589897255.999833,41.35197880016658,-71.8449651810346,25.19316,1.833898,-1,3.490497496105293,4.651984980894878,-9999,64070.9469075,0.086212158203125,0.591888427734375,-0.785552978515625,1,0.83
2020-05-19 10:07:37.021 -0400,1589897255.999833,41.35197880016658,-71.8449651810346,25.19316,1.833898,-1,3.490497496105293,4.651984980894878,-9999,64070.9967935,0.0832672119140625,0.632781982421875,-0.76739501953125,1,0.83
2020-05-19 10:07:37.071 -0400,1589897255.999833,41.35197880016658,-71.8449651810346,25.19316,1.833898,-1,3.490497496105293,4.651984980894878,-9999,64071.0466825,0.0885772705078125,0.609893798828125,-0.7789459228515625,1,0.83
2020-05-19 10:07:37.121 -0400,1589897255.999833,41.35197880016658,-71.8449651810346,25.19316,1.833898,-1,3.490497496105293,4.651984980894878,-9999,64071.09657050001,0.0770416259765625,0.597198486328125,-0.77130126953125,1,0.83
2020-05-19 10:07:37.171 -0400,1589897255.999833,41.35197880016658,-71.8449651810346,25.19316,1.833898,-1,3.490497496105293,4.651984980894878,-9999,64071.14645750001,0.0936126708984375,0.6308135986328125,-0.7884979248046875,1,0.83
2020-05-19 10:07:37.221 -0400,1589897256.999838,41.35198165450355,-71.84495784941861,21.78356,0,-1,3.488081998020883,4.653796408081415,-9999,64071.19634450001,0.0745697021484375,0.63702392578125,-0.7897491455078125,1,0.83
2020-05-19 10:07:37.270 -0400,1589897256.999838,41.35198165450355,-71.84495784941861,21.78356,0,-1,3.488081998020883,4.653796408081415,-9999,64071.2462355,0.0897064208984375,0.62677001953125,-0.77294921875,1,0.83
2020-05-19 10:07:37.320 -0400,1589897256.999838,41.35198165450355,-71.84495784941861,21.78356,0,-1,3.488081998020883,4.653796408081415,-9999,64071.2961255,0.080963134765625,0.617034912109375,-0.77593994140625,1,0.83
2020-05-19 10:07:37.370 -0400,1589897256.999838,41.35198165450355,-71.84495784941861,21.78356,0,-1,3.488081998020883,4.653796408081415,-9999,64071.34601550001,0.0882720947265625,0.6222991943359375,-0.798919677734375,1,0.83
2020-05-19 10:07:37.420 -0400,1589897256.999838,41.35198165450355,-71.84495784941861,21.78356,0,-1,3.488081998020883,4.653796408081415,-9999,64071.3959065,0.0831146240234375,0.6418914794921875,-0.7819366455078125,1,0.83
2020-05-19 10:07:37.470 -0400,1589897256.999838,41.35198165450355,-71.84495784941861,21.78356,0,-1,3.488081998020883,4.653796408081415,-9999,64071.4457975,0.065185546875,0.5912322998046875,-0.7780609130859375,1,0.83
2020-05-19 10:07:37.520 -0400,1589897256.999838,41.35198165450355,-71.84495784941861,21.78356,0,-1,3.488081998020883,4.653796408081415,-9999,64071.49568850001,0.082427978515625,0.5788116455078125,-0.840362548828125,1,0.83
2020-05-19 10:07:37.570 -0400,1589897256.999838,41.35198165450355,-71.84495784941861,21.78356,0,-1,3.488081998020883,4.653796408081415,-9999,64071.5455795,0.088134765625,0.58648681640625,-0.8205413818359375,1,0.83
2020-05-19 10:07:37.620 -0400,1589897256.999838,41.35198165450355,-71.84495784941861,21.78356,0,-1,3.488081998020883,4.653796408081415,-9999,64071.59547550001,0.0945281982421875,0.5486297607421875,-0.823974609375,1,0.83
2020-05-19 10:07:37.669 -0400,1589897256.999838,41.35198165450355,-71.84495784941861,21.78356,0,-1,3.488081998020883,4.653796408081415,-9999,64071.6453715,0.0930328369140625,0.54296875,-0.8430938720703125,1,0.83
2020-05-19 10:07:37.719 -0400,1589897256.999838,41.35198165450355,-71.84495784941861,21.78356,0,-1,3.488081998020883,4.653796408081415,-9999,64071.69526650001,0.0879364013671875,0.559478759765625,-0.828521728515625,1,0.83
2020-05-19 10:07:37.769 -0400,1589897256.999838,41.35198165450355,-71.84495784941861,21.78356,0,-1,3.488081998020883,4.653796408081415,-9999,64071.7451605,0.1027374267578125,0.5170440673828125,-0.843505859375,1,0.83
2020-05-19 10:07:37.819 -0400,1589897256.999838,41.35198165450355,-71.84495784941861,21.78356,0,-1,3.488081998020883,4.653796408081415,-9999,64071.79505350001,0.0898284912109375,0.548675537109375,-0.8521575927734375,1,0.83
2020-05-19 10:07:37.869 -0400,1589897256.999838,41.35198165450355,-71.84495784941861,21.78356,0,-1,3.488081998020883,4.653796408081415,-9999,64071.84494350001,0.084228515625,0.5437164306640625,-0.8360748291015625,1,0.83
2020-05-19 10:07:37.919 -0400,1589897256.999838,41.35198165450355,-71.84495784941861,21.78356,0,-1,3.488081998020883,4.653796408081415,-9999,64071.89483512501,0.0975799560546875,0.5337066650390625,-0.8410186767578125,1,0.83
2020-05-19 10:07:37.969 -0400,1589897256.999838,41.35198165450355,-71.84495784941861,21.78356,0,-1,3.488081998020883,4.653796408081415,-9999,64071.944727125,0.0945587158203125,0.5319366455078125,-0.8491973876953125,1,0.83
2020-05-19 10:07:38.019 -0400,1589897256.999838,41.35198165450355,-71.84495784941861,21.78356,0,-1,3.488081998020883,4.653796408081415,-9999,64071.99461812501,0.085113525390625,0.53759765625,-0.8325347900390625,1,0.83
2020-05-19 10:07:38.068 -0400,1589897256.999838,41.35198165450355,-71.84495784941861,21.78356,0,-1,3.488081998020883,4.653796408081415,-9999,64072.044510125,0.0885772705078125,0.5390777587890625,-0.8334197998046875,1,0.83
2020-05-19 10:07:38.119 -0400,1589897256.999838,41.35198165450355,-71.84495784941861,21.78356,0,-1,3.488081998020883,4.653796408081415,-9999,64072.094400125,0.0947265625,0.534576416015625,-0.8386383056640625,1,0.83
2020-05-19 10:07:38.168 -0400,1589897256.999838,41.35198165450355,-71.84495784941861,21.78356,0,-1,3.488081998020883,4.653796408081415,-9999,64072.144289125,0.089202880859375,0.5333404541015625,-0.83465576171875,1,0.83
2020-05-19 10:07:38.219 -0400,1589897257.999845,41.351982421177,-71.84496190753754,22.27956,0,-1,3.48193908238449,4.658394279078607,-9999,64072.19417912501,0.0867462158203125,0.554779052734375,-0.835174560546875,1,0.83
2020-05-19 10:07:38.268 -0400,1589897257.999845,41.351982421177,-71.84496190753754,22.27956,0,-1,3.48193908238449,4.658394279078607,-9999,64072.244073125,0.0969390869140625,0.5260162353515625,-0.8408660888671875,1,0.83
2020-05-19 10:07:38.318 -0400,1589897257.999845,41.351982421177,-71.84496190753754,22.27956,0,-1,3.48193908238449,4.658394279078607,-9999,64072.29396612501,0.076568603515625,0.558349609375,-0.832916259765625,1,0.83
2020-05-19 10:07:38.368 -0400,1589897257.999845,41.351982421177,-71.84496190753754,22.27956,0,-1,3.48193908238449,4.658394279078607,-9999,64072.343859125,0.09661865234375,0.549346923828125,-0.8317413330078125,1,0.83
2020-05-19 10:07:38.418 -0400,1589897257.999845,41.351982421177,-71.84496190753754,22.27956,0,-1,3.48193908238449,4.658394279078607,-9999,64072.393751125,0.0998077392578125,0.532073974609375,-0.8384857177734375,1,0.83
2020-05-19 10:07:38.468 -0400,1589897257.999845,41.351982421177,-71.84496190753754,22.27956,0,-1,3.48193908238449,4.658394279078607,-9999,64072.44364112501,0.088836669921875,0.5580291748046875,-0.8335418701171875,1,0.83
2020-05-19 10:07:38.518 -0400,1589897257.999845,41.351982421177,-71.84496190753754,22.27956,0,-1,3.48193908238449,4.658394279078607,-9999,64072.493533125,0.086669921875,0.5505828857421875,-0.83013916015625,1,0.83
2020-05-19 10:07:38.568 -0400,1589897257.999845,41.351982421177,-71.84496190753754,22.27956,0,-1,3.48193908238449,4.658394279078607,-9999,64072.54342812501,0.0886077880859375,0.529693603515625,-0.832183837890625,1,0.83
2020-05-19 10:07:38.617 -0400,1589897257.999845,41.351982421177,-71.84496190753754,22.27956,0,-1,3.48193908238449,4.658394279078607,-9999,64072.593319125,0.097503662109375,0.5540313720703125,-0.8380279541015625,1,0.83
2020-05-19 10:07:38.667 -0400,1589897257.999845,41.351982421177,-71.84496190753754,22.27956,0,-1,3.48193908238449,4.658394279078607,-9999,64072.643211125,0.0940399169921875,0.5378570556640625,-0.83050537109375,1,0.83
2020-05-19 10:07:38.717 -0400,1589897257.999845,41.351982421177,-71.84496190753754,22.27956,0,-1,3.48193908238449,4.658394279078607,-9999,64072.69310112501,0.08673095703125,0.53857421875,-0.8341827392578125,1,0.83
2020-05-19 10:07:38.767 -0400,1589897257.999845,41.351982421177,-71.84496190753754,22.27956,0,-1,3.48193908238449,4.658394279078607,-9999,64072.742993125,0.10662841796875,0.5307159423828125,-0.8307952880859375,1,0.83
2020-05-19 10:07:38.817 -0400,1589897257.999845,41.351982421177,-71.84496190753754,22.27956,0,-1,3.48193908238449,4.658394279078607,-9999,64072.792884125,0.098968505859375,0.571563720703125,-0.825714111328125,1,0.83
2020-05-19 10:07:38.867 -0400,1589897257.999845,41.351982421177,-71.84496190753754,22.27956,0,-1,3.48193908238449,4.658394279078607,-9999,64072.842781125,0.0899505615234375,0.53985595703125,-0.8333892822265625,1,0.83
2020-05-19 10:07:38.917 -0400,1589897257.999845,41.351982421177,-71.84496190753754,22.27956,0,-1,3.48193908238449,4.658394279078607,-9999,64072.892672875,0.10040283203125,0.5678863525390625,-0.8305511474609375,1,0.83
2020-05-19 10:07:38.967 -0400,1589897257.999845,41.351982421177,-71.84496190753754,22.27956,0,-1,3.48193908238449,4.658394279078607,-9999,64072.942567875,0.104522705078125,0.525909423828125,-0.8217315673828125,1,0.83
2020-05-19 10:07:39.016 -0400,1589897257.999845,41.351982421177,-71.84496190753754,22.27956,0,-1,3.48193908238449,4.658394279078607,-9999,64072.99245887501,0.0979766845703125,0.553619384765625,-0.836456298828125,1,0.83
2020-05-19 10:07:39.066 -0400,1589897257.999845,41.351982421177,-71.84496190753754,22.27956,0,-1,3.48193908238449,4.658394279078607,-9999,64073.042350875,0.1046905517578125,0.559814453125,-0.8327789306640625,1,0.83
2020-05-19 10:07:39.116 -0400,1589897257.999845,41.351982421177,-71.84496190753754,22.27956,0,-1,3.48193908238449,4.658394279078607,-9999,64073.09224487501,0.09942626953125,0.566680908203125,-0.8286285400390625,1,0.83
2020-05-19 10:07:39.166 -0400,1589897257.999845,41.351982421177,-71.84496190753754,22.27956,0,-1,3.48193908238449,4.658394279078607,-9999,64073.142139875,0.1050872802734375,0.556671142578125,-0.831939697265625,1,0.83
2020-05-19 10:07:39.216 -0400,1589897258.999849,41.35198178167682,-71.84496116313061,22.05122,0,-1,3.483185651904439,4.657462264705521,-9999,64073.19203587501,0.0989837646484375,0.532257080078125,-0.8291168212890625,1,0.83
2020-05-19 10:07:39.266 -0400,1589897258.999849,41.35198178167682,-71.84496116313061,22.05122,0,-1,3.483185651904439,4.657462264705521,-9999,64073.241926875,0.1016693115234375,0.54498291015625,-0.8210296630859375,1,0.83
2020-05-19 10:07:39.316 -0400,1589897258.999849,41.35198178167682,-71.84496116313061,22.05122,0,-1,3.483185651904439,4.657462264705521,-9999,64073.291816875,0.1034088134765625,0.5513458251953125,-0.838775634765625,1,0.83
2020-05-19 10:07:39.366 -0400,1589897258.999849,41.35198178167682,-71.84496116313061,22.05122,0,-1,3.483185651904439,4.657462264705521,-9999,64073.34170787501,0.1016082763671875,0.538818359375,-0.83050537109375,1,0.83
2020-05-19 10:07:39.416 -0400,1589897258.999849,41.35198178167682,-71.84496116313061,22.05122,0,-1,3.483185651904439,4.657462264705521,-9999,64073.391600875,0.09844970703125,0.56011962890625,-0.8356170654296875,1,0.83
2020-05-19 10:07:39.466 -0400,1589897258.999849,41.35198178167682,-71.84496116313061,22.05122,0,-1,3.483185651904439,4.657462264705521,-9999,64073.441492875,0.0944976806640625,0.5489349365234375,-0.8253631591796875,1,0.83
2020-05-19 10:07:39.515 -0400,1589897258.999849,41.35198178167682,-71.84496116313061,22.05122,0,-1,3.483185651904439,4.657462264705521,-9999,64073.49138287501,0.0774078369140625,0.5605926513671875,-0.828887939453125,1,0.83
2020-05-19 10:07:39.565 -0400,1589897258.999849,41.35198178167682,-71.84496116313061,22.05122,0,-1,3.483185651904439,4.657462264705521,-9999,64073.541275875,0.111480712890625,0.516937255859375,-0.83984375,1,0.83
2020-05-19 10:07:39.615 -0400,1589897258.999849,41.35198178167682,-71.84496116313061,22.05122,0,-1,3.483185651904439,4.657462264705521,-9999,64073.59116687501,0.09954833984375,0.5424041748046875,-0.839080810546875,1,0.83
2020-05-19 10:07:39.665 -0400,1589897258.999849,41.35198178167682,-71.84496116313061,22.05122,0,-1,3.483185651904439,4.657462264705521,-9999,64073.641061875,0.1025238037109375,0.52978515625,-0.834991455078125,1,0.83
2020-05-19 10:07:39.715 -0400,1589897258.999849,41.35198178167682,-71.84496116313061,22.05122,0,-1,3.483185651904439,4.657462264705521,-9999,64073.69095687501,0.0999908447265625,0.5390625,-0.8416900634765625,1,0.83
2020-05-19 10:07:39.765 -0400,1589897258.999849,41.35198178167682,-71.84496116313061,22.05122,0,-1,3.483185651904439,4.657462264705521,-9999,64073.740849875,0.0909881591796875,0.5546112060546875,-0.8423309326171875,1,0.83
2020-05-19 10:07:39.815 -0400,1589897258.999849,41.35198178167682,-71.84496116313061,22.05122,0,-1,3.483185651904439,4.657462264705521,-9999,64073.790744875,0.10321044921875,0.5311279296875,-0.8368682861328125,1,0.83
2020-05-19 10:07:39.865 -0400,1589897258.999849,41.35198178167682,-71.84496116313061,22.05122,0,-1,3.483185651904439,4.657462264705521,-9999,64073.840639875,0.096221923828125,0.5367431640625,-0.837158203125,1,0.83
2020-05-19 10:07:39.915 -0400,1589897258.999849,41.35198178167682,-71.84496116313061,22.05122,0,-1,3.483185651904439,4.657462264705521,-9999,64073.89053587501,0.0953216552734375,0.5313873291015625,-0.8415069580078125,1,0.83
2020-05-19 10:07:39.965 -0400,1589897258.999849,41.35198178167682,-71.84496116313061,22.05122,0,-1,3.483185651904439,4.657462264705521,-9999,64073.940430875,0.0936431884765625,0.5316925048828125,-0.84112548828125,1,0.83
2020-05-19 10:07:40.015 -0400,1589897258.999849,41.35198178167682,-71.84496116313061,22.05122,0,-1,3.483185651904439,4.657462264705521,-9999,64073.99032587501,0.0871124267578125,0.5235443115234375,-0.8393402099609375,1,0.83
2020-05-19 10:07:40.064 -0400,1589897258.999849,41.35198178167682,-71.84496116313061,22.05122,0,-1,3.483185651904439,4.657462264705521,-9999,64074.040218875,0.0910186767578125,0.5421905517578125,-0.8427886962890625,1,0.83
2020-05-19 10:07:40.114 -0400,1589897258.999849,41.35198178167682,-71.84496116313061,22.05122,0,-1,3.483185651904439,4.657462264705521,-9999,64074.09011587501,0.0985260009765625,0.5337066650390625,-0.84307861328125,1,0.83
2020-05-19 10:07:40.164 -0400,1589897258.999849,41.35198178167682,-71.84496116313061,22.05122,0,-1,3.483185651904439,4.657462264705521,-9999,64074.140011875,0.103790283203125,0.53973388671875,-0.8445281982421875,1,0.83
2020-05-19 10:07:40.214 -0400,1589897258.999849,41.35198178167682,-71.84496116313061,22.05122,0,-1,3.483185651904439,4.657462264705521,-9999,64074.18990387501,0.09783935546875,0.5484161376953125,-0.8403472900390625,1,0.83
2020-05-19 10:07:40.264 -0400,1589897259.999854,41.35198371626348,-71.84496092392489,21.44915,0,-1,3.478932524440356,4.660640033641291,-9999,64074.239798875,0.1014404296875,0.537689208984375,-0.842254638671875,1,0.83
2020-05-19 10:07:40.314 -0400,1589897259.999854,41.35198371626348,-71.84496092392489,21.44915,0,-1,3.478932524440356,4.660640033641291,-9999,64074.28969287501,0.089874267578125,0.5362091064453125,-0.8308258056640625,1,0.83
2020-05-19 10:07:40.364 -0400,1589897259.999854,41.35198371626348,-71.84496092392489,21.44915,0,-1,3.478932524440356,4.660640033641291,-9999,64074.33958287501,0.0908050537109375,0.5330810546875,-0.83612060546875,1,0.83
2020-05-19 10:07:40.414 -0400,1589897259.999854,41.35198371626348,-71.84496092392489,21.44915,0,-1,3.478932524440356,4.660640033641291,-9999,64074.389471875,0.105377197265625,0.51934814453125,-0.845947265625,1,0.83
2020-05-19 10:07:40.464 -0400,1589897259.999854,41.35198371626348,-71.84496092392489,21.44915,0,-1,3.478932524440356,4.660640033641291,-9999,64074.439362875,0.094451904296875,0.5373077392578125,-0.839324951171875,1,0.83
2020-05-19 10:07:40.513 -0400,1589897259.999854,41.35198371626348,-71.84496092392489,21.44915,0,-1,3.478932524440356,4.660640033641291,-9999,64074.48925287501,0.0943756103515625,0.5301971435546875,-0.8433074951171875,1,0.83
2020-05-19 10:07:40.563 -0400,1589897259.999854,41.35198371626348,-71.84496092392489,21.44915,0,-1,3.478932524440356,4.660640033641291,-9999,64074.539142875,0.1085205078125,0.5325927734375,-0.841033935546875,1,0.83
2020-05-19 10:07:40.613 -0400,1589897259.999854,41.35198371626348,-71.84496092392489,21.44915,0,-1,3.478932524440356,4.660640033641291,-9999,64074.589034875,0.0914459228515625,0.534027099609375,-0.836090087890625,1,0.83
2020-05-19 10:07:40.663 -0400,1589897259.999854,41.35198371626348,-71.84496092392489,21.44915,0,-1,3.478932524440356,4.660640033641291,-9999,64074.63892887501,0.0966796875,0.5464630126953125,-0.8411407470703125,1,0.83
2020-05-19 10:07:40.713 -0400,1589897259.999854,41.35198371626348,-71.84496092392489,21.44915,0,-1,3.478932524440356,4.660640033641291,-9999,64074.688822875,0.100830078125,0.5242156982421875,-0.839813232421875,1,0.83
2020-05-19 10:07:40.763 -0400,1589897259.999854,41.35198371626348,-71.84496092392489,21.44915,0,-1,3.478932524440356,4.660640033641291,-9999,64074.73871587501,0.0958251953125,0.5345611572265625,-0.8348541259765625,1,0.83
2020-05-19 10:07:40.813 -0400,1589897259.999854,41.35198371626348,-71.84496092392489,21.44915,0,-1,3.478932524440356,4.660640033641291,-9999,64074.788608875,0.105682373046875,0.537750244140625,-0.8451385498046875,1,0.83
2020-05-19 10:07:40.863 -0400,1589897259.999854,41.35198371626348,-71.84496092392489,21.44915,0,-1,3.478932524440356,4.660640033641291,-9999,64074.838500875,0.10089111328125,0.5323638916015625,-0.8378143310546875,1,0.83
2020-05-19 10:07:40.913 -0400,1589897259.999854,41.35198371626348,-71.84496092392489,21.44915,0,-1,3.478932524440356,4.660640033641291,-9999,64074.88839529167,0.0957794189453125,0.553955078125,-0.8425140380859375,1,0.83
2020-05-19 10:07:40.963 -0400,1589897259.999854,41.35198371626348,-71.84496092392489,21.44915,0,-1,3.478932524440356,4.660640033641291,-9999,64074.93828529167,0.0942230224609375,0.534088134765625,-0.831268310546875,1,0.83
2020-05-19 10:07:41.012 -0400,1589897259.999854,41.35198371626348,-71.84496092392489,21.44915,0,-1,3.478932524440356,4.660640033641291,-9999,64074.98817429167,0.103546142578125,0.5584716796875,-0.827667236328125,1,0.83
2020-05-19 10:07:41.062 -0400,1589897259.999854,41.35198371626348,-71.84496092392489,21.44915,0,-1,3.478932524440356,4.660640033641291,-9999,64075.03806329167,0.0982818603515625,0.516204833984375,-0.8543243408203125,1,0.83
2020-05-19 10:07:41.112 -0400,1589897259.999854,41.35198371626348,-71.84496092392489,21.44915,0,-1,3.478932524440356,4.660640033641291,-9999,64075.08795229167,0.101654052734375,0.513671875,-0.843536376953125,1,0.83
2020-05-19 10:07:41.162 -0400,1589897259.999854,41.35198371626348,-71.84496092392489,21.44915,0,-1,3.478932524440356,4.660640033641291,-9999,64075.13784129167,0.102691650390625,0.5087738037109375,-0.845611572265625,1,0.83
2020-05-19 10:07:41.212 -0400,1589897260.999859,41.35198308968076,-71.84496352746061,22.16447,0.4549254,-1,3.474763615656491,4.663749012125189,-9999,64075.18773129167,0.1006011962890625,0.5286865234375,-0.845062255859375,1,0.83
2020-05-19 10:07:41.262 -0400,1589897260.999859,41.35198308968076,-71.84496352746061,22.16447,0.4549254,-1,3.474763615656491,4.663749012125189,-9999,64075.23762029167,0.1000518798828125,0.5250396728515625,-0.847015380859375,1,0.83
2020-05-19 10:07:41.312 -0400,1589897260.999859,41.35198308968076,-71.84496352746061,22.16447,0.4549254,-1,3.474763615656491,4.663749012125189,-9999,64075.28750829167,0.097320556640625,0.53155517578125,-0.83856201171875,1,0.83
2020-05-19 10:07:41.362 -0400,1589897260.999859,41.35198308968076,-71.84496352746061,22.16447,0.4549254,-1,3.474763615656491,4.663749012125189,-9999,64075.33739629167,0.1048126220703125,0.5285797119140625,-0.845947265625,1,0.83
2020-05-19 10:07:41.412 -0400,1589897260.999859,41.35198308968076,-71.84496352746061,22.16447,0.4549254,-1,3.474763615656491,4.663749012125189,-9999,64075.38728529167,0.105133056640625,0.5313568115234375,-0.8439483642578125,1,0.83
2020-05-19 10:07:41.461 -0400,1589897260.999859,41.35198308968076,-71.84496352746061,22.16447,0.4549254,-1,3.474763615656491,4.663749012125189,-9999,64075.43717529167,0.100555419921875,0.5215911865234375,-0.856842041015625,1,0.83
2020-05-19 10:07:41.511 -0400,1589897260.999859,41.35198308968076,-71.84496352746061,22.16447,0.4549254,-1,3.474763615656491,4.663749012125189,-9999,64075.48706329167,0.0964508056640625,0.527191162109375,-0.8526611328125,1,0.83
2020-05-19 10:07:41.561 -0400,1589897260.999859,41.35198308968076,-71.84496352746061,22.16447,0.4549254,-1,3.474763615656491,4.663749012125189,-9999,64075.53695329167,0.105682373046875,0.521148681640625,-0.84674072265625,1,0.83
2020-05-19 10:07:41.611 -0400,1589897260.999859,41.35198308968076,-71.84496352746061,22.16447,0.4549254,-1,3.474763615656491,4.663749012125189,-9999,64075.58684529167,0.109039306640625,0.5195159912109375,-0.8525848388671875,1,0.83
2020-05-19 10:07:41.661 -0400,1589897260.999859,41.35198308968076,-71.84496352746061,22.16447,0.4549254,-1,3.474763615656491,4.663749012125189,-9999,64075.63673529167,0.105743408203125,0.5053863525390625,-0.86041259765625,1,0.83
2020-05-19 10:07:41.711 -0400,1589897260.999859,41.35198308968076,-71.84496352746061,22.16447,0.4549254,-1,3.474763615656491,4.663749012125189,-9999,64075.68662429167,0.1081085205078125,0.52667236328125,-0.833221435546875,1,0.83
2020-05-19 10:07:41.761 -0400,1589897260.999859,41.35198308968076,-71.84496352746061,22.16447,0.4549254,-1,3.474763615656491,4.663749012125189,-9999,64075.73651329167,0.0943603515625,0.5303955078125,-0.8388214111328125,1,0.83
2020-05-19 10:07:41.811 -0400,1589897260.999859,41.35198308968076,-71.84496352746061,22.16447,0.4549254,-1,3.474763615656491,4.663749012125189,-9999,64075.78639929167,0.118682861328125,0.5178375244140625,-0.8471527099609375,1,0.83
2020-05-19 10:07:41.860 -0400,1589897260.999859,41.35198308968076,-71.84496352746061,22.16447,0.4549254,-1,3.474763615656491,4.663749012125189,-9999,64075.83628929167,0.1156463623046875,0.5330352783203125,-0.8380889892578125,1,0.83
2020-05-19 10:07:41.911 -0400,1589897260.999859,41.35198308968076,-71.84496352746061,22.16447,0.4549254,-1,3.474763615656491,4.663749012125189,-9999,64075.88617904167,0.1130523681640625,0.5420379638671875,-0.8400115966796875,1,0.83
2020-05-19 10:07:41.960 -0400,1589897260.999859,41.35198308968076,-71.84496352746061,22.16447,0.4549254,-1,3.474763615656491,4.663749012125189,-9999,64075.93606804167,0.1055450439453125,0.538055419921875,-0.838470458984375,1,0.83
2020-05-19 10:07:42.010 -0400,1589897260.999859,41.35198308968076,-71.84496352746061,22.16447,0.4549254,-1,3.474763615656491,4.663749012125189,-9999,64075.98595904167,0.1048126220703125,0.5395355224609375,-0.83990478515625,1,0.83
2020-05-19 10:07:42.060 -0400,1589897260.999859,41.35198308968076,-71.84496352746061,22.16447,0.4549254,-1,3.474763615656491,4.663749012125189,-9999,64076.03585004167,0.110198974609375,0.5347900390625,-0.8245697021484375,1,0.83
2020-05-19 10:07:42.110 -0400,1589897260.999859,41.35198308968076,-71.84496352746061,22.16447,0.4549254,-1,3.474763615656491,4.663749012125189,-9999,64076.08574104167,0.1056365966796875,0.5496826171875,-0.8468017578125,1,0.83
2020-05-19 10:07:42.160 -0400,1589897260.999859,41.35198308968076,-71.84496352746061,22.16447,0.4549254,-1,3.474763615656491,4.663749012125189,-9999,64076.13563204167,0.1120147705078125,0.546478271484375,-0.8336334228515625,1,0.83
2020-05-19 10:07:42.210 -0400,1589897261.999866,41.35198293890572,-71.84496231090904,21.70289,0,-1,3.473830019053088,4.664444450469365,-9999,64076.18552304167,0.10455322265625,0.5420989990234375,-0.8359527587890625,1,0.83
2020-05-19 10:07:42.260 -0400,1589897261.999866,41.35198293890572,-71.84496231090904,21.70289,0,-1,3.473830019053088,4.664444450469365,-9999,64076.23541404167,0.1136474609375,0.533233642578125,-0.8486480712890625,1,0.83
2020-05-19 10:07:42.309 -0400,1589897261.999866,41.35198293890572,-71.84496231090904,21.70289,0,-1,3.473830019053088,4.664444450469365,-9999,64076.28530304167,0.111724853515625,0.522430419921875,-0.8523406982421875,1,0.83
2020-05-19 10:07:42.359 -0400,1589897261.999866,41.35198293890572,-71.84496231090904,21.70289,0,-1,3.473830019053088,4.664444450469365,-9999,64076.33519404167,0.1046600341796875,0.49835205078125,-0.865325927734375,1,0.83
2020-05-19 10:07:42.409 -0400,1589897261.999866,41.35198293890572,-71.84496231090904,21.70289,0,-1,3.473830019053088,4.664444450469365,-9999,64076.38508904167,0.11383056640625,0.5144195556640625,-0.8506317138671875,1,0.83
2020-05-19 10:07:42.459 -0400,1589897261.999866,41.35198293890572,-71.84496231090904,21.70289,0,-1,3.473830019053088,4.664444450469365,-9999,64076.43498704167,0.1032562255859375,0.5338287353515625,-0.853363037109375,1,0.83
2020-05-19 10:07:42.509 -0400,1589897261.999866,41.35198293890572,-71.84496231090904,21.70289,0,-1,3.473830019053088,4.664444450469365,-9999,64076.48488504167,0.1081695556640625,0.4899749755859375,-0.8757781982421875,1,0.83
2020-05-19 10:07:42.559 -0400,1589897261.999866,41.35198293890572,-71.84496231090904,21.70289,0,-1,3.473830019053088,4.664444450469365,-9999,64076.53478004167,0.1107330322265625,0.493194580078125,-0.8710479736328125,1,0.83
2020-05-19 10:07:42.609 -0400,1589897261.999866,41.35198293890572,-71.84496231090904,21.70289,0,-1,3.473830019053088,4.664444450469365,-9999,64076.58467604167,0.09710693359375,0.501129150390625,-0.8609771728515625,1,0.83
2020-05-19 10:07:42.659 -0400,1589897261.999866,41.35198293890572,-71.84496231090904,21.70289,0,-1,3.473830019053088,4.664444450469365,-9999,64076.63457004167,0.1112518310546875,0.4281768798828125,-0.8868865966796875,1,0.83
2020-05-19 10:07:42.709 -0400,1589897261.999866,41.35198293890572,-71.84496231090904,21.70289,0,-1,3.473830019053088,4.664444450469365,-9999,64076.68446404167,0.119842529296875,0.4262542724609375,-0.894683837890625,1,0.83
2020-05-19 10:07:42.759 -0400,1589897261.999866,41.35198293890572,-71.84496231090904,21.70289,0,-1,3.473830019053088,4.664444450469365,-9999,64076.73435604167,0.112884521484375,0.453643798828125,-0.8809356689453125,1,0.83
2020-05-19 10:07:42.808 -0400,1589897261.999866,41.35198293890572,-71.84496231090904,21.70289,0,-1,3.473830019053088,4.664444450469365,-9999,64076.78424504167,0.1083831787109375,0.4451141357421875,-0.866851806640625,1,0.83
2020-05-19 10:07:42.865 -0400,1589897261.999866,41.35198293890572,-71.84496231090904,21.70289,0,-1,3.473830019053088,4.664444450469365,-9999,64076.83413704167,0.11834716796875,0.432373046875,-0.90997314453125,1,0.83
2020-05-19 10:07:42.908 -0400,1589897261.999866,41.35198293890572,-71.84496231090904,21.70289,0,-1,3.473830019053088,4.664444450469365,-9999,64076.884026375,0.123504638671875,0.4810791015625,-0.88427734375,1,0.83
2020-05-19 10:07:42.958 -0400,1589897261.999866,41.35198293890572,-71.84496231090904,21.70289,0,-1,3.473830019053088,4.664444450469365,-9999,64076.933916375,0.117218017578125,0.4752197265625,-0.870819091796875,1,0.83
2020-05-19 10:07:43.008 -0400,1589897261.999866,41.35198293890572,-71.84496231090904,21.70289,0,-1,3.473830019053088,4.664444450469365,-9999,64076.98380737501,0.1082916259765625,0.5363311767578125,-0.875457763671875,1,0.83
2020-05-19 10:07:43.058 -0400,1589897261.999866,41.35198293890572,-71.84496231090904,21.70289,0,-1,3.473830019053088,4.664444450469365,-9999,64077.033695375,0.1220550537109375,0.4533843994140625,-0.8871002197265625,1,0.83
2020-05-19 10:07:43.108 -0400,1589897261.999866,41.35198293890572,-71.84496231090904,21.70289,0,-1,3.473830019053088,4.664444450469365,-9999,64077.083581375,0.139678955078125,0.4077911376953125,-0.8961944580078125,1,0.83
2020-05-19 10:07:43.157 -0400,1589897261.999866,41.35198293890572,-71.84496231090904,21.70289,0,-1,3.473830019053088,4.664444450469365,-9999,64077.133470375,0.1272735595703125,0.4752197265625,-0.9001007080078125,1,0.83
2020-05-19 10:07:43.208 -0400,1589897262.99987,41.35198148954746,-71.84496039676068,20.69726,0,-1,3.474074206820494,4.664262582476827,-9999,64077.183358375,0.1310577392578125,0.324188232421875,-0.946807861328125,1,0.83
2020-05-19 10:07:43.257 -0400,1589897262.99987,41.35198148954746,-71.84496039676068,20.69726,0,-1,3.474074206820494,4.664262582476827,-9999,64077.23324737501,0.1423492431640625,0.3120880126953125,-0.9101104736328125,1,0.83
2020-05-19 10:07:43.307 -0400,1589897262.99987,41.35198148954746,-71.84496039676068,20.69726,0,-1,3.474074206820494,4.664262582476827,-9999,64077.283139375,0.1471099853515625,0.2791290283203125,-0.95758056640625,1,0.83
2020-05-19 10:07:43.357 -0400,1589897262.99987,41.35198148954746,-71.84496039676068,20.69726,0,-1,3.474074206820494,4.664262582476827,-9999,64077.333030375,0.14874267578125,0.2486114501953125,-0.9559783935546875,1,0.83
2020-05-19 10:07:43.407 -0400,1589897262.99987,41.35198148954746,-71.84496039676068,20.69726,0,-1,3.474074206820494,4.664262582476827,-9999,64077.38292237501,0.145660400390625,0.3672332763671875,-0.933349609375,1,0.83
2020-05-19 10:07:43.457 -0400,1589897262.99987,41.35198148954746,-71.84496039676068,20.69726,0,-1,3.474074206820494,4.664262582476827,-9999,64077.432814375,0.1171112060546875,0.3575439453125,-0.9207763671875,1,0.83
2020-05-19 10:07:43.507 -0400,1589897262.99987,41.35198148954746,-71.84496039676068,20.69726,0,-1,3.474074206820494,4.664262582476827,-9999,64077.48270737501,0.14263916015625,0.3721771240234375,-0.9246063232421875,1,0.83
2020-05-19 10:07:43.557 -0400,1589897262.99987,41.35198148954746,-71.84496039676068,20.69726,0,-1,3.474074206820494,4.664262582476827,-9999,64077.532599375,0.13641357421875,0.4119110107421875,-0.9221038818359375,1,0.83
2020-05-19 10:07:43.606 -0400,1589897262.99987,41.35198148954746,-71.84496039676068,20.69726,0,-1,3.474074206820494,4.664262582476827,-9999,64077.58249537501,0.1387786865234375,0.4365234375,-0.9034881591796875,1,0.83
2020-05-19 10:07:43.656 -0400,1589897262.99987,41.35198148954746,-71.84496039676068,20.69726,0,-1,3.474074206820494,4.664262582476827,-9999,64077.632390375,0.130584716796875,0.373077392578125,-0.922943115234375,1,0.83
2020-05-19 10:07:43.706 -0400,1589897262.99987,41.35198148954746,-71.84496039676068,20.69726,0,-1,3.474074206820494,4.664262582476827,-9999,64077.68228437501,0.144378662109375,0.4136810302734375,-0.91363525390625,1,0.83
2020-05-19 10:07:43.756 -0400,1589897262.99987,41.35198148954746,-71.84496039676068,20.69726,0,-1,3.474074206820494,4.664262582476827,-9999,64077.732179375,0.134674072265625,0.412567138671875,-0.899932861328125,1,0.83
2020-05-19 10:07:43.806 -0400,1589897262.99987,41.35198148954746,-71.84496039676068,20.69726,0,-1,3.474074206820494,4.664262582476827,-9999,64077.782070375,0.1365509033203125,0.4263916015625,-0.896636962890625,1,0.83
2020-05-19 10:07:43.856 -0400,1589897262.99987,41.35198148954746,-71.84496039676068,20.69726,0,-1,3.474074206820494,4.664262582476827,-9999,64077.83195737501,0.1392822265625,0.43878173828125,-0.89019775390625,1,0.83
2020-05-19 10:07:43.906 -0400,1589897262.99987,41.35198148954746,-71.84496039676068,20.69726,0,-1,3.474074206820494,4.664262582476827,-9999,64077.88184254167,0.1461944580078125,0.4729766845703125,-0.8915863037109375,1,0.83
2020-05-19 10:07:43.956 -0400,1589897262.99987,41.35198148954746,-71.84496039676068,20.69726,0,-1,3.474074206820494,4.664262582476827,-9999,64077.93172754167,0.13348388671875,0.46142578125,-0.8828125,1,0.83
2020-05-19 10:07:44.006 -0400,1589897262.99987,41.35198148954746,-71.84496039676068,20.69726,0,-1,3.474074206820494,4.664262582476827,-9999,64077.98161054167,0.122802734375,0.46527099609375,-0.8826141357421875,1,0.83
2020-05-19 10:07:44.056 -0400,1589897262.99987,41.35198148954746,-71.84496039676068,20.69726,0,-1,3.474074206820494,4.664262582476827,-9999,64078.03149854167,0.136932373046875,0.465118408203125,-0.8735809326171875,1,0.83
2020-05-19 10:07:44.105 -0400,1589897262.99987,41.35198148954746,-71.84496039676068,20.69726,0,-1,3.474074206820494,4.664262582476827,-9999,64078.08139054167,0.12664794921875,0.468292236328125,-0.862213134765625,1,0.83
2020-05-19 10:07:44.155 -0400,1589897262.99987,41.35198148954746,-71.84496039676068,20.69726,0,-1,3.474074206820494,4.664262582476827,-9999,64078.13128154167,0.1357269287109375,0.458282470703125,-0.877105712890625,1,0.83
2020-05-19 10:07:44.215 -0400,1589897262.99987,41.35198148954746,-71.84496039676068,20.69726,0,-1,3.474074206820494,4.664262582476827,-9999,64078.18117354167,0.141387939453125,0.47003173828125,-0.8903045654296875,1,0.83
2020-05-19 10:07:44.255 -0400,1589897263.999905,41.35198148954746,-71.84496039676068,20.69726,0,-1,3.473000270839476,4.665062288066234,-9999,64078.23106554167,0.1271209716796875,0.4693145751953125,-0.8794097900390625,1,0.83
2020-05-19 10:07:44.305 -0400,1589897263.999905,41.35198148954746,-71.84496039676068,20.69726,0,-1,3.473000270839476,4.665062288066234,-9999,64078.28095454167,0.1309051513671875,0.4930877685546875,-0.9137115478515625,1,0.83
2020-05-19 10:07:44.355 -0400,1589897263.999905,41.35198148954746,-71.84496039676068,20.69726,0,-1,3.473000270839476,4.665062288066234,-9999,64078.33084354167,0.107208251953125,0.4759979248046875,-0.933563232421875,1,0.83
2020-05-19 10:07:44.405 -0400,1589897263.999905,41.35198148954746,-71.84496039676068,20.69726,0,-1,3.473000270839476,4.665062288066234,-9999,64078.38073354167,0.084197998046875,0.453765869140625,-1.169937133789062,1,0.83
2020-05-19 10:07:44.455 -0400,1589897263.999905,41.35198148954746,-71.84496039676068,20.69726,0,-1,3.473000270839476,4.665062288066234,-9999,64078.43062254167,0.0480194091796875,-0.270355224609375,-1.046035766601562,1,0.83
2020-05-19 10:07:44.505 -0400,1589897263.999905,41.35198148954746,-71.84496039676068,20.69726,0,-1,3.473000270839476,4.665062288066234,-9999,64078.48051254167,0.055511474609375,-0.1568603515625,-1.026962280273438,1,0.83
2020-05-19 10:07:44.554 -0400,1589897263.999905,41.35198148954746,-71.84496039676068,20.69726,0,-1,3.473000270839476,4.665062288066234,-9999,64078.53040154167,-0.0116424560546875,-0.1273651123046875,-0.796966552734375,1,0.83
2020-05-19 10:07:44.604 -0400,1589897263.999905,41.35198148954746,-71.84496039676068,20.69726,0,-1,3.473000270839476,4.665062288066234,-9999,64078.58029054167,0.0230865478515625,-0.2550506591796875,-0.8081207275390625,1,0.83
2020-05-19 10:07:44.659 -0400,1589897263.999905,41.35198148954746,-71.84496039676068,20.69726,0,-1,3.473000270839476,4.665062288066234,-9999,64078.63017754167,0.011199951171875,-0.3308563232421875,-0.736846923828125,1,0.83
2020-05-19 10:07:44.704 -0400,1589897263.999905,41.35198148954746,-71.84496039676068,20.69726,0,-1,3.473000270839476,4.665062288066234,-9999,64078.68006654167,0.027130126953125,-0.3326873779296875,-0.92510986328125,1,0.83
2020-05-19 10:07:44.754 -0400,1589897263.999905,41.35198148954746,-71.84496039676068,20.69726,0,-1,3.473000270839476,4.665062288066234,-9999,64078.72995854167,0.0039520263671875,-0.4626922607421875,-0.8739776611328125,1,0.83
2020-05-19 10:07:44.804 -0400,1589897263.999905,41.35198148954746,-71.84496039676068,20.69726,0,-1,3.473000270839476,4.665062288066234,-9999,64078.77985154167,-0.0015411376953125,-0.406768798828125,-0.9940338134765625,1,0.83
2020-05-19 10:07:44.854 -0400,1589897263.999905,41.35198148954746,-71.84496039676068,20.69726,0,-1,3.473000270839476,4.665062288066234,-9999,64078.82974654167,-0.0179443359375,-0.4024658203125,-0.9305877685546875,1,0.83
2020-05-19 10:07:44.904 -0400,1589897263.999905,41.35198148954746,-71.84496039676068,20.69726,0,-1,3.473000270839476,4.665062288066234,-9999,64078.87963754167,0.0085296630859375,-0.4027252197265625,-0.938323974609375,1,0.83
2020-05-19 10:07:44.953 -0400,1589897263.999905,41.35198148954746,-71.84496039676068,20.69726,0,-1,3.473000270839476,4.665062288066234,-9999,64078.92952954167,-0.0060882568359375,-0.373687744140625,-0.90362548828125,1,0.83
2020-05-19 10:07:45.003 -0400,1589897263.999905,41.35198148954746,-71.84496039676068,20.69726,0,-1,3.473000270839476,4.665062288066234,-9999,64078.97942254167,-0.0004730224609375,-0.4511871337890625,-0.906280517578125,1,0.83
2020-05-19 10:07:45.053 -0400,1589897263.999905,41.35198148954746,-71.84496039676068,20.69726,0,-1,3.473000270839476,4.665062288066234,-9999,64079.02931454167,-0.0010223388671875,-0.4133453369140625,-0.9029083251953125,1,0.83
2020-05-19 10:07:45.103 -0400,1589897263.999905,41.35198148954746,-71.84496039676068,20.69726,0,-1,3.473000270839476,4.665062288066234,-9999,64079.07920754167,0.0018463134765625,-0.4120941162109375,-0.8932342529296875,1,0.83
2020-05-19 10:07:45.153 -0400,1589897263.999905,41.35198148954746,-71.84496039676068,20.69726,0,-1,3.473000270839476,4.665062288066234,-9999,64079.12910054167,-0.00677490234375,-0.42657470703125,-0.907257080078125,1,0.83
2020-05-19 10:07:45.203 -0400,1589897263.999905,41.35198148954746,-71.84496039676068,20.69726,0,-1,3.473000270839476,4.665062288066234,-9999,64079.17899354167,-0.0009002685546875,-0.4088592529296875,-0.9062957763671875,1,0.83
2020-05-19 10:07:45.253 -0400,1589897264.999881,41.35198239308744,-71.84495979133312,20.58524,0,-1,3.474520832605809,4.663929889757894,-9999,64079.22888454167,-0.0010223388671875,-0.4326019287109375,-0.9004669189453125,1,0.83
2020-05-19 10:07:45.303 -0400,1589897264.999881,41.35198239308744,-71.84495979133312,20.58524,0,-1,3.474520832605809,4.663929889757894,-9999,64079.27877754167,-0.0030975341796875,-0.4024810791015625,-0.927001953125,1,0.83
2020-05-19 10:07:45.353 -0400,1589897264.999881,41.35198239308744,-71.84495979133312,20.58524,0,-1,3.474520832605809,4.663929889757894,-9999,64079.32867154167,-0.01263427734375,-0.4222259521484375,-0.9065093994140625,1,0.83
2020-05-19 10:07:45.404 -0400,1589897264.999881,41.35198239308744,-71.84495979133312,20.58524,0,-1,3.474520832605809,4.663929889757894,-9999,64079.37856254167,-0.0084991455078125,-0.407440185546875,-0.899169921875,1,0.83
2020-05-19 10:07:45.453 -0400,1589897264.999881,41.35198239308744,-71.84495979133312,20.58524,0,-1,3.474520832605809,4.663929889757894,-9999,64079.42845354167,-0.0007781982421875,-0.3938140869140625,-0.9110260009765625,1,0.83
2020-05-19 10:07:45.502 -0400,1589897264.999881,41.35198239308744,-71.84495979133312,20.58524,0,-1,3.474520832605809,4.663929889757894,-9999,64079.47834354167,-0.000762939453125,-0.4398345947265625,-0.896759033203125,1,0.83
2020-05-19 10:07:45.552 -0400,1589897264.999881,41.35198239308744,-71.84495979133312,20.58524,0,-1,3.474520832605809,4.663929889757894,-9999,64079.52823154167,-0.00189208984375,-0.41119384765625,-0.9225921630859375,1,0.83
2020-05-19 10:07:45.602 -0400,1589897264.999881,41.35198239308744,-71.84495979133312,20.58524,0,-1,3.474520832605809,4.663929889757894,-9999,64079.57812154167,-0.0138092041015625,-0.4304351806640625,-0.9121856689453125,1,0.83
2020-05-19 10:07:45.652 -0400,1589897264.999881,41.35198239308744,-71.84495979133312,20.58524,0,-1,3.474520832605809,4.663929889757894,-9999,64079.62800554167,-0.0064544677734375,-0.383575439453125,-0.9140472412109375,1,0.83
2020-05-19 10:07:45.702 -0400,1589897264.999881,41.35198239308744,-71.84495979133312,20.58524,0,-1,3.474520832605809,4.663929889757894,-9999,64079.67789554167,0.000274658203125,-0.4114532470703125,-0.89935302734375,1,0.83
2020-05-19 10:07:45.752 -0400,1589897264.999881,41.35198239308744,-71.84495979133312,20.58524,0,-1,3.474520832605809,4.663929889757894,-9999,64079.72778454167,-0.005126953125,-0.3842010498046875,-0.886810302734375,1,0.83
2020-05-19 10:07:45.802 -0400,1589897264.999881,41.35198239308744,-71.84495979133312,20.58524,0,-1,3.474520832605809,4.663929889757894,-9999,64079.77767654167,-0.0098114013671875,-0.38897705078125,-0.935302734375,1,0.83
2020-05-19 10:07:45.852 -0400,1589897264.999881,41.35198239308744,-71.84495979133312,20.58524,0,-1,3.474520832605809,4.663929889757894,-9999,64079.82756854167,-0.0069122314453125,-0.415435791015625,-0.906158447265625,1,0.83
2020-05-19 10:07:45.902 -0400,1589897264.999881,41.35198239308744,-71.84495979133312,20.58524,0,-1,3.474520832605809,4.663929889757894,-9999,64079.87746150001,-0.013671875,-0.4016876220703125,-0.92938232421875,1,0.83
2020-05-19 10:07:45.952 -0400,1589897264.999881,41.35198239308744,-71.84495979133312,20.58524,0,-1,3.474520832605809,4.663929889757894,-9999,64079.9273505,-0.0069580078125,-0.4109954833984375,-0.89495849609375,1,0.83
2020-05-19 10:07:46.001 -0400,1589897264.999881,41.35198239308744,-71.84495979133312,20.58524,0,-1,3.474520832605809,4.663929889757894,-9999,64079.9772435,0.004058837890625,-0.4122161865234375,-0.92144775390625,1,0.83
2020-05-19 10:07:46.051 -0400,1589897264.999881,41.35198239308744,-71.84495979133312,20.58524,0,-1,3.474520832605809,4.663929889757894,-9999,64080.0271375,0.015350341796875,-0.40673828125,-0.872802734375,1,0.83
2020-05-19 10:07:46.101 -0400,1589897264.999881,41.35198239308744,-71.84495979133312,20.58524,0,-1,3.474520832605809,4.663929889757894,-9999,64080.0770325,0.0335845947265625,-0.3989105224609375,-0.93511962890625,1,0.83
2020-05-19 10:07:46.151 -0400,1589897264.999881,41.35198239308744,-71.84495979133312,20.58524,0,-1,3.474520832605809,4.663929889757894,-9999,64080.1269285,0.0071563720703125,-0.3963470458984375,-0.8901824951171875,1,0.83
2020-05-19 10:07:46.201 -0400,1589897264.999881,41.35198239308744,-71.84495979133312,20.58524,0,-1,3.474520832605809,4.663929889757894,-9999,64080.17682450001,0.0021820068359375,-0.3738555908203125,-0.893096923828125,1,0.83
2020-05-19 10:07:46.251 -0400,1589897265.999886,41.35198080688188,-71.84495847442072,20.2973,0,-1,3.474727050170689,4.663776255310812,-9999,64080.2267155,-0.0063323974609375,-0.4103546142578125,-0.90142822265625,1,0.83
2020-05-19 10:07:46.301 -0400,1589897265.999886,41.35198080688188,-71.84495847442072,20.2973,0,-1,3.474727050170689,4.663776255310812,-9999,64080.2766095,0.01611328125,-0.4575653076171875,-0.9462890625,1,0.83
2020-05-19 10:07:46.350 -0400,1589897265.999886,41.35198080688188,-71.84495847442072,20.2973,0,-1,3.474727050170689,4.663776255310812,-9999,64080.32650150001,0.0317535400390625,-0.42486572265625,-0.90655517578125,1,0.83
2020-05-19 10:07:46.400 -0400,1589897265.999886,41.35198080688188,-71.84495847442072,20.2973,0,-1,3.474727050170689,4.663776255310812,-9999,64080.3763945,0.043243408203125,-0.4069061279296875,-0.925384521484375,1,0.83
2020-05-19 10:07:46.450 -0400,1589897265.999886,41.35198080688188,-71.84495847442072,20.2973,0,-1,3.474727050170689,4.663776255310812,-9999,64080.42628750001,0.03106689453125,-0.3910675048828125,-0.887603759765625,1,0.83
2020-05-19 10:07:46.500 -0400,1589897265.999886,41.35198080688188,-71.84495847442072,20.2973,0,-1,3.474727050170689,4.663776255310812,-9999,64080.4761825,0.0416259765625,-0.4601593017578125,-0.91754150390625,1,0.83
2020-05-19 10:07:46.550 -0400,1589897265.999886,41.35198080688188,-71.84495847442072,20.2973,0,-1,3.474727050170689,4.663776255310812,-9999,64080.5260705,0.048431396484375,-0.4047088623046875,-0.9117889404296875,1,0.83
2020-05-19 10:07:46.600 -0400,1589897265.999886,41.35198080688188,-71.84495847442072,20.2973,0,-1,3.474727050170689,4.663776255310812,-9999,64080.57596150001,0.0498199462890625,-0.4393310546875,-0.9302215576171875,1,0.83
2020-05-19 10:07:46.650 -0400,1589897265.999886,41.35198080688188,-71.84495847442072,20.2973,0,-1,3.474727050170689,4.663776255310812,-9999,64080.6258515,0.048919677734375,-0.4331512451171875,-0.8756256103515625,1,0.83
2020-05-19 10:07:46.700 -0400,1589897265.999886,41.35198080688188,-71.84495847442072,20.2973,0,-1,3.474727050170689,4.663776255310812,-9999,64080.6757435,0.0421142578125,-0.38958740234375,-0.925811767578125,1,0.83
2020-05-19 10:07:46.750 -0400,1589897265.999886,41.35198080688188,-71.84495847442072,20.2973,0,-1,3.474727050170689,4.663776255310812,-9999,64080.72563450001,0.0399322509765625,-0.4195556640625,-0.9044036865234375,1,0.83
2020-05-19 10:07:46.800 -0400,1589897265.999886,41.35198080688188,-71.84495847442072,20.2973,0,-1,3.474727050170689,4.663776255310812,-9999,64080.7755275,0.0518341064453125,-0.3926239013671875,-0.9059600830078125,1,0.83
2020-05-19 10:07:46.850 -0400,1589897265.999886,41.35198080688188,-71.84495847442072,20.2973,0,-1,3.474727050170689,4.663776255310812,-9999,64080.8254205,0.061553955078125,-0.43670654296875,-0.9136505126953125,1,0.83
2020-05-19 10:07:46.899 -0400,1589897265.999886,41.35198080688188,-71.84495847442072,20.2973,0,-1,3.474727050170689,4.663776255310812,-9999,64080.875311875,0.039398193359375,-0.41400146484375,-0.9061431884765625,1,0.83
2020-05-19 10:07:46.949 -0400,1589897265.999886,41.35198080688188,-71.84495847442072,20.2973,0,-1,3.474727050170689,4.663776255310812,-9999,64080.92520287501,0.039642333984375,-0.411956787109375,-0.86474609375,1,0.83
2020-05-19 10:07:46.999 -0400,1589897265.999886,41.35198080688188,-71.84495847442072,20.2973,0,-1,3.474727050170689,4.663776255310812,-9999,64080.975093875,0.0373077392578125,-0.3511962890625,-0.9550018310546875,1,0.83
2020-05-19 10:07:47.049 -0400,1589897265.999886,41.35198080688188,-71.84495847442072,20.2973,0,-1,3.474727050170689,4.663776255310812,-9999,64081.024987875,0.03302001953125,-0.38885498046875,-0.9102935791015625,1,0.83
2020-05-19 10:07:47.099 -0400,1589897265.999886,41.35198080688188,-71.84495847442072,20.2973,0,-1,3.474727050170689,4.663776255310812,-9999,64081.07487887501,0.04443359375,-0.3794097900390625,-0.930206298828125,1,0.83
2020-05-19 10:07:47.149 -0400,1589897265.999886,41.35198080688188,-71.84495847442072,20.2973,0,-1,3.474727050170689,4.663776255310812,-9999,64081.124770875,0.0400848388671875,-0.36358642578125,-0.888916015625,1,0.83
2020-05-19 10:07:47.199 -0400,1589897265.999886,41.35198080688188,-71.84495847442072,20.2973,0,-1,3.474727050170689,4.663776255310812,-9999,64081.174658875,0.04486083984375,-0.390411376953125,-0.9345703125,1,0.83
2020-05-19 10:07:47.249 -0400,1589897266.999894,41.3519791995076,-71.84495759801715,19.02501,0.6188481,-1,3.475059186380208,4.663528780220335,-9999,64081.224548875,0.0471954345703125,-0.4207611083984375,-0.893218994140625,1,0.83
2020-05-19 10:07:47.299 -0400,1589897266.999894,41.3519791995076,-71.84495759801715,19.02501,0.6188481,-1,3.475059186380208,4.663528780220335,-9999,64081.27443887501,0.036590576171875,-0.3774261474609375,-0.910247802734375,1,0.83
2020-05-19 10:07:47.348 -0400,1589897266.999894,41.3519791995076,-71.84495759801715,19.02501,0.6188481,-1,3.475059186380208,4.663528780220335,-9999,64081.324329875,0.0345001220703125,-0.412139892578125,-0.905303955078125,1,0.83
2020-05-19 10:07:47.398 -0400,1589897266.999894,41.3519791995076,-71.84495759801715,19.02501,0.6188481,-1,3.475059186380208,4.663528780220335,-9999,64081.374219875,0.061492919921875,-0.397735595703125,-0.900970458984375,1,0.83
2020-05-19 10:07:47.448 -0400,1589897266.999894,41.3519791995076,-71.84495759801715,19.02501,0.6188481,-1,3.475059186380208,4.663528780220335,-9999,64081.42410987501,0.0412750244140625,-0.4057464599609375,-0.93109130859375,1,0.83
2020-05-19 10:07:47.498 -0400,1589897266.999894,41.3519791995076,-71.84495759801715,19.02501,0.6188481,-1,3.475059186380208,4.663528780220335,-9999,64081.473999875,0.0229949951171875,-0.4185943603515625,-0.9166259765625,1,0.83
2020-05-19 10:07:47.548 -0400,1589897266.999894,41.3519791995076,-71.84495759801715,19.02501,0.6188481,-1,3.475059186380208,4.663528780220335,-9999,64081.523889875,0.041961669921875,-0.4019012451171875,-0.897003173828125,1,0.83
2020-05-19 10:07:47.598 -0400,1589897266.999894,41.3519791995076,-71.84495759801715,19.02501,0.6188481,-1,3.475059186380208,4.663528780220335,-9999,64081.57377987501,0.04449462890625,-0.391998291015625,-0.9161529541015625,1,0.83
2020-05-19 10:07:47.648 -0400,1589897266.999894,41.3519791995076,-71.84495759801715,19.02501,0.6188481,-1,3.475059186380208,4.663528780220335,-9999,64081.62366887501,0.0582733154296875,-0.4483184814453125,-0.8794097900390625,1,0.83
2020-05-19 10:07:47.698 -0400,1589897266.999894,41.3519791995076,-71.84495759801715,19.02501,0.6188481,-1,3.475059186380208,4.663528780220335,-9999,64081.673557875,0.0615692138671875,-0.42266845703125,-0.948974609375,1,0.83
2020-05-19 10:07:47.748 -0400,1589897266.999894,41.3519791995076,-71.84495759801715,19.02501,0.6188481,-1,3.475059186380208,4.663528780220335,-9999,64081.723447875,0.040863037109375,-0.404876708984375,-0.9187164306640625,1,0.83
2020-05-19 10:07:47.798 -0400,1589897266.999894,41.3519791995076,-71.84495759801715,19.02501,0.6188481,-1,3.475059186380208,4.663528780220335,-9999,64081.77333987501,0.0308990478515625,-0.418243408203125,-0.886871337890625,1,0.83
2020-05-19 10:07:47.847 -0400,1589897266.999894,41.3519791995076,-71.84495759801715,19.02501,0.6188481,-1,3.475059186380208,4.663528780220335,-9999,64081.823228875,0.02899169921875,-0.4147491455078125,-0.9029693603515625,1,0.83
2020-05-19 10:07:47.897 -0400,1589897266.999894,41.3519791995076,-71.84495759801715,19.02501,0.6188481,-1,3.475059186380208,4.663528780220335,-9999,64081.87311904167,0.0511932373046875,-0.4335174560546875,-0.906707763671875,1,0.83
2020-05-19 10:07:47.947 -0400,1589897266.999894,41.3519791995076,-71.84495759801715,19.02501,0.6188481,-1,3.475059186380208,4.663528780220335,-9999,64081.92301104167,0.0447845458984375,-0.42138671875,-0.907196044921875,1,0.83
2020-05-19 10:07:47.997 -0400,1589897266.999894,41.3519791995076,-71.84495759801715,19.02501,0.6188481,-1,3.475059186380208,4.663528780220335,-9999,64081.97290204167,0.031097412109375,-0.416046142578125,-0.918182373046875,1,0.83
2020-05-19 10:07:48.047 -0400,1589897266.999894,41.3519791995076,-71.84495759801715,19.02501,0.6188481,-1,3.475059186380208,4.663528780220335,-9999,64082.02279704167,0.0394287109375,-0.4100494384765625,-0.9020538330078125,1,0.83
2020-05-19 10:07:48.097 -0400,1589897266.999894,41.3519791995076,-71.84495759801715,19.02501,0.6188481,-1,3.475059186380208,4.663528780220335,-9999,64082.07269404167,0.041534423828125,-0.4218292236328125,-0.9210357666015625,1,0.83
2020-05-19 10:07:48.147 -0400,1589897266.999894,41.3519791995076,-71.84495759801715,19.02501,0.6188481,-1,3.475059186380208,4.663528780220335,-9999,64082.12259104167,0.035125732421875,-0.4367523193359375,-0.8958587646484375,1,0.83
2020-05-19 10:07:48.197 -0400,1589897266.999894,41.3519791995076,-71.84495759801715,19.02501,0.6188481,-1,3.475059186380208,4.663528780220335,-9999,64082.17248404167,0.0427398681640625,-0.4171295166015625,-0.9075927734375,1,0.83
2020-05-19 10:07:48.246 -0400,1589897267.999896,41.35197892866101,-71.84495880386072,18.9098,0,-1,3.502982071480442,4.642591263472957,-9999,64082.22238004167,0.0293121337890625,-0.4231414794921875,-0.906280517578125,1,0.83
2020-05-19 10:07:48.297 -0400,1589897267.999896,41.35197892866101,-71.84495880386072,18.9098,0,-1,3.502982071480442,4.642591263472957,-9999,64082.27227604167,0.030548095703125,-0.42462158203125,-0.9010162353515625,1,0.83
2020-05-19 10:07:48.347 -0400,1589897267.999896,41.35197892866101,-71.84495880386072,18.9098,0,-1,3.502982071480442,4.642591263472957,-9999,64082.32216904167,0.071868896484375,-0.4532928466796875,-0.9194183349609375,1,0.83
2020-05-19 10:07:48.396 -0400,1589897267.999896,41.35197892866101,-71.84495880386072,18.9098,0,-1,3.502982071480442,4.642591263472957,-9999,64082.37206304167,0.10186767578125,-0.4550323486328125,-0.9063568115234375,1,0.83
2020-05-19 10:07:48.446 -0400,1589897267.999896,41.35197892866101,-71.84495880386072,18.9098,0,-1,3.502982071480442,4.642591263472957,-9999,64082.42195804167,0.1188201904296875,-0.430419921875,-0.886138916015625,1,0.83
2020-05-19 10:07:48.496 -0400,1589897267.999896,41.35197892866101,-71.84495880386072,18.9098,0,-1,3.502982071480442,4.642591263472957,-9999,64082.47185104167,0.14947509765625,-0.4781494140625,-0.8904266357421875,1,0.83
2020-05-19 10:07:48.546 -0400,1589897267.999896,41.35197892866101,-71.84495880386072,18.9098,0,-1,3.502982071480442,4.642591263472957,-9999,64082.52174504167,0.1022796630859375,-0.4885406494140625,-0.9169769287109375,1,0.83
2020-05-19 10:07:48.596 -0400,1589897267.999896,41.35197892866101,-71.84495880386072,18.9098,0,-1,3.502982071480442,4.642591263472957,-9999,64082.57164104167,0.073028564453125,-0.4200286865234375,-0.867095947265625,1,0.83
2020-05-19 10:07:48.646 -0400,1589897267.999896,41.35197892866101,-71.84495880386072,18.9098,0,-1,3.502982071480442,4.642591263472957,-9999,64082.62153804167,0.119659423828125,-0.4663848876953125,-0.8933868408203125,1,0.83
2020-05-19 10:07:48.696 -0400,1589897267.999896,41.35197892866101,-71.84495880386072,18.9098,0,-1,3.502982071480442,4.642591263472957,-9999,64082.67143404167,0.10296630859375,-0.4807586669921875,-0.88665771484375,1,0.83
2020-05-19 10:07:48.745 -0400,1589897267.999896,41.35197892866101,-71.84495880386072,18.9098,0,-1,3.502982071480442,4.642591263472957,-9999,64082.72132904167,0.060150146484375,-0.50811767578125,-0.8810882568359375,1,0.83
2020-05-19 10:07:48.795 -0400,1589897267.999896,41.35197892866101,-71.84495880386072,18.9098,0,-1,3.502982071480442,4.642591263472957,-9999,64082.77122104167,0.050079345703125,-0.52264404296875,-0.8547210693359375,1,0.83
2020-05-19 10:07:48.845 -0400,1589897267.999896,41.35197892866101,-71.84495880386072,18.9098,0,-1,3.502982071480442,4.642591263472957,-9999,64082.82111504167,0.0691986083984375,-0.4854583740234375,-0.846405029296875,1,0.83
2020-05-19 10:07:48.895 -0400,1589897267.999896,41.35197892866101,-71.84495880386072,18.9098,0,-1,3.502982071480442,4.642591263472957,-9999,64082.87100804167,0.1266937255859375,-0.499298095703125,-0.7761688232421875,1,0.83
2020-05-19 10:07:48.945 -0400,1589897267.999896,41.35197892866101,-71.84495880386072,18.9098,0,-1,3.502982071480442,4.642591263472957,-9999,64082.92089837501,0.1712799072265625,-0.4979705810546875,-0.8616943359375,1,0.83
2020-05-19 10:07:48.995 -0400,1589897267.999896,41.35197892866101,-71.84495880386072,18.9098,0,-1,3.502982071480442,4.642591263472957,-9999,64082.970790375,0.1430511474609375,-0.536773681640625,-0.8201141357421875,1,0.83
2020-05-19 10:07:49.045 -0400,1589897267.999896,41.35197892866101,-71.84495880386072,18.9098,0,-1,3.502982071480442,4.642591263472957,-9999,64083.02068437501,0.140045166015625,-0.50390625,-0.8526611328125,1,0.83
2020-05-19 10:07:49.095 -0400,1589897267.999896,41.35197892866101,-71.84495880386072,18.9098,0,-1,3.502982071480442,4.642591263472957,-9999,64083.070580375,0.1430511474609375,-0.49713134765625,-0.8565521240234375,1,0.83
2020-05-19 10:07:49.145 -0400,1589897267.999896,41.35197892866101,-71.84495880386072,18.9098,0,-1,3.502982071480442,4.642591263472957,-9999,64083.12047537501,0.1462554931640625,-0.5181732177734375,-0.8389739990234375,1,0.83
2020-05-19 10:07:49.195 -0400,1589897267.999896,41.35197892866101,-71.84495880386072,18.9098,0,-1,3.502982071480442,4.642591263472957,-9999,64083.170367375,0.1519012451171875,-0.5098876953125,-0.8314208984375,1,0.83
2020-05-19 10:07:49.244 -0400,1589897268.999902,41.35197731799617,-71.8449609847613,19.32788,0,-1,3.491980544389515,4.65087184411632,-9999,64083.22026437501,0.137237548828125,-0.5463104248046875,-0.8424224853515625,1,0.83
2020-05-19 10:07:49.294 -0400,1589897268.999902,41.35197731799617,-71.8449609847613,19.32788,0,-1,3.491980544389515,4.65087184411632,-9999,64083.270159375,0.1453399658203125,-0.5034332275390625,-0.8187408447265625,1,0.83
2020-05-19 10:07:49.344 -0400,1589897268.999902,41.35197731799617,-71.8449609847613,19.32788,0,-1,3.491980544389515,4.65087184411632,-9999,64083.32005537501,0.1453857421875,-0.5257415771484375,-0.841400146484375,1,0.83
2020-05-19 10:07:49.394 -0400,1589897268.999902,41.35197731799617,-71.8449609847613,19.32788,0,-1,3.491980544389515,4.65087184411632,-9999,64083.369952375,0.1331939697265625,-0.49859619140625,-0.7891693115234375,1,0.83
2020-05-19 10:07:49.444 -0400,1589897268.999902,41.35197731799617,-71.8449609847613,19.32788,0,-1,3.491980544389515,4.65087184411632,-9999,64083.41984737501,0.170013427734375,-0.53607177734375,-0.84759521484375,1,0.83
2020-05-19 10:07:49.494 -0400,1589897268.999902,41.35197731799617,-71.8449609847613,19.32788,0,-1,3.491980544389515,4.65087184411632,-9999,64083.469743375,0.1919708251953125,-0.5783233642578125,-0.838409423828125,1,0.83
2020-05-19 10:07:49.544 -0400,1589897268.999902,41.35197731799617,-71.8449609847613,19.32788,0,-1,3.491980544389515,4.65087184411632,-9999,64083.519639375,0.1787567138671875,-0.5438232421875,-0.834259033203125,1,0.83
2020-05-19 10:07:49.594 -0400,1589897268.999902,41.35197731799617,-71.8449609847613,19.32788,0,-1,3.491980544389515,4.65087184411632,-9999,64083.56953537501,0.18841552734375,-0.5324859619140625,-0.8794097900390625,1,0.83
2020-05-19 10:07:49.644 -0400,1589897268.999902,41.35197731799617,-71.8449609847613,19.32788,0,-1,3.491980544389515,4.65087184411632,-9999,64083.619428375,0.172393798828125,-0.51995849609375,-0.824493408203125,1,0.83
2020-05-19 10:07:49.694 -0400,1589897268.999902,41.35197731799617,-71.8449609847613,19.32788,0,-1,3.491980544389515,4.65087184411632,-9999,64083.669323375,0.1712646484375,-0.5280609130859375,-0.8390045166015625,1,0.83
2020-05-19 10:07:49.743 -0400,1589897268.999902,41.35197731799617,-71.8449609847613,19.32788,0,-1,3.491980544389515,4.65087184411632,-9999,64083.719219375,0.1633758544921875,-0.518707275390625,-0.822998046875,1,0.83
2020-05-19 10:07:49.793 -0400,1589897268.999902,41.35197731799617,-71.8449609847613,19.32788,0,-1,3.491980544389515,4.65087184411632,-9999,64083.769113375,0.182098388671875,-0.5387115478515625,-0.83416748046875,1,0.83
2020-05-19 10:07:49.843 -0400,1589897268.999902,41.35197731799617,-71.8449609847613,19.32788,0,-1,3.491980544389515,4.65087184411632,-9999,64083.819005375,0.1572418212890625,-0.5398101806640625,-0.7991485595703125,1,0.83
2020-05-19 10:07:49.893 -0400,1589897268.999902,41.35197731799617,-71.8449609847613,19.32788,0,-1,3.491980544389515,4.65087184411632,-9999,64083.868895375,0.1574554443359375,-0.500518798828125,-0.8145904541015625,1,0.83
2020-05-19 10:07:49.943 -0400,1589897268.999902,41.35197731799617,-71.8449609847613,19.32788,0,-1,3.491980544389515,4.65087184411632,-9999,64083.91878679167,0.13800048828125,-0.4466094970703125,-0.9019317626953125,1,0.83
2020-05-19 10:07:49.993 -0400,1589897268.999902,41.35197731799617,-71.8449609847613,19.32788,0,-1,3.491980544389515,4.65087184411632,-9999,64083.96867779167,0.1106414794921875,-0.512847900390625,-0.8642730712890625,1,0.83
2020-05-19 10:07:50.043 -0400,1589897268.999902,41.35197731799617,-71.8449609847613,19.32788,0,-1,3.491980544389515,4.65087184411632,-9999,64084.01856779167,0.1503753662109375,-0.5226898193359375,-0.85638427734375,1,0.83
2020-05-19 10:07:50.092 -0400,1589897268.999902,41.35197731799617,-71.8449609847613,19.32788,0,-1,3.491980544389515,4.65087184411632,-9999,64084.06845879167,0.1371917724609375,-0.52435302734375,-0.8639068603515625,1,0.83
2020-05-19 10:07:50.143 -0400,1589897268.999902,41.35197731799617,-71.8449609847613,19.32788,0,-1,3.491980544389515,4.65087184411632,-9999,64084.11834979167,0.0928497314453125,-0.5646209716796875,-0.8857269287109375,1,0.83
2020-05-19 10:07:50.192 -0400,1589897268.999902,41.35197731799617,-71.8449609847613,19.32788,0,-1,3.491980544389515,4.65087184411632,-9999,64084.16824179167,0.0615081787109375,-0.50347900390625,-0.883270263671875,1,0.83
2020-05-19 10:07:50.242 -0400,1589897269.999907,41.35197788361619,-71.84496011120545,19.06244,0,-1,3.515120435171478,4.633407532154788,-9999,64084.21813579167,0.0390625,-0.523956298828125,-0.8679046630859375,1,0.83
2020-05-19 10:07:50.292 -0400,1589897269.999907,41.35197788361619,-71.84496011120545,19.06244,0,-1,3.515120435171478,4.633407532154788,-9999,64084.26802779167,0.088287353515625,-0.468048095703125,-0.8267669677734375,1,0.83
2020-05-19 10:07:50.342 -0400,1589897269.999907,41.35197788361619,-71.84496011120545,19.06244,0,-1,3.515120435171478,4.633407532154788,-9999,64084.31791879167,0.131134033203125,-0.4915771484375,-0.78778076171875,1,0.83
2020-05-19 10:07:50.392 -0400,1589897269.999907,41.35197788361619,-71.84496011120545,19.06244,0,-1,3.515120435171478,4.633407532154788,-9999,64084.36781079167,0.179290771484375,-0.43170166015625,-0.873809814453125,1,0.83
2020-05-19 10:07:50.442 -0400,1589897269.999907,41.35197788361619,-71.84496011120545,19.06244,0,-1,3.515120435171478,4.633407532154788,-9999,64084.41770379167,0.1556243896484375,-0.5634613037109375,-0.8343048095703125,1,0.83
2020-05-19 10:07:50.492 -0400,1589897269.999907,41.35197788361619,-71.84496011120545,19.06244,0,-1,3.515120435171478,4.633407532154788,-9999,64084.46759679167,0.08843994140625,-0.5102691650390625,-0.8615570068359375,1,0.83
2020-05-19 10:07:50.542 -0400,1589897269.999907,41.35197788361619,-71.84496011120545,19.06244,0,-1,3.515120435171478,4.633407532154788,-9999,64084.51748979167,0.04534912109375,-0.5003509521484375,-0.880096435546875,1,0.83
2020-05-19 10:07:50.591 -0400,1589897269.999907,41.35197788361619,-71.84496011120545,19.06244,0,-1,3.515120435171478,4.633407532154788,-9999,64084.56738079167,0.0562896728515625,-0.488739013671875,-0.8783721923828125,1,0.83
2020-05-19 10:07:50.642 -0400,1589897269.999907,41.35197788361619,-71.84496011120545,19.06244,0,-1,3.515120435171478,4.633407532154788,-9999,64084.61727279167,0.05615234375,-0.542633056640625,-0.8472137451171875,1,0.83
2020-05-19 10:07:50.691 -0400,1589897269.999907,41.35197788361619,-71.84496011120545,19.06244,0,-1,3.515120435171478,4.633407532154788,-9999,64084.66716579167,0.06060791015625,-0.5330810546875,-0.87109375,1,0.83
2020-05-19 10:07:50.741 -0400,1589897269.999907,41.35197788361619,-71.84496011120545,19.06244,0,-1,3.515120435171478,4.633407532154788,-9999,64084.71705979167,0.0644989013671875,-0.540985107421875,-0.8333892822265625,1,0.83
2020-05-19 10:07:50.791 -0400,1589897269.999907,41.35197788361619,-71.84496011120545,19.06244,0,-1,3.515120435171478,4.633407532154788,-9999,64084.76695679167,0.0609283447265625,-0.507720947265625,-0.864349365234375,1,0.83
2020-05-19 10:07:50.841 -0400,1589897269.999907,41.35197788361619,-71.84496011120545,19.06244,0,-1,3.515120435171478,4.633407532154788,-9999,64084.81685279167,0.040802001953125,-0.507781982421875,-0.857879638671875,1,0.83
2020-05-19 10:07:50.891 -0400,1589897269.999907,41.35197788361619,-71.84496011120545,19.06244,0,-1,3.515120435171478,4.633407532154788,-9999,64084.86674579167,0.0771636962890625,-0.50250244140625,-0.8127593994140625,1,0.83
2020-05-19 10:07:50.941 -0400,1589897269.999907,41.35197788361619,-71.84496011120545,19.06244,0,-1,3.515120435171478,4.633407532154788,-9999,64084.916639875,0.12518310546875,-0.5120697021484375,-0.88958740234375,1,0.83
2020-05-19 10:07:50.991 -0400,1589897269.999907,41.35197788361619,-71.84496011120545,19.06244,0,-1,3.515120435171478,4.633407532154788,-9999,64084.96653287501,0.089080810546875,-0.56640625,-0.8451385498046875,1,0.83
2020-05-19 10:07:51.041 -0400,1589897269.999907,41.35197788361619,-71.84496011120545,19.06244,0,-1,3.515120435171478,4.633407532154788,-9999,64085.016426875,0.0814666748046875,-0.44317626953125,-0.928985595703125,1,0.83
2020-05-19 10:07:51.091 -0400,1589897269.999907,41.35197788361619,-71.84496011120545,19.06244,0,-1,3.515120435171478,4.633407532154788,-9999,64085.066319875,0.0534515380859375,-0.50994873046875,-0.859710693359375,1,0.83
2020-05-19 10:07:51.140 -0400,1589897269.999907,41.35197788361619,-71.84496011120545,19.06244,0,-1,3.515120435171478,4.633407532154788,-9999,64085.11620787501,0.005096435546875,-0.1044769287109375,-0.965240478515625,1,0.83
2020-05-19 10:07:51.190 -0400,1589897269.999907,41.35197788361619,-71.84496011120545,19.06244,0,-1,3.515120435171478,4.633407532154788,-9999,64085.16609687501,0.0338592529296875,-0.136688232421875,-0.9306640625,1,0.83
2020-05-19 10:07:51.240 -0400,1589897270.999912,41.35197845806772,-71.84496604852457,21.08506,0.7346768,-1,3.51307565501559,4.634958087720493,-9999,64085.215986875,0.041473388671875,0.161712646484375,-0.8994903564453125,1,0.83
2020-05-19 10:07:51.290 -0400,1589897270.999912,41.35197845806772,-71.84496604852457,21.08506,0.7346768,-1,3.51307565501559,4.634958087720493,-9999,64085.265877875,0.0379486083984375,0.2386016845703125,-0.980255126953125,1,0.83
2020-05-19 10:07:51.340 -0400,1589897270.999912,41.35197845806772,-71.84496604852457,21.08506,0.7346768,-1,3.51307565501559,4.634958087720493,-9999,64085.31576787501,0.0332489013671875,0.3165740966796875,-0.973297119140625,1,0.83
2020-05-19 10:07:51.390 -0400,1589897270.999912,41.35197845806772,-71.84496604852457,21.08506,0.7346768,-1,3.51307565501559,4.634958087720493,-9999,64085.365655875,0.024627685546875,0.25433349609375,-0.90771484375,1,0.83
2020-05-19 10:07:51.439 -0400,1589897270.999912,41.35197845806772,-71.84496604852457,21.08506,0.7346768,-1,3.51307565501559,4.634958087720493,-9999,64085.415547875,0.028228759765625,0.3009490966796875,-0.9394683837890625,1,0.83
2020-05-19 10:07:51.490 -0400,1589897270.999912,41.35197845806772,-71.84496604852457,21.08506,0.7346768,-1,3.51307565501559,4.634958087720493,-9999,64085.46543787501,0.0140228271484375,0.3195343017578125,-0.9435882568359375,1,0.83
2020-05-19 10:07:51.539 -0400,1589897270.999912,41.35197845806772,-71.84496604852457,21.08506,0.7346768,-1,3.51307565501559,4.634958087720493,-9999,64085.515327875,0.0773468017578125,0.386444091796875,-1.080276489257812,1,0.83
2020-05-19 10:07:51.589 -0400,1589897270.999912,41.35197845806772,-71.84496604852457,21.08506,0.7346768,-1,3.51307565501559,4.634958087720493,-9999,64085.565219875,0.0903167724609375,0.3170928955078125,-1.004638671875,1,0.83
2020-05-19 10:07:51.639 -0400,1589897270.999912,41.35197845806772,-71.84496604852457,21.08506,0.7346768,-1,3.51307565501559,4.634958087720493,-9999,64085.61511387501,0.080780029296875,0.2470703125,-0.9474945068359375,1,0.83
2020-05-19 10:07:51.689 -0400,1589897270.999912,41.35197845806772,-71.84496604852457,21.08506,0.7346768,-1,3.51307565501559,4.634958087720493,-9999,64085.665007875,0.08319091796875,0.196807861328125,-0.9866943359375,1,0.83
2020-05-19 10:07:51.739 -0400,1589897270.999912,41.35197845806772,-71.84496604852457,21.08506,0.7346768,-1,3.51307565501559,4.634958087720493,-9999,64085.71490187501,0.0672149658203125,0.2021026611328125,-0.9619293212890625,1,0.83
2020-05-19 10:07:51.789 -0400,1589897270.999912,41.35197845806772,-71.84496604852457,21.08506,0.7346768,-1,3.51307565501559,4.634958087720493,-9999,64085.764796875,0.0928802490234375,0.240020751953125,-0.9670867919921875,1,0.83
2020-05-19 10:07:51.839 -0400,1589897270.999912,41.35197845806772,-71.84496604852457,21.08506,0.7346768,-1,3.51307565501559,4.634958087720493,-9999,64085.81469187501,0.0945892333984375,0.3039703369140625,-0.9838104248046875,1,0.83
2020-05-19 10:07:51.889 -0400,1589897270.999912,41.35197845806772,-71.84496604852457,21.08506,0.7346768,-1,3.51307565501559,4.634958087720493,-9999,64085.864582875,0.102569580078125,0.2739105224609375,-0.989349365234375,1,0.83
2020-05-19 10:07:51.939 -0400,1589897270.999912,41.35197845806772,-71.84496604852457,21.08506,0.7346768,-1,3.51307565501559,4.634958087720493,-9999,64085.91447125001,0.083770751953125,0.3269195556640625,-0.98150634765625,1,0.83
2020-05-19 10:07:51.988 -0400,1589897270.999912,41.35197845806772,-71.84496604852457,21.08506,0.7346768,-1,3.51307565501559,4.634958087720493,-9999,64085.96436425,0.117218017578125,0.280517578125,-1.02862548828125,1,0.83
2020-05-19 10:07:52.038 -0400,1589897270.999912,41.35197845806772,-71.84496604852457,21.08506,0.7346768,-1,3.51307565501559,4.634958087720493,-9999,64086.01425425,0.051513671875,0.3819122314453125,-0.925140380859375,1,0.83
2020-05-19 10:07:52.088 -0400,1589897270.999912,41.35197845806772,-71.84496604852457,21.08506,0.7346768,-1,3.51307565501559,4.634958087720493,-9999,64086.06414425001,0.06756591796875,0.269500732421875,-0.9825897216796875,1,0.83
2020-05-19 10:07:52.138 -0400,1589897270.999912,41.35197845806772,-71.84496604852457,21.08506,0.7346768,-1,3.51307565501559,4.634958087720493,-9999,64086.11403325001,0.038604736328125,0.294708251953125,-0.8997039794921875,1,0.83
2020-05-19 10:07:52.188 -0400,1589897270.999912,41.35197845806772,-71.84496604852457,21.08506,0.7346768,-1,3.51307565501559,4.634958087720493,-9999,64086.16392125,0.015350341796875,0.3543548583984375,-0.8415374755859375,1,0.83
2020-05-19 10:07:52.238 -0400,1589897271.999916,41.35198208767729,-71.84495724011929,17.83307,0.6208264,-1,3.5109743450299,4.636550030068768,-9999,64086.21381225,0.0205535888671875,0.358642578125,-0.8655853271484375,1,0.83
2020-05-19 10:07:52.288 -0400,1589897271.999916,41.35198208767729,-71.84495724011929,17.83307,0.6208264,-1,3.5109743450299,4.636550030068768,-9999,64086.26370225001,0.015472412109375,0.441009521484375,-0.9219207763671875,1,0.83
2020-05-19 10:07:52.338 -0400,1589897271.999916,41.35198208767729,-71.84495724011929,17.83307,0.6208264,-1,3.5109743450299,4.636550030068768,-9999,64086.31359125001,0.0526275634765625,0.393585205078125,-0.9639434814453125,1,0.83
2020-05-19 10:07:52.388 -0400,1589897271.999916,41.35198208767729,-71.84495724011929,17.83307,0.6208264,-1,3.5109743450299,4.636550030068768,-9999,64086.36348025,0.085662841796875,0.3176116943359375,-0.966827392578125,1,0.83
2020-05-19 10:07:52.438 -0400,1589897271.999916,41.35198208767729,-71.84495724011929,17.83307,0.6208264,-1,3.5109743450299,4.636550030068768,-9999,64086.41336925,0.072509765625,0.304046630859375,-0.9235687255859375,1,0.83
2020-05-19 10:07:52.487 -0400,1589897271.999916,41.35198208767729,-71.84495724011929,17.83307,0.6208264,-1,3.5109743450299,4.636550030068768,-9999,64086.46325725,0.0801239013671875,0.29925537109375,-0.9589385986328125,1,0.83
2020-05-19 10:07:52.537 -0400,1589897271.999916,41.35198208767729,-71.84495724011929,17.83307,0.6208264,-1,3.5109743450299,4.636550030068768,-9999,64086.51314525001,0.0540008544921875,0.351531982421875,-0.941680908203125,1,0.83
2020-05-19 10:07:52.587 -0400,1589897271.999916,41.35198208767729,-71.84495724011929,17.83307,0.6208264,-1,3.5109743450299,4.636550030068768,-9999,64086.56303625,0.0572509765625,0.3455352783203125,-0.934783935546875,1,0.83
2020-05-19 10:07:52.637 -0400,1589897271.999916,41.35198208767729,-71.84495724011929,17.83307,0.6208264,-1,3.5109743450299,4.636550030068768,-9999,64086.61293125001,0.0583343505859375,0.3477630615234375,-0.9437408447265625,1,0.83
2020-05-19 10:07:52.687 -0400,1589897271.999916,41.35198208767729,-71.84495724011929,17.83307,0.6208264,-1,3.5109743450299,4.636550030068768,-9999,64086.66282125001,0.0380859375,0.3426513671875,-0.9351806640625,1,0.83
2020-05-19 10:07:52.737 -0400,1589897271.999916,41.35198208767729,-71.84495724011929,17.83307,0.6208264,-1,3.5109743450299,4.636550030068768,-9999,64086.71271025,0.06414794921875,0.32611083984375,-0.958526611328125,1,0.83
2020-05-19 10:07:52.786 -0400,1589897271.999916,41.35198208767729,-71.84495724011929,17.83307,0.6208264,-1,3.5109743450299,4.636550030068768,-9999,64086.76260325,0.060333251953125,0.360321044921875,-0.9518890380859375,1,0.83
2020-05-19 10:07:52.837 -0400,1589897271.999916,41.35198208767729,-71.84495724011929,17.83307,0.6208264,-1,3.5109743450299,4.636550030068768,-9999,64086.81249425001,0.0695343017578125,0.334014892578125,-0.9362335205078125,1,0.83
2020-05-19 10:07:52.887 -0400,1589897271.999916,41.35198208767729,-71.84495724011929,17.83307,0.6208264,-1,3.5109743450299,4.636550030068768,-9999,64086.86238725,0.056304931640625,0.3540802001953125,-0.9453277587890625,1,0.83
2020-05-19 10:07:52.936 -0400,1589897271.999916,41.35198208767729,-71.84495724011929,17.83307,0.6208264,-1,3.5109743450299,4.636550030068768,-9999,64086.912280625,0.0448150634765625,0.3264007568359375,-0.9272308349609375,1,0.83
2020-05-19 10:07:52.986 -0400,1589897271.999916,41.35198208767729,-71.84495724011929,17.83307,0.6208264,-1,3.5109743450299,4.636550030068768,-9999,64086.962170625,0.0672149658203125,0.318511962890625,-0.9649658203125,1,0.83
2020-05-19 10:07:53.036 -0400,1589897271.999916,41.35198208767729,-71.84495724011929,17.83307,0.6208264,-1,3.5109743450299,4.636550030068768,-9999,64087.01206262501,0.039581298828125,0.35772705078125,-0.87872314453125,1,0.83
2020-05-19 10:07:53.086 -0400,1589897271.999916,41.35198208767729,-71.84495724011929,17.83307,0.6208264,-1,3.5109743450299,4.636550030068768,-9999,64087.061954625,0.0538177490234375,0.370086669921875,-0.9955596923828125,1,0.83
2020-05-19 10:07:53.136 -0400,1589897271.999916,41.35198208767729,-71.84495724011929,17.83307,0.6208264,-1,3.5109743450299,4.636550030068768,-9999,64087.111843625,0.035247802734375,0.3573150634765625,-0.913299560546875,1,0.83
2020-05-19 10:07:53.186 -0400,1589897271.999916,41.35198208767729,-71.84495724011929,17.83307,0.6208264,-1,3.5109743450299,4.636550030068768,-9999,64087.161730625,0.0754852294921875,0.393341064453125,-0.957061767578125,1,0.83
2020-05-19 10:07:53.236 -0400,1589897272.999921,41.35197795097466,-71.84495899194692,18.99743,0,-1,3.465229515226632,4.670837338164436,-9999,64087.21161762501,0.061676025390625,0.373382568359375,-1.02587890625,1,0.83
2020-05-19 10:07:53.286 -0400,1589897272.999921,41.35197795097466,-71.84495899194692,18.99743,0,-1,3.465229515226632,4.670837338164436,-9999,64087.261507625,0.0010528564453125,0.380218505859375,-1.029388427734375,1,0.83
2020-05-19 10:07:53.336 -0400,1589897272.999921,41.35197795097466,-71.84495899194692,18.99743,0,-1,3.465229515226632,4.670837338164436,-9999,64087.311397625,0.0463104248046875,0.2549285888671875,-0.9054718017578125,1,0.83
2020-05-19 10:07:53.386 -0400,1589897272.999921,41.35197795097466,-71.84495899194692,18.99743,0,-1,3.465229515226632,4.670837338164436,-9999,64087.361286625,-0.0052642822265625,0.1922454833984375,-0.89825439453125,1,0.83
2020-05-19 10:07:53.435 -0400,1589897272.999921,41.35197795097466,-71.84495899194692,18.99743,0,-1,3.465229515226632,4.670837338164436,-9999,64087.41117562501,-0.0541229248046875,0.256866455078125,-0.89788818359375,1,0.83
2020-05-19 10:07:53.485 -0400,1589897272.999921,41.35197795097466,-71.84495899194692,18.99743,0,-1,3.465229515226632,4.670837338164436,-9999,64087.461064625,-0.0135650634765625,0.207122802734375,-0.9642181396484375,1,0.83
2020-05-19 10:07:53.535 -0400,1589897272.999921,41.35197795097466,-71.84495899194692,18.99743,0,-1,3.465229515226632,4.670837338164436,-9999,64087.510953625,-0.03173828125,0.361053466796875,-0.9054718017578125,1,0.83
2020-05-19 10:07:53.585 -0400,1589897272.999921,41.35197795097466,-71.84495899194692,18.99743,0,-1,3.465229515226632,4.670837338164436,-9999,64087.560842625,-0.051116943359375,0.24505615234375,-1.000198364257812,1,0.83
2020-05-19 10:07:53.635 -0400,1589897272.999921,41.35197795097466,-71.84495899194692,18.99743,0,-1,3.465229515226632,4.670837338164436,-9999,64087.61073562501,-0.069610595703125,0.3062744140625,-0.9853668212890625,1,0.83
2020-05-19 10:07:53.685 -0400,1589897272.999921,41.35197795097466,-71.84495899194692,18.99743,0,-1,3.465229515226632,4.670837338164436,-9999,64087.660626625,0.006439208984375,0.235260009765625,-0.9809112548828125,1,0.83
2020-05-19 10:07:53.735 -0400,1589897272.999921,41.35197795097466,-71.84495899194692,18.99743,0,-1,3.465229515226632,4.670837338164436,-9999,64087.710518625,-0.03814697265625,0.2578887939453125,-0.9585113525390625,1,0.83
2020-05-19 10:07:53.785 -0400,1589897272.999921,41.35197795097466,-71.84495899194692,18.99743,0,-1,3.465229515226632,4.670837338164436,-9999,64087.760411625,-0.0316162109375,0.236175537109375,-0.928741455078125,1,0.83
2020-05-19 10:07:53.834 -0400,1589897272.999921,41.35197795097466,-71.84495899194692,18.99743,0,-1,3.465229515226632,4.670837338164436,-9999,64087.810300625,-0.0201873779296875,0.3487701416015625,-0.9907684326171875,1,0.83
2020-05-19 10:07:53.884 -0400,1589897272.999921,41.35197795097466,-71.84495899194692,18.99743,0,-1,3.465229515226632,4.670837338164436,-9999,64087.860190625,-0.044464111328125,0.379608154296875,-0.947113037109375,1,0.83
2020-05-19 10:07:53.934 -0400,1589897272.999921,41.35197795097466,-71.84495899194692,18.99743,0,-1,3.465229515226632,4.670837338164436,-9999,64087.910081,-0.0405120849609375,0.2884521484375,-0.973541259765625,1,0.83
2020-05-19 10:07:53.984 -0400,1589897272.999921,41.35197795097466,-71.84495899194692,18.99743,0,-1,3.465229515226632,4.670837338164436,-9999,64087.959973,-0.026031494140625,0.2778778076171875,-0.929046630859375,1,0.83
2020-05-19 10:07:54.034 -0400,1589897272.999921,41.35197795097466,-71.84495899194692,18.99743,0,-1,3.465229515226632,4.670837338164436,-9999,64088.00986300001,-0.02349853515625,0.3040771484375,-0.981689453125,1,0.83
2020-05-19 10:07:54.084 -0400,1589897272.999921,41.35197795097466,-71.84495899194692,18.99743,0,-1,3.465229515226632,4.670837338164436,-9999,64088.059756,-0.0389862060546875,0.296600341796875,-0.9447174072265625,1,0.83
2020-05-19 10:07:54.134 -0400,1589897272.999921,41.35197795097466,-71.84495899194692,18.99743,0,-1,3.465229515226632,4.670837338164436,-9999,64088.10965100001,-0.02166748046875,0.29620361328125,-0.948638916015625,1,0.83
2020-05-19 10:07:54.184 -0400,1589897272.999921,41.35197795097466,-71.84495899194692,18.99743,0,-1,3.465229515226632,4.670837338164436,-9999,64088.159546,-0.036376953125,0.2943115234375,-0.9583587646484375,1,0.83
2020-05-19 10:07:54.234 -0400,1589897273.999925,41.35198034839232,-71.84495808641719,18.57306,0,-1,3.477518545919855,4.661695163304041,-9999,64088.20943900001,-0.023284912109375,0.2777252197265625,-0.9711151123046875,1,0.83
2020-05-19 10:07:54.283 -0400,1589897273.999925,41.35198034839232,-71.84495808641719,18.57306,0,-1,3.477518545919855,4.661695163304041,-9999,64088.259332,-0.018707275390625,0.3423614501953125,-0.93255615234375,1,0.83
2020-05-19 10:07:54.333 -0400,1589897273.999925,41.35198034839232,-71.84495808641719,18.57306,0,-1,3.477518545919855,4.661695163304041,-9999,64088.309226,-0.0244903564453125,0.3494415283203125,-0.955413818359375,1,0.83
2020-05-19 10:07:54.383 -0400,1589897273.999925,41.35198034839232,-71.84495808641719,18.57306,0,-1,3.477518545919855,4.661695163304041,-9999,64088.35912,-0.044586181640625,0.3663787841796875,-0.9333038330078125,1,0.83
2020-05-19 10:07:54.433 -0400,1589897273.999925,41.35198034839232,-71.84495808641719,18.57306,0,-1,3.477518545919855,4.661695163304041,-9999,64088.409012,-0.019134521484375,0.3331451416015625,-0.90264892578125,1,0.83
2020-05-19 10:07:54.483 -0400,1589897273.999925,41.35198034839232,-71.84495808641719,18.57306,0,-1,3.477518545919855,4.661695163304041,-9999,64088.458908,-0.0149993896484375,0.403411865234375,-0.955230712890625,1,0.83
2020-05-19 10:07:54.533 -0400,1589897273.999925,41.35198034839232,-71.84495808641719,18.57306,0,-1,3.477518545919855,4.661695163304041,-9999,64088.5088,-0.0203094482421875,0.3240966796875,-0.924591064453125,1,0.83
