loggingTime(txt),locationTimestamp_since1970(s),locationLatitude(WGS84),locationLongitude(WGS84),locationAltitude(m),locationSpeed(m/s),locationCourse(°),locationVerticalAccuracy(m),locationHorizontalAccuracy(m),locationFloor(Z),accelerometerTimestamp_sinceReboot(s),accelerometerAccelerationX(G),accelerometerAccelerationY(G),accelerometerAccelerationZ(G),batteryState,batteryLevel
2020-05-19 09:59:13.316 -0400,1589896753.000292,41.35199101666596,-71.84496996985578,16.18907,0,2.588135238920255,3.450597778849624,4.68165697177686,-9999,63707.12694125,-0.451446533203125,-0.45233154296875,-0.766510009765625,1,0.84
2020-05-19 09:59:13.366 -0400,1589896753.000292,41.35199101666596,-71.84496996985578,16.18907,0,2.588135238920255,3.450597778849624,4.68165697177686,-9999,63707.17682325,-0.4495697021484375,-0.45013427734375,-0.7713165283203125,1,0.84
2020-05-19 09:59:13.416 -0400,1589896753.000292,41.35199101666596,-71.84496996985578,16.18907,0,2.588135238920255,3.450597778849624,4.68165697177686,-9999,63707.22670625,-0.4535980224609375,-0.447418212890625,-0.7697601318359375,1,0.84
2020-05-19 09:59:13.465 -0400,1589896753.000292,41.35199101666596,-71.84496996985578,16.18907,0,2.588135238920255,3.450597778849624,4.68165697177686,-9999,63707.27659025,-0.452117919921875,-0.4531097412109375,-0.76654052734375,1,0.84
2020-05-19 09:59:13.515 -0400,1589896753.000292,41.35199101666596,-71.84496996985578,16.18907,0,2.588135238920255,3.450597778849624,4.68165697177686,-9999,63707.32647425,-0.4488983154296875,-0.4553070068359375,-0.77471923828125,1,0.84
2020-05-19 09:59:13.565 -0400,1589896753.000292,41.35199101666596,-71.84496996985578,16.18907,0,2.588135238920255,3.450597778849624,4.68165697177686,-9999,63707.37635425,-0.4558258056640625,-0.43121337890625,-0.76812744140625,1,0.84
2020-05-19 09:59:13.615 -0400,1589896753.000292,41.35199101666596,-71.84496996985578,16.18907,0,2.588135238920255,3.450597778849624,4.68165697177686,-9999,63707.42623525,-0.45501708984375,-0.4637908935546875,-0.769195556640625,1,0.84
2020-05-19 09:59:13.665 -0400,1589896753.000292,41.35199101666596,-71.84496996985578,16.18907,0,2.588135238920255,3.450597778849624,4.68165697177686,-9999,63707.47611725,-0.4506378173828125,-0.46044921875,-0.769805908203125,1,0.84
2020-05-19 09:59:13.715 -0400,1589896753.000292,41.35199101666596,-71.84496996985578,16.18907,0,2.588135238920255,3.450597778849624,4.68165697177686,-9999,63707.52600004167,-0.4495086669921875,-0.423065185546875,-0.765869140625,1,0.84
2020-05-19 09:59:13.765 -0400,1589896753.000292,41.35199101666596,-71.84496996985578,16.18907,0,2.588135238920255,3.450597778849624,4.68165697177686,-9999,63707.57588404167,-0.4463958740234375,-0.4995880126953125,-0.714385986328125,1,0.84
2020-05-19 09:59:13.815 -0400,1589896753.000292,41.35199101666596,-71.84496996985578,16.18907,0,2.588135238920255,3.450597778849624,4.68165697177686,-9999,63707.62577004167,-0.458648681640625,-0.438201904296875,-0.7967376708984375,1,0.84
2020-05-19 09:59:13.865 -0400,1589896753.000292,41.35199101666596,-71.84496996985578,16.18907,0,2.588135238920255,3.450597778849624,4.68165697177686,-9999,63707.67565704167,-0.4693603515625,-0.4564971923828125,-0.757843017578125,1,0.84
2020-05-19 09:59:13.915 -0400,1589896753.000292,41.35199101666596,-71.84496996985578,16.18907,0,2.588135238920255,3.450597778849624,4.68165697177686,-9999,63707.72554704167,-0.4499359130859375,-0.35919189453125,-0.816314697265625,1,0.84
2020-05-19 09:59:13.965 -0400,1589896753.000292,41.35199101666596,-71.84496996985578,16.18907,0,2.588135238920255,3.450597778849624,4.68165697177686,-9999,63707.77543404167,-0.46197509765625,-0.205108642578125,-0.8386077880859375,1,0.84
2020-05-19 09:59:14.014 -0400,1589896753.000292,41.35199101666596,-71.84496996985578,16.18907,0,2.588135238920255,3.450597778849624,4.68165697177686,-9999,63707.82531904167,-0.472930908203125,0.023040771484375,-0.8827667236328125,1,0.84
2020-05-19 09:59:14.064 -0400,1589896753.000292,41.35199101666596,-71.84496996985578,16.18907,0,2.588135238920255,3.450597778849624,4.68165697177686,-9999,63707.87520404167,-0.4951019287109375,0.2337799072265625,-0.8719940185546875,1,0.84
2020-05-19 09:59:14.114 -0400,1589896753.000292,41.35199101666596,-71.84496996985578,16.18907,0,2.588135238920255,3.450597778849624,4.68165697177686,-9999,63707.92508904167,-0.5160980224609375,0.256011962890625,-0.8479766845703125,1,0.84
2020-05-19 09:59:14.164 -0400,1589896753.000292,41.35199101666596,-71.84496996985578,16.18907,0,2.588135238920255,3.450597778849624,4.68165697177686,-9999,63707.97497304167,-0.5078582763671875,0.2127532958984375,-0.85235595703125,1,0.84
2020-05-19 09:59:14.214 -0400,1589896753.000292,41.35199101666596,-71.84496996985578,16.18907,0,2.588135238920255,3.450597778849624,4.68165697177686,-9999,63708.02485604167,-0.4898529052734375,0.3235321044921875,-0.817291259765625,1,0.84
2020-05-19 09:59:14.264 -0400,1589896754.000295,41.35199130564684,-71.84496978623773,16.16743,0,2.588135421898743,3.451979973614689,4.680637915343588,-9999,63708.07474204167,-0.5037689208984375,0.3200225830078125,-0.772705078125,1,0.84
2020-05-19 09:59:14.314 -0400,1589896754.000295,41.35199130564684,-71.84496978623773,16.16743,0,2.588135421898743,3.451979973614689,4.680637915343588,-9999,63708.12462704167,-0.5058746337890625,0.405487060546875,-0.7503662109375,1,0.84
2020-05-19 09:59:14.364 -0400,1589896754.000295,41.35199130564684,-71.84496978623773,16.16743,0,2.588135421898743,3.451979973614689,4.680637915343588,-9999,63708.17451304167,-0.5225067138671875,0.4419097900390625,-0.7326812744140625,1,0.84
2020-05-19 09:59:14.414 -0400,1589896754.000295,41.35199130564684,-71.84496978623773,16.16743,0,2.588135421898743,3.451979973614689,4.680637915343588,-9999,63708.22439704167,-0.5100555419921875,0.5079193115234375,-0.7314300537109375,1,0.84
2020-05-19 09:59:14.463 -0400,1589896754.000295,41.35199130564684,-71.84496978623773,16.16743,0,2.588135421898743,3.451979973614689,4.680637915343588,-9999,63708.27428004167,-0.513153076171875,0.4488372802734375,-0.7482147216796875,1,0.84
2020-05-19 09:59:14.513 -0400,1589896754.000295,41.35199130564684,-71.84496978623773,16.16743,0,2.588135421898743,3.451979973614689,4.680637915343588,-9999,63708.32416504167,-0.506072998046875,0.483795166015625,-0.73004150390625,1,0.84
2020-05-19 09:59:14.563 -0400,1589896754.000295,41.35199130564684,-71.84496978623773,16.16743,0,2.588135421898743,3.451979973614689,4.680637915343588,-9999,63708.37404904167,-0.4903564453125,0.462158203125,-0.7242584228515625,1,0.84
2020-05-19 09:59:14.613 -0400,1589896754.000295,41.35199130564684,-71.84496978623773,16.16743,0,2.588135421898743,3.451979973614689,4.680637915343588,-9999,63708.42393304167,-0.512176513671875,0.4925689697265625,-0.72723388671875,1,0.84
2020-05-19 09:59:14.663 -0400,1589896754.000295,41.35199130564684,-71.84496978623773,16.16743,0,2.588135421898743,3.451979973614689,4.680637915343588,-9999,63708.47381504167,-0.4819488525390625,0.46087646484375,-0.7728729248046875,1,0.84
2020-05-19 09:59:14.713 -0400,1589896754.000295,41.35199130564684,-71.84496978623773,16.16743,0,2.588135421898743,3.451979973614689,4.680637915343588,-9999,63708.52369741667,-0.5047607421875,0.4610137939453125,-0.750213623046875,1,0.84
2020-05-19 09:59:14.763 -0400,1589896754.000295,41.35199130564684,-71.84496978623773,16.16743,0,2.588135421898743,3.451979973614689,4.680637915343588,-9999,63708.57358041667,-0.485107421875,0.4712982177734375,-0.7495269775390625,1,0.84
2020-05-19 09:59:14.813 -0400,1589896754.000295,41.35199130564684,-71.84496978623773,16.16743,0,2.588135421898743,3.451979973614689,4.680637915343588,-9999,63708.62346441667,-0.4797210693359375,0.3791961669921875,-0.7884979248046875,1,0.84
2020-05-19 09:59:14.863 -0400,1589896754.000295,41.35199130564684,-71.84496978623773,16.16743,0,2.588135421898743,3.451979973614689,4.680637915343588,-9999,63708.67334341667,-0.4825897216796875,0.373016357421875,-0.7860107421875,1,0.84
2020-05-19 09:59:14.912 -0400,1589896754.000295,41.35199130564684,-71.84496978623773,16.16743,0,2.588135421898743,3.451979973614689,4.680637915343588,-9999,63708.72322341667,-0.4970855712890625,0.2726898193359375,-0.830902099609375,1,0.84
2020-05-19 09:59:14.963 -0400,1589896754.000295,41.35199130564684,-71.84496978623773,16.16743,0,2.588135421898743,3.451979973614689,4.680637915343588,-9999,63708.77310441667,-0.506561279296875,0.3616790771484375,-0.7667999267578125,1,0.84
2020-05-19 09:59:15.012 -0400,1589896754.000295,41.35199130564684,-71.84496978623773,16.16743,0,2.588135421898743,3.451979973614689,4.680637915343588,-9999,63708.82298741667,-0.474853515625,0.290924072265625,-0.848388671875,1,0.84
2020-05-19 09:59:15.062 -0400,1589896754.000295,41.35199130564684,-71.84496978623773,16.16743,0,2.588135421898743,3.451979973614689,4.680637915343588,-9999,63708.87286941667,-0.45782470703125,0.2799530029296875,-0.8814849853515625,1,0.84
2020-05-19 09:59:15.112 -0400,1589896754.000295,41.35199130564684,-71.84496978623773,16.16743,0,2.588135421898743,3.451979973614689,4.680637915343588,-9999,63708.92275541667,-0.4786834716796875,0.0330047607421875,-0.8281402587890625,1,0.84
2020-05-19 09:59:15.162 -0400,1589896754.000295,41.35199130564684,-71.84496978623773,16.16743,0,2.588135421898743,3.451979973614689,4.680637915343588,-9999,63708.97264041667,-0.507659912109375,0.2720184326171875,-0.8704681396484375,1,0.84
2020-05-19 09:59:15.212 -0400,1589896754.000295,41.35199130564684,-71.84496978623773,16.16743,0,2.588135421898743,3.451979973614689,4.680637915343588,-9999,63709.02252241667,-0.566253662109375,0.141448974609375,-0.76800537109375,1,0.84
2020-05-19 09:59:15.261 -0400,1589896754.000295,41.35199130564684,-71.84496978623773,16.16743,0,2.588135421898743,3.451979973614689,4.680637915343588,-9999,63709.07240441667,-0.500579833984375,0.231658935546875,-0.85552978515625,1,0.84
2020-05-19 09:59:15.311 -0400,1589896755.000309,41.35198938245926,-71.84497184265722,16.43145,0,2.588133343304619,3.451068281407918,4.681310153135449,-9999,63709.12228841667,-0.469879150390625,0.1494903564453125,-0.8777618408203125,1,0.84
2020-05-19 09:59:15.361 -0400,1589896755.000309,41.35198938245926,-71.84497184265722,16.43145,0,2.588133343304619,3.451068281407918,4.681310153135449,-9999,63709.17217241667,-0.474578857421875,0.1934967041015625,-0.8358001708984375,1,0.84
2020-05-19 09:59:15.411 -0400,1589896755.000309,41.35198938245926,-71.84497184265722,16.43145,0,2.588133343304619,3.451068281407918,4.681310153135449,-9999,63709.22205041667,-0.49627685546875,0.192230224609375,-0.859771728515625,1,0.84
2020-05-19 09:59:15.461 -0400,1589896755.000309,41.35198938245926,-71.84497184265722,16.43145,0,2.588133343304619,3.451068281407918,4.681310153135449,-9999,63709.27192941667,-0.496490478515625,0.123504638671875,-0.886077880859375,1,0.84
2020-05-19 09:59:15.511 -0400,1589896755.000309,41.35198938245926,-71.84497184265722,16.43145,0,2.588133343304619,3.451068281407918,4.681310153135449,-9999,63709.32181241667,-0.46026611328125,0.1436004638671875,-0.870758056640625,1,0.84
2020-05-19 09:59:15.561 -0400,1589896755.000309,41.35198938245926,-71.84497184265722,16.43145,0,2.588133343304619,3.451068281407918,4.681310153135449,-9999,63709.37169441667,-0.4441070556640625,0.1926116943359375,-0.8568878173828125,1,0.84
2020-05-19 09:59:15.611 -0400,1589896755.000309,41.35198938245926,-71.84497184265722,16.43145,0,2.588133343304619,3.451068281407918,4.681310153135449,-9999,63709.42157741667,-0.4849700927734375,0.1671295166015625,-0.8477935791015625,1,0.84
2020-05-19 09:59:15.661 -0400,1589896755.000309,41.35198938245926,-71.84497184265722,16.43145,0,2.588133343304619,3.451068281407918,4.681310153135449,-9999,63709.47146041667,-0.5029449462890625,0.1153717041015625,-0.8791351318359375,1,0.84
2020-05-19 09:59:15.710 -0400,1589896755.000309,41.35198938245926,-71.84497184265722,16.43145,0,2.588133343304619,3.451068281407918,4.681310153135449,-9999,63709.52134775001,-0.492645263671875,0.1739654541015625,-0.8638458251953125,1,0.84
2020-05-19 09:59:15.760 -0400,1589896755.000309,41.35198938245926,-71.84497184265722,16.43145,0,2.588133343304619,3.451068281407918,4.681310153135449,-9999,63709.57123375,-0.478271484375,0.2019195556640625,-0.8573455810546875,1,0.84
2020-05-19 09:59:15.810 -0400,1589896755.000309,41.35198938245926,-71.84497184265722,16.43145,0,2.588133343304619,3.451068281407918,4.681310153135449,-9999,63709.62111775,-0.495452880859375,0.166961669921875,-0.836639404296875,1,0.84
2020-05-19 09:59:15.860 -0400,1589896755.000309,41.35198938245926,-71.84497184265722,16.43145,0,2.588133343304619,3.451068281407918,4.681310153135449,-9999,63709.67100275,-0.50103759765625,0.156463623046875,-0.8416290283203125,1,0.84
2020-05-19 09:59:15.910 -0400,1589896755.000309,41.35198938245926,-71.84497184265722,16.43145,0,2.588133343304619,3.451068281407918,4.681310153135449,-9999,63709.72088775,-0.4938812255859375,0.1630096435546875,-0.86407470703125,1,0.84
2020-05-19 09:59:15.960 -0400,1589896755.000309,41.35198938245926,-71.84497184265722,16.43145,0,2.588133343304619,3.451068281407918,4.681310153135449,-9999,63709.77077675,-0.481658935546875,0.14642333984375,-0.8370513916015625,1,0.84
2020-05-19 09:59:16.010 -0400,1589896755.000309,41.35198938245926,-71.84497184265722,16.43145,0,2.588133343304619,3.451068281407918,4.681310153135449,-9999,63709.82066375,-0.503387451171875,0.18829345703125,-0.86663818359375,1,0.84
2020-05-19 09:59:16.060 -0400,1589896755.000309,41.35198938245926,-71.84497184265722,16.43145,0,2.588133343304619,3.451068281407918,4.681310153135449,-9999,63709.87054975001,-0.49725341796875,0.271331787109375,-0.849578857421875,1,0.84
2020-05-19 09:59:16.109 -0400,1589896755.000309,41.35198938245926,-71.84497184265722,16.43145,0,2.588133343304619,3.451068281407918,4.681310153135449,-9999,63709.92043575001,-0.4799346923828125,0.1997222900390625,-0.847198486328125,1,0.84
2020-05-19 09:59:16.160 -0400,1589896755.000309,41.35198938245926,-71.84497184265722,16.43145,0,2.588133343304619,3.451068281407918,4.681310153135449,-9999,63709.97032275001,-0.468505859375,0.2111663818359375,-0.8730010986328125,1,0.84
2020-05-19 09:59:16.209 -0400,1589896756.000301,41.35199150550834,-71.8449701650206,13.57917,1.309357,-1,3.444459078519558,4.686175272991082,-9999,63710.02020875001,-0.46044921875,0.160858154296875,-0.8710174560546875,1,0.84
2020-05-19 09:59:16.259 -0400,1589896756.000301,41.35199150550834,-71.8449701650206,13.57917,1.309357,-1,3.444459078519558,4.686175272991082,-9999,63710.07009675,-0.45111083984375,0.1551971435546875,-0.8553924560546875,1,0.84
2020-05-19 09:59:16.309 -0400,1589896756.000301,41.35199150550834,-71.8449701650206,13.57917,1.309357,-1,3.444459078519558,4.686175272991082,-9999,63710.11997875,-0.4715728759765625,0.1411285400390625,-0.843994140625,1,0.84
2020-05-19 09:59:16.359 -0400,1589896756.000301,41.35199150550834,-71.8449701650206,13.57917,1.309357,-1,3.444459078519558,4.686175272991082,-9999,63710.16986175,-0.50115966796875,0.16790771484375,-0.8549346923828125,1,0.84
2020-05-19 09:59:16.409 -0400,1589896756.000301,41.35199150550834,-71.8449701650206,13.57917,1.309357,-1,3.444459078519558,4.686175272991082,-9999,63710.21974475,-0.504241943359375,0.200225830078125,-0.8809814453125,1,0.84
2020-05-19 09:59:16.459 -0400,1589896756.000301,41.35199150550834,-71.8449701650206,13.57917,1.309357,-1,3.444459078519558,4.686175272991082,-9999,63710.26962975,-0.486541748046875,0.201629638671875,-0.8738861083984375,1,0.84
2020-05-19 09:59:16.509 -0400,1589896756.000301,41.35199150550834,-71.8449701650206,13.57917,1.309357,-1,3.444459078519558,4.686175272991082,-9999,63710.31951575,-0.4696807861328125,0.1652679443359375,-0.859588623046875,1,0.84
2020-05-19 09:59:16.558 -0400,1589896756.000301,41.35199150550834,-71.8449701650206,13.57917,1.309357,-1,3.444459078519558,4.686175272991082,-9999,63710.36940275,-0.4728546142578125,0.1516571044921875,-0.8480682373046875,1,0.84
2020-05-19 09:59:16.608 -0400,1589896756.000301,41.35199150550834,-71.8449701650206,13.57917,1.309357,-1,3.444459078519558,4.686175272991082,-9999,63710.41929275,-0.4768524169921875,0.15673828125,-0.8586578369140625,1,0.84
2020-05-19 09:59:16.658 -0400,1589896756.000301,41.35199150550834,-71.8449701650206,13.57917,1.309357,-1,3.444459078519558,4.686175272991082,-9999,63710.46917675,-0.4806060791015625,0.160064697265625,-0.85791015625,1,0.84
2020-05-19 09:59:16.708 -0400,1589896756.000301,41.35199150550834,-71.8449701650206,13.57917,1.309357,-1,3.444459078519558,4.686175272991082,-9999,63710.51906391667,-0.488067626953125,0.169189453125,-0.8614654541015625,1,0.84
2020-05-19 09:59:16.758 -0400,1589896756.000301,41.35199150550834,-71.8449701650206,13.57917,1.309357,-1,3.444459078519558,4.686175272991082,-9999,63710.56895091667,-0.493255615234375,0.1808013916015625,-0.865570068359375,1,0.84
2020-05-19 09:59:16.808 -0400,1589896756.000301,41.35199150550834,-71.8449701650206,13.57917,1.309357,-1,3.444459078519558,4.686175272991082,-9999,63710.61883691667,-0.4843292236328125,0.1653594970703125,-0.8700408935546875,1,0.84
2020-05-19 09:59:16.858 -0400,1589896756.000301,41.35199150550834,-71.8449701650206,13.57917,1.309357,-1,3.444459078519558,4.686175272991082,-9999,63710.66872091667,-0.480255126953125,0.1801300048828125,-0.8482208251953125,1,0.84
2020-05-19 09:59:16.908 -0400,1589896756.000301,41.35199150550834,-71.8449701650206,13.57917,1.309357,-1,3.444459078519558,4.686175272991082,-9999,63710.71860491667,-0.49200439453125,0.1658782958984375,-0.8553009033203125,1,0.84
2020-05-19 09:59:16.958 -0400,1589896756.000301,41.35199150550834,-71.8449701650206,13.57917,1.309357,-1,3.444459078519558,4.686175272991082,-9999,63710.76849191667,-0.4781341552734375,0.15618896484375,-0.8654937744140625,1,0.84
2020-05-19 09:59:17.008 -0400,1589896756.000301,41.35199150550834,-71.8449701650206,13.57917,1.309357,-1,3.444459078519558,4.686175272991082,-9999,63710.81837891667,-0.476959228515625,0.15594482421875,-0.862457275390625,1,0.84
2020-05-19 09:59:17.057 -0400,1589896756.000301,41.35199150550834,-71.8449701650206,13.57917,1.309357,-1,3.444459078519558,4.686175272991082,-9999,63710.86826491667,-0.486907958984375,0.1721343994140625,-0.85699462890625,1,0.84
2020-05-19 09:59:17.107 -0400,1589896756.000301,41.35199150550834,-71.8449701650206,13.57917,1.309357,-1,3.444459078519558,4.686175272991082,-9999,63710.91814991667,-0.496734619140625,0.2761077880859375,-0.8285675048828125,1,0.84
2020-05-19 09:59:17.157 -0400,1589896756.000301,41.35199150550834,-71.8449701650206,13.57917,1.309357,-1,3.444459078519558,4.686175272991082,-9999,63710.96803391667,-0.418701171875,0.0260467529296875,-0.9590301513671875,1,0.84
2020-05-19 09:59:17.207 -0400,1589896756.000301,41.35199150550834,-71.8449701650206,13.57917,1.309357,-1,3.444459078519558,4.686175272991082,-9999,63711.01791791667,-0.4253387451171875,0.1223297119140625,-0.8919830322265625,1,0.84
2020-05-19 09:59:17.257 -0400,1589896757.000305,41.35199179108018,-71.84496996612212,12.70342,1.11501,-1,3.480531423542546,4.659446108983528,-9999,63711.06780291667,-0.5153350830078125,0.072479248046875,-0.8398284912109375,1,0.84
2020-05-19 09:59:17.307 -0400,1589896757.000305,41.35199179108018,-71.84496996612212,12.70342,1.11501,-1,3.480531423542546,4.659446108983528,-9999,63711.11768891667,-0.5507965087890625,0.13824462890625,-0.81158447265625,1,0.84
2020-05-19 09:59:17.357 -0400,1589896757.000305,41.35199179108018,-71.84496996612212,12.70342,1.11501,-1,3.480531423542546,4.659446108983528,-9999,63711.16757391667,-0.52337646484375,-0.00714111328125,-0.769775390625,1,0.84
2020-05-19 09:59:17.406 -0400,1589896757.000305,41.35199179108018,-71.84496996612212,12.70342,1.11501,-1,3.480531423542546,4.659446108983528,-9999,63711.21745591667,-0.49639892578125,0.051971435546875,-0.8753814697265625,1,0.84
2020-05-19 09:59:17.456 -0400,1589896757.000305,41.35199179108018,-71.84496996612212,12.70342,1.11501,-1,3.480531423542546,4.659446108983528,-9999,63711.26733691667,-0.4693145751953125,0.1313323974609375,-0.8893890380859375,1,0.84
2020-05-19 09:59:17.506 -0400,1589896757.000305,41.35199179108018,-71.84496996612212,12.70342,1.11501,-1,3.480531423542546,4.659446108983528,-9999,63711.31721991667,-0.4475250244140625,0.115509033203125,-0.9365692138671875,1,0.84
2020-05-19 09:59:17.556 -0400,1589896757.000305,41.35199179108018,-71.84496996612212,12.70342,1.11501,-1,3.480531423542546,4.659446108983528,-9999,63711.36710391667,-0.4721832275390625,0.0681915283203125,-0.868560791015625,1,0.84
2020-05-19 09:59:17.606 -0400,1589896757.000305,41.35199179108018,-71.84496996612212,12.70342,1.11501,-1,3.480531423542546,4.659446108983528,-9999,63711.41699091667,-0.4725494384765625,0.1248626708984375,-0.8939056396484375,1,0.84
2020-05-19 09:59:17.656 -0400,1589896757.000305,41.35199179108018,-71.84496996612212,12.70342,1.11501,-1,3.480531423542546,4.659446108983528,-9999,63711.46687991667,-0.4490509033203125,0.085174560546875,-0.880401611328125,1,0.84
2020-05-19 09:59:17.706 -0400,1589896757.000305,41.35199179108018,-71.84496996612212,12.70342,1.11501,-1,3.480531423542546,4.659446108983528,-9999,63711.51677029167,-0.455535888671875,0.09466552734375,-0.880889892578125,1,0.84
2020-05-19 09:59:17.756 -0400,1589896757.000305,41.35199179108018,-71.84496996612212,12.70342,1.11501,-1,3.480531423542546,4.659446108983528,-9999,63711.56665629167,-0.455780029296875,0.0885162353515625,-0.8698883056640625,1,0.84
2020-05-19 09:59:17.806 -0400,1589896757.000305,41.35199179108018,-71.84496996612212,12.70342,1.11501,-1,3.480531423542546,4.659446108983528,-9999,63711.61654029167,-0.4871978759765625,0.074127197265625,-0.8823394775390625,1,0.84
2020-05-19 09:59:17.855 -0400,1589896757.000305,41.35199179108018,-71.84496996612212,12.70342,1.11501,-1,3.480531423542546,4.659446108983528,-9999,63711.66642229167,-0.4669036865234375,0.079345703125,-0.9097747802734375,1,0.84
2020-05-19 09:59:17.906 -0400,1589896757.000305,41.35199179108018,-71.84496996612212,12.70342,1.11501,-1,3.480531423542546,4.659446108983528,-9999,63711.71630229167,-0.4862823486328125,0.0625,-0.851654052734375,1,0.84
2020-05-19 09:59:17.955 -0400,1589896757.000305,41.35199179108018,-71.84496996612212,12.70342,1.11501,-1,3.480531423542546,4.659446108983528,-9999,63711.76618529167,-0.4647369384765625,0.0912628173828125,-0.8863525390625,1,0.84
2020-05-19 09:59:18.005 -0400,1589896757.000305,41.35199179108018,-71.84496996612212,12.70342,1.11501,-1,3.480531423542546,4.659446108983528,-9999,63711.81606829167,-0.495452880859375,-0.0092620849609375,-0.81494140625,1,0.84
2020-05-19 09:59:18.055 -0400,1589896757.000305,41.35199179108018,-71.84496996612212,12.70342,1.11501,-1,3.480531423542546,4.659446108983528,-9999,63711.86595129167,-0.438385009765625,0.309051513671875,-0.94134521484375,1,0.84
2020-05-19 09:59:18.105 -0400,1589896757.000305,41.35199179108018,-71.84496996612212,12.70342,1.11501,-1,3.480531423542546,4.659446108983528,-9999,63711.91583629167,-0.517913818359375,0.35565185546875,-0.7884368896484375,1,0.84
2020-05-19 09:59:18.155 -0400,1589896757.000305,41.35199179108018,-71.84496996612212,12.70342,1.11501,-1,3.480531423542546,4.659446108983528,-9999,63711.96571929167,-0.529815673828125,0.2493438720703125,-0.701568603515625,1,0.84
2020-05-19 09:59:18.205 -0400,1589896758.000307,41.35199893395836,-71.84495456125617,11.69479,1.183228,-1,3.505105510394666,4.640988299251548,-9999,63712.01560329167,-0.4441680908203125,0.2584228515625,-0.86920166015625,1,0.84
2020-05-19 09:59:18.255 -0400,1589896758.000307,41.35199893395836,-71.84495456125617,11.69479,1.183228,-1,3.505105510394666,4.640988299251548,-9999,63712.06548829167,-0.443450927734375,0.2457275390625,-0.9243316650390625,1,0.84
2020-05-19 09:59:18.304 -0400,1589896758.000307,41.35199893395836,-71.84495456125617,11.69479,1.183228,-1,3.505105510394666,4.640988299251548,-9999,63712.11537529167,-0.4834442138671875,0.1321563720703125,-0.8132781982421875,1,0.84
2020-05-19 09:59:18.354 -0400,1589896758.000307,41.35199893395836,-71.84495456125617,11.69479,1.183228,-1,3.505105510394666,4.640988299251548,-9999,63712.16526129167,-0.481536865234375,0.1862335205078125,-0.841339111328125,1,0.84
2020-05-19 09:59:18.404 -0400,1589896758.000307,41.35199893395836,-71.84495456125617,11.69479,1.183228,-1,3.505105510394666,4.640988299251548,-9999,63712.21514829167,-0.5093841552734375,0.2089080810546875,-0.845794677734375,1,0.84
2020-05-19 09:59:18.454 -0400,1589896758.000307,41.35199893395836,-71.84495456125617,11.69479,1.183228,-1,3.505105510394666,4.640988299251548,-9999,63712.26503429167,-0.5175018310546875,0.1982879638671875,-0.8748931884765625,1,0.84
2020-05-19 09:59:18.504 -0400,1589896758.000307,41.35199893395836,-71.84495456125617,11.69479,1.183228,-1,3.505105510394666,4.640988299251548,-9999,63712.31492129167,-0.4982757568359375,0.2264251708984375,-0.853424072265625,1,0.84
2020-05-19 09:59:18.554 -0400,1589896758.000307,41.35199893395836,-71.84495456125617,11.69479,1.183228,-1,3.505105510394666,4.640988299251548,-9999,63712.36480829167,-0.516693115234375,0.2271270751953125,-0.8677978515625,1,0.84
2020-05-19 09:59:18.604 -0400,1589896758.000307,41.35199893395836,-71.84495456125617,11.69479,1.183228,-1,3.505105510394666,4.640988299251548,-9999,63712.41469529167,-0.518157958984375,0.2046966552734375,-0.847625732421875,1,0.84
2020-05-19 09:59:18.654 -0400,1589896758.000307,41.35199893395836,-71.84495456125617,11.69479,1.183228,-1,3.505105510394666,4.640988299251548,-9999,63712.46458129167,-0.49090576171875,0.2140960693359375,-0.82464599609375,1,0.84
2020-05-19 09:59:18.704 -0400,1589896758.000307,41.35199893395836,-71.84495456125617,11.69479,1.183228,-1,3.505105510394666,4.640988299251548,-9999,63712.5144655,-0.478424072265625,0.1256561279296875,-0.8325958251953125,1,0.84
2020-05-19 09:59:18.753 -0400,1589896758.000307,41.35199893395836,-71.84495456125617,11.69479,1.183228,-1,3.505105510394666,4.640988299251548,-9999,63712.5643515,-0.476806640625,0.1693572998046875,-0.8523406982421875,1,0.84
2020-05-19 09:59:18.803 -0400,1589896758.000307,41.35199893395836,-71.84495456125617,11.69479,1.183228,-1,3.505105510394666,4.640988299251548,-9999,63712.61423750001,-0.5135650634765625,0.246307373046875,-0.8682708740234375,1,0.84
2020-05-19 09:59:18.853 -0400,1589896758.000307,41.35199893395836,-71.84495456125617,11.69479,1.183228,-1,3.505105510394666,4.640988299251548,-9999,63712.66412350001,-0.4911346435546875,0.377716064453125,-0.8432769775390625,1,0.84
2020-05-19 09:59:18.903 -0400,1589896758.000307,41.35199893395836,-71.84495456125617,11.69479,1.183228,-1,3.505105510394666,4.640988299251548,-9999,63712.71401050001,-0.468902587890625,0.4921722412109375,-0.833160400390625,1,0.84
2020-05-19 09:59:18.953 -0400,1589896758.000307,41.35199893395836,-71.84495456125617,11.69479,1.183228,-1,3.505105510394666,4.640988299251548,-9999,63712.7638965,-0.437347412109375,0.3688812255859375,-0.8119964599609375,1,0.84
2020-05-19 09:59:19.003 -0400,1589896758.000307,41.35199893395836,-71.84495456125617,11.69479,1.183228,-1,3.505105510394666,4.640988299251548,-9999,63712.8137835,-0.4364013671875,0.4230194091796875,-0.7509307861328125,1,0.84
2020-05-19 09:59:19.053 -0400,1589896758.000307,41.35199893395836,-71.84495456125617,11.69479,1.183228,-1,3.505105510394666,4.640988299251548,-9999,63712.8636705,-0.4795684814453125,0.5498046875,-0.84552001953125,1,0.84
2020-05-19 09:59:19.103 -0400,1589896758.000307,41.35199893395836,-71.84495456125617,11.69479,1.183228,-1,3.505105510394666,4.640988299251548,-9999,63712.9135595,-0.5241851806640625,0.474365234375,-0.9346466064453125,1,0.84
2020-05-19 09:59:19.153 -0400,1589896758.000307,41.35199893395836,-71.84495456125617,11.69479,1.183228,-1,3.505105510394666,4.640988299251548,-9999,63712.96345150001,-0.466064453125,0.3824462890625,-0.8044586181640625,1,0.84
2020-05-19 09:59:19.202 -0400,1589896758.000307,41.35199893395836,-71.84495456125617,11.69479,1.183228,-1,3.505105510394666,4.640988299251548,-9999,63713.0133435,-0.4048309326171875,0.4625701904296875,-0.648284912109375,1,0.84
2020-05-19 09:59:19.252 -0400,1589896759.000311,41.35200538059362,-71.84494680831827,13.91426,0,-1,3.508306622636646,4.638568925256225,-9999,63713.0632315,-0.29632568359375,0.47686767578125,-0.666229248046875,1,0.84
2020-05-19 09:59:19.302 -0400,1589896759.000311,41.35200538059362,-71.84494680831827,13.91426,0,-1,3.508306622636646,4.638568925256225,-9999,63713.1131185,-0.2773895263671875,0.7855072021484375,-0.78143310546875,1,0.84
2020-05-19 09:59:19.352 -0400,1589896759.000311,41.35200538059362,-71.84494680831827,13.91426,0,-1,3.508306622636646,4.638568925256225,-9999,63713.16300350001,-0.19598388671875,0.8155975341796875,-0.6996002197265625,1,0.84
2020-05-19 09:59:19.402 -0400,1589896759.000311,41.35200538059362,-71.84494680831827,13.91426,0,-1,3.508306622636646,4.638568925256225,-9999,63713.21289050001,-0.1024932861328125,0.650787353515625,-0.711669921875,1,0.84
2020-05-19 09:59:19.452 -0400,1589896759.000311,41.35200538059362,-71.84494680831827,13.91426,0,-1,3.508306622636646,4.638568925256225,-9999,63713.26277750001,0.0225067138671875,0.7512054443359375,-0.652862548828125,1,0.84
2020-05-19 09:59:19.502 -0400,1589896759.000311,41.35200538059362,-71.84494680831827,13.91426,0,-1,3.508306622636646,4.638568925256225,-9999,63713.3126625,-0.0709228515625,0.6278228759765625,-0.5661468505859375,1,0.84
2020-05-19 09:59:19.552 -0400,1589896759.000311,41.35200538059362,-71.84494680831827,13.91426,0,-1,3.508306622636646,4.638568925256225,-9999,63713.3625495,-0.06085205078125,0.658935546875,-0.689056396484375,1,0.84
2020-05-19 09:59:19.602 -0400,1589896759.000311,41.35200538059362,-71.84494680831827,13.91426,0,-1,3.508306622636646,4.638568925256225,-9999,63713.4124365,-0.0610504150390625,0.6558837890625,-0.6778717041015625,1,0.84
2020-05-19 09:59:19.651 -0400,1589896759.000311,41.35200538059362,-71.84494680831827,13.91426,0,-1,3.508306622636646,4.638568925256225,-9999,63713.4623275,0.01300048828125,0.611083984375,-0.7834930419921875,1,0.84
2020-05-19 09:59:19.701 -0400,1589896759.000311,41.35200538059362,-71.84494680831827,13.91426,0,-1,3.508306622636646,4.638568925256225,-9999,63713.51221579167,0.0650177001953125,0.71868896484375,-0.99725341796875,1,0.84
2020-05-19 09:59:19.751 -0400,1589896759.000311,41.35200538059362,-71.84494680831827,13.91426,0,-1,3.508306622636646,4.638568925256225,-9999,63713.56210079167,0.0891265869140625,0.605621337890625,-0.9979705810546875,1,0.84
2020-05-19 09:59:19.801 -0400,1589896759.000311,41.35200538059362,-71.84494680831827,13.91426,0,-1,3.508306622636646,4.638568925256225,-9999,63713.61198679167,0.104766845703125,0.5789642333984375,-0.876312255859375,1,0.84
2020-05-19 09:59:19.851 -0400,1589896759.000311,41.35200538059362,-71.84494680831827,13.91426,0,-1,3.508306622636646,4.638568925256225,-9999,63713.66187279167,0.153045654296875,0.5032806396484375,-0.742095947265625,1,0.84
2020-05-19 09:59:19.901 -0400,1589896759.000311,41.35200538059362,-71.84494680831827,13.91426,0,-1,3.508306622636646,4.638568925256225,-9999,63713.71176079167,0.154815673828125,0.4582672119140625,-0.7657012939453125,1,0.84
2020-05-19 09:59:19.952 -0400,1589896759.000311,41.35200538059362,-71.84494680831827,13.91426,0,-1,3.508306622636646,4.638568925256225,-9999,63713.76164779167,0.12115478515625,0.4203338623046875,-0.8044586181640625,1,0.84
2020-05-19 09:59:20.001 -0400,1589896759.000311,41.35200538059362,-71.84494680831827,13.91426,0,-1,3.508306622636646,4.638568925256225,-9999,63713.81153679167,0.0945587158203125,0.37628173828125,-0.8970947265625,1,0.84
2020-05-19 09:59:20.051 -0400,1589896759.000311,41.35200538059362,-71.84494680831827,13.91426,0,-1,3.508306622636646,4.638568925256225,-9999,63713.86142379167,0.0951995849609375,0.3418426513671875,-0.9788055419921875,1,0.84
2020-05-19 09:59:20.100 -0400,1589896759.000311,41.35200538059362,-71.84494680831827,13.91426,0,-1,3.508306622636646,4.638568925256225,-9999,63713.91131179167,0.06817626953125,0.2358245849609375,-0.961944580078125,1,0.84
2020-05-19 09:59:20.150 -0400,1589896759.000311,41.35200538059362,-71.84494680831827,13.91426,0,-1,3.508306622636646,4.638568925256225,-9999,63713.96119779167,0.0643463134765625,0.18487548828125,-0.94384765625,1,0.84
2020-05-19 09:59:20.200 -0400,1589896759.000311,41.35200538059362,-71.84494680831827,13.91426,0,-1,3.508306622636646,4.638568925256225,-9999,63714.01108279167,0.067230224609375,0.2655487060546875,-1.047027587890625,1,0.84
2020-05-19 09:59:20.250 -0400,1589896760.000315,41.35200544686013,-71.84495107189944,14.70449,0,-1,3.5102577450661,4.637092580054047,-9999,63714.06096879167,-0.023773193359375,0.281097412109375,-0.986175537109375,1,0.84
2020-05-19 09:59:20.300 -0400,1589896760.000315,41.35200544686013,-71.84495107189944,14.70449,0,-1,3.5102577450661,4.637092580054047,-9999,63714.11085379167,-0.0770721435546875,0.24346923828125,-0.947174072265625,1,0.84
2020-05-19 09:59:20.350 -0400,1589896760.000315,41.35200544686013,-71.84495107189944,14.70449,0,-1,3.5102577450661,4.637092580054047,-9999,63714.16074179167,-0.0305633544921875,0.172821044921875,-0.924072265625,1,0.84
2020-05-19 09:59:20.400 -0400,1589896760.000315,41.35200544686013,-71.84495107189944,14.70449,0,-1,3.5102577450661,4.637092580054047,-9999,63714.21062779167,0.0408477783203125,0.1829986572265625,-0.9441986083984375,1,0.84
2020-05-19 09:59:20.452 -0400,1589896760.000315,41.35200544686013,-71.84495107189944,14.70449,0,-1,3.5102577450661,4.637092580054047,-9999,63714.26051479167,0.0675048828125,0.258087158203125,-0.96759033203125,1,0.84
2020-05-19 09:59:20.500 -0400,1589896760.000315,41.35200544686013,-71.84495107189944,14.70449,0,-1,3.5102577450661,4.637092580054047,-9999,63714.31040279167,0.0320587158203125,0.3321075439453125,-0.9650115966796875,1,0.84
2020-05-19 09:59:20.549 -0400,1589896760.000315,41.35200544686013,-71.84495107189944,14.70449,0,-1,3.5102577450661,4.637092580054047,-9999,63714.36028979167,-0.0131072998046875,0.356231689453125,-0.9670562744140625,1,0.84
2020-05-19 09:59:20.599 -0400,1589896760.000315,41.35200544686013,-71.84495107189944,14.70449,0,-1,3.5102577450661,4.637092580054047,-9999,63714.41017879167,-0.0580902099609375,0.338775634765625,-1.03497314453125,1,0.84
2020-05-19 09:59:20.649 -0400,1589896760.000315,41.35200544686013,-71.84495107189944,14.70449,0,-1,3.5102577450661,4.637092580054047,-9999,63714.46006479167,-0.04803466796875,0.330657958984375,-1.061248779296875,1,0.84
2020-05-19 09:59:20.699 -0400,1589896760.000315,41.35200544686013,-71.84495107189944,14.70449,0,-1,3.5102577450661,4.637092580054047,-9999,63714.50995029167,-0.01336669921875,0.4033050537109375,-1.0516357421875,1,0.84
2020-05-19 09:59:20.749 -0400,1589896760.000315,41.35200544686013,-71.84495107189944,14.70449,0,-1,3.5102577450661,4.637092580054047,-9999,63714.55983929167,0.0868682861328125,0.37811279296875,-1.04193115234375,1,0.84
2020-05-19 09:59:20.799 -0400,1589896760.000315,41.35200544686013,-71.84495107189944,14.70449,0,-1,3.5102577450661,4.637092580054047,-9999,63714.60972429167,0.0911712646484375,0.330230712890625,-1.02471923828125,1,0.84
2020-05-19 09:59:20.849 -0400,1589896760.000315,41.35200544686013,-71.84495107189944,14.70449,0,-1,3.5102577450661,4.637092580054047,-9999,63714.65960929167,0.160125732421875,0.221435546875,-1.02899169921875,1,0.84
2020-05-19 09:59:20.899 -0400,1589896760.000315,41.35200544686013,-71.84495107189944,14.70449,0,-1,3.5102577450661,4.637092580054047,-9999,63714.70949529167,0.1430816650390625,0.335968017578125,-1.048721313476562,1,0.84
2020-05-19 09:59:20.953 -0400,1589896760.000315,41.35200544686013,-71.84495107189944,14.70449,0,-1,3.5102577450661,4.637092580054047,-9999,63714.75938329167,0.0844268798828125,0.4497833251953125,-0.6237945556640625,1,0.84
2020-05-19 09:59:20.999 -0400,1589896760.000315,41.35200544686013,-71.84495107189944,14.70449,0,-1,3.5102577450661,4.637092580054047,-9999,63714.80927029167,0.02838134765625,0.0496826171875,-0.09075927734375,1,0.84
2020-05-19 09:59:21.048 -0400,1589896760.000315,41.35200544686013,-71.84495107189944,14.70449,0,-1,3.5102577450661,4.637092580054047,-9999,63714.85915929167,0.1441192626953125,-0.012542724609375,-0.4454498291015625,1,0.84
2020-05-19 09:59:21.098 -0400,1589896760.000315,41.35200544686013,-71.84495107189944,14.70449,0,-1,3.5102577450661,4.637092580054047,-9999,63714.90904729167,0.1562957763671875,-0.313568115234375,-0.8322906494140625,1,0.84
2020-05-19 09:59:21.148 -0400,1589896760.000315,41.35200544686013,-71.84495107189944,14.70449,0,-1,3.5102577450661,4.637092580054047,-9999,63714.95893429167,0.1795196533203125,-0.18115234375,-1.45184326171875,1,0.84
2020-05-19 09:59:21.198 -0400,1589896761.000322,41.35200052288754,-71.84494285857566,13.59163,0.496759,102.7168285017914,3.510136617927119,4.63718427025237,-9999,63715.00881929167,0.012908935546875,-0.447662353515625,-1.658218383789062,1,0.84
2020-05-19 09:59:21.248 -0400,1589896761.000322,41.35200052288754,-71.84494285857566,13.59163,0.496759,102.7168285017914,3.510136617927119,4.63718427025237,-9999,63715.05870529167,-0.46173095703125,-0.0131072998046875,-1.298294067382812,1,0.84
2020-05-19 09:59:21.298 -0400,1589896761.000322,41.35200052288754,-71.84494285857566,13.59163,0.496759,102.7168285017914,3.510136617927119,4.63718427025237,-9999,63715.10859029167,-0.6430206298828125,0.318115234375,-1.104537963867188,1,0.84
2020-05-19 09:59:21.348 -0400,1589896761.000322,41.35200052288754,-71.84494285857566,13.59163,0.496759,102.7168285017914,3.510136617927119,4.63718427025237,-9999,63715.15847629167,-0.29132080078125,0.476226806640625,-1.172027587890625,1,0.84
2020-05-19 09:59:21.397 -0400,1589896761.000322,41.35200052288754,-71.84494285857566,13.59163,0.496759,102.7168285017914,3.510136617927119,4.63718427025237,-9999,63715.20836529167,0.017120361328125,0.16973876953125,-0.9720001220703125,1,0.84
2020-05-19 09:59:21.452 -0400,1589896761.000322,41.35200052288754,-71.84494285857566,13.59163,0.496759,102.7168285017914,3.510136617927119,4.63718427025237,-9999,63715.25825429167,0.448822021484375,0.03192138671875,-0.717376708984375,1,0.84
2020-05-19 09:59:21.497 -0400,1589896761.000322,41.35200052288754,-71.84494285857566,13.59163,0.496759,102.7168285017914,3.510136617927119,4.63718427025237,-9999,63715.30814229167,0.4369964599609375,-0.1920318603515625,-0.60601806640625,1,0.84
2020-05-19 09:59:21.547 -0400,1589896761.000322,41.35200052288754,-71.84494285857566,13.59163,0.496759,102.7168285017914,3.510136617927119,4.63718427025237,-9999,63715.35803029167,0.267669677734375,-0.1370086669921875,-0.608642578125,1,0.84
2020-05-19 09:59:21.597 -0400,1589896761.000322,41.35200052288754,-71.84494285857566,13.59163,0.496759,102.7168285017914,3.510136617927119,4.63718427025237,-9999,63715.40791629167,0.6299285888671875,-0.1450958251953125,-0.4491119384765625,1,0.84
2020-05-19 09:59:21.647 -0400,1589896761.000322,41.35200052288754,-71.84494285857566,13.59163,0.496759,102.7168285017914,3.510136617927119,4.63718427025237,-9999,63715.45780329167,0.3243865966796875,-0.095001220703125,-0.97674560546875,1,0.84
2020-05-19 09:59:21.697 -0400,1589896761.000322,41.35200052288754,-71.84494285857566,13.59163,0.496759,102.7168285017914,3.510136617927119,4.63718427025237,-9999,63715.50769012501,0.397003173828125,-0.1659393310546875,-0.4505157470703125,1,0.84
2020-05-19 09:59:21.747 -0400,1589896761.000322,41.35200052288754,-71.84494285857566,13.59163,0.496759,102.7168285017914,3.510136617927119,4.63718427025237,-9999,63715.55757412501,0.605621337890625,0.595123291015625,-0.7867584228515625,1,0.84
2020-05-19 09:59:21.796 -0400,1589896761.000322,41.35200052288754,-71.84494285857566,13.59163,0.496759,102.7168285017914,3.510136617927119,4.63718427025237,-9999,63715.60745712501,0.7181396484375,0.8451080322265625,-0.65106201171875,1,0.84
2020-05-19 09:59:21.847 -0400,1589896761.000322,41.35200052288754,-71.84494285857566,13.59163,0.496759,102.7168285017914,3.510136617927119,4.63718427025237,-9999,63715.65734212501,0.9109039306640625,0.6474456787109375,-0.5161285400390625,1,0.84
2020-05-19 09:59:21.896 -0400,1589896761.000322,41.35200052288754,-71.84494285857566,13.59163,0.496759,102.7168285017914,3.510136617927119,4.63718427025237,-9999,63715.70722612501,1.072357177734375,0.7195281982421875,-0.7534942626953125,1,0.84
2020-05-19 09:59:21.952 -0400,1589896761.000322,41.35200052288754,-71.84494285857566,13.59163,0.496759,102.7168285017914,3.510136617927119,4.63718427025237,-9999,63715.75711112501,0.880096435546875,0.32550048828125,-0.614715576171875,1,0.84
2020-05-19 09:59:21.996 -0400,1589896761.000322,41.35200052288754,-71.84494285857566,13.59163,0.496759,102.7168285017914,3.510136617927119,4.63718427025237,-9999,63715.806997125,0.848541259765625,0.451751708984375,-0.7533111572265625,1,0.84
2020-05-19 09:59:22.046 -0400,1589896761.000322,41.35200052288754,-71.84494285857566,13.59163,0.496759,102.7168285017914,3.510136617927119,4.63718427025237,-9999,63715.856882125,0.84088134765625,0.2108001708984375,-0.602630615234375,1,0.84
2020-05-19 09:59:22.096 -0400,1589896761.000322,41.35200052288754,-71.84494285857566,13.59163,0.496759,102.7168285017914,3.510136617927119,4.63718427025237,-9999,63715.906768125,0.8479461669921875,0.168212890625,-0.446136474609375,1,0.84
2020-05-19 09:59:22.146 -0400,1589896761.000322,41.35200052288754,-71.84494285857566,13.59163,0.496759,102.7168285017914,3.510136617927119,4.63718427025237,-9999,63715.956652125,0.45379638671875,0.089080810546875,-0.56890869140625,1,0.84
2020-05-19 09:59:22.196 -0400,1589896762.000321,41.35199655723898,-71.84495022758742,13.56495,0,-1,3.500582057215488,4.644401177061454,-9999,63716.006539125,0.3962554931640625,0.2408905029296875,-0.7915496826171875,1,0.84
2020-05-19 09:59:22.245 -0400,1589896762.000321,41.35199655723898,-71.84495022758742,13.56495,0,-1,3.500582057215488,4.644401177061454,-9999,63716.056423125,0.5067901611328125,0.299591064453125,-0.6483154296875,1,0.84
2020-05-19 09:59:22.296 -0400,1589896762.000321,41.35199655723898,-71.84495022758742,13.56495,0,-1,3.500582057215488,4.644401177061454,-9999,63716.106306125,0.5810089111328125,0.3947296142578125,-0.583160400390625,1,0.84
2020-05-19 09:59:22.345 -0400,1589896762.000321,41.35199655723898,-71.84495022758742,13.56495,0,-1,3.500582057215488,4.644401177061454,-9999,63716.156189125,0.5616607666015625,0.4633026123046875,-0.7085418701171875,1,0.84
2020-05-19 09:59:22.395 -0400,1589896762.000321,41.35199655723898,-71.84495022758742,13.56495,0,-1,3.500582057215488,4.644401177061454,-9999,63716.206074125,0.35797119140625,0.37457275390625,-0.77044677734375,1,0.84
2020-05-19 09:59:22.452 -0400,1589896762.000321,41.35199655723898,-71.84495022758742,13.56495,0,-1,3.500582057215488,4.644401177061454,-9999,63716.255958125,0.298248291015625,0.48931884765625,-0.840789794921875,1,0.84
2020-05-19 09:59:22.495 -0400,1589896762.000321,41.35199655723898,-71.84495022758742,13.56495,0,-1,3.500582057215488,4.644401177061454,-9999,63716.305843125,0.388031005859375,0.3423309326171875,-0.8921356201171875,1,0.84
2020-05-19 09:59:22.545 -0400,1589896762.000321,41.35199655723898,-71.84495022758742,13.56495,0,-1,3.500582057215488,4.644401177061454,-9999,63716.355730125,0.63427734375,0.5120697021484375,-1.106338500976562,1,0.84
2020-05-19 09:59:22.595 -0400,1589896762.000321,41.35199655723898,-71.84495022758742,13.56495,0,-1,3.500582057215488,4.644401177061454,-9999,63716.405617125,0.7424163818359375,0.3045196533203125,-1.273712158203125,1,0.84
2020-05-19 09:59:22.645 -0400,1589896762.000321,41.35199655723898,-71.84495022758742,13.56495,0,-1,3.500582057215488,4.644401177061454,-9999,63716.45550712501,0.8121185302734375,0.4029998779296875,-1.238525390625,1,0.84
2020-05-19 09:59:22.694 -0400,1589896762.000321,41.35199655723898,-71.84495022758742,13.56495,0,-1,3.500582057215488,4.644401177061454,-9999,63716.5053975,0.6281280517578125,0.34527587890625,-0.8766021728515625,1,0.84
2020-05-19 09:59:22.744 -0400,1589896762.000321,41.35199655723898,-71.84495022758742,13.56495,0,-1,3.500582057215488,4.644401177061454,-9999,63716.55528750001,0.5163116455078125,-0.1928558349609375,-0.508514404296875,1,0.84
2020-05-19 09:59:22.794 -0400,1589896762.000321,41.35199655723898,-71.84495022758742,13.56495,0,-1,3.500582057215488,4.644401177061454,-9999,63716.6051775,0.425384521484375,0.106536865234375,-0.4549102783203125,1,0.84
2020-05-19 09:59:22.844 -0400,1589896762.000321,41.35199655723898,-71.84495022758742,13.56495,0,-1,3.500582057215488,4.644401177061454,-9999,63716.6550695,0.2505950927734375,-0.6279144287109375,-0.583831787109375,1,0.84
2020-05-19 09:59:22.894 -0400,1589896762.000321,41.35199655723898,-71.84495022758742,13.56495,0,-1,3.500582057215488,4.644401177061454,-9999,63716.70496050001,0.2410125732421875,-0.5867462158203125,-0.6128997802734375,1,0.84
2020-05-19 09:59:22.952 -0400,1589896762.000321,41.35199655723898,-71.84495022758742,13.56495,0,-1,3.500582057215488,4.644401177061454,-9999,63716.7548525,0.2813262939453125,-0.563751220703125,-0.7716064453125,1,0.84
2020-05-19 09:59:22.994 -0400,1589896762.000321,41.35199655723898,-71.84495022758742,13.56495,0,-1,3.500582057215488,4.644401177061454,-9999,63716.8047425,0.5372772216796875,-0.7389678955078125,-0.73577880859375,1,0.84
2020-05-19 09:59:23.044 -0400,1589896762.000321,41.35199655723898,-71.84495022758742,13.56495,0,-1,3.500582057215488,4.644401177061454,-9999,63716.85463550001,0.37689208984375,-0.6932220458984375,-0.365478515625,1,0.84
2020-05-19 09:59:23.094 -0400,1589896762.000321,41.35199655723898,-71.84495022758742,13.56495,0,-1,3.500582057215488,4.644401177061454,-9999,63716.9045275,0.464599609375,-0.547760009765625,-0.6960296630859375,1,0.84
2020-05-19 09:59:23.143 -0400,1589896762.000321,41.35199655723898,-71.84495022758742,13.56495,0,-1,3.500582057215488,4.644401177061454,-9999,63716.9544165,0.570343017578125,-0.4202880859375,-0.9560089111328125,1,0.84
2020-05-19 09:59:23.193 -0400,1589896762.000321,41.35199655723898,-71.84495022758742,13.56495,0,-1,3.500582057215488,4.644401177061454,-9999,63717.00430550001,0.663604736328125,0.2683258056640625,-1.410018920898438,1,0.84
2020-05-19 09:59:23.243 -0400,1589896763.000323,41.35199442075131,-71.84495206668339,16.10303,0.8322247,-1,3.498412885148336,4.646035333251021,-9999,63717.0541965,0.1308746337890625,0.552947998046875,-0.94873046875,1,0.84
2020-05-19 09:59:23.293 -0400,1589896763.000323,41.35199442075131,-71.84495206668339,16.10303,0.8322247,-1,3.498412885148336,4.646035333251021,-9999,63717.1040865,0.48541259765625,-0.245025634765625,-1.044967651367188,1,0.84
2020-05-19 09:59:23.343 -0400,1589896763.000323,41.35199442075131,-71.84495206668339,16.10303,0.8322247,-1,3.498412885148336,4.646035333251021,-9999,63717.1539755,-0.10760498046875,0.8373870849609375,-0.5666046142578125,1,0.84
2020-05-19 09:59:23.393 -0400,1589896763.000323,41.35199442075131,-71.84495206668339,16.10303,0.8322247,-1,3.498412885148336,4.646035333251021,-9999,63717.2038685,-0.0981597900390625,0.5772857666015625,-0.815673828125,1,0.84
2020-05-19 09:59:23.453 -0400,1589896763.000323,41.35199442075131,-71.84495206668339,16.10303,0.8322247,-1,3.498412885148336,4.646035333251021,-9999,63717.2537585,0.6653900146484375,-1.190399169921875,-0.7177734375,1,0.84
2020-05-19 09:59:23.493 -0400,1589896763.000323,41.35199442075131,-71.84495206668339,16.10303,0.8322247,-1,3.498412885148336,4.646035333251021,-9999,63717.30365050001,0.8204193115234375,1.778732299804688,-0.8233489990234375,1,0.84
2020-05-19 09:59:23.543 -0400,1589896763.000323,41.35199442075131,-71.84495206668339,16.10303,0.8322247,-1,3.498412885148336,4.646035333251021,-9999,63717.3535415,0.8951873779296875,-0.0634002685546875,-0.017303466796875,1,0.84
2020-05-19 09:59:23.592 -0400,1589896763.000323,41.35199442075131,-71.84495206668339,16.10303,0.8322247,-1,3.498412885148336,4.646035333251021,-9999,63717.4034295,0.6568603515625,1.229583740234375,-0.6376190185546875,1,0.84
2020-05-19 09:59:23.643 -0400,1589896763.000323,41.35199442075131,-71.84495206668339,16.10303,0.8322247,-1,3.498412885148336,4.646035333251021,-9999,63717.4533185,0.6822967529296875,0.255950927734375,-0.358795166015625,1,0.84
2020-05-19 09:59:23.692 -0400,1589896763.000323,41.35199442075131,-71.84495206668339,16.10303,0.8322247,-1,3.498412885148336,4.646035333251021,-9999,63717.50320775001,0.7627410888671875,0.5566558837890625,-0.1012115478515625,1,0.84
2020-05-19 09:59:23.742 -0400,1589896763.000323,41.35199442075131,-71.84495206668339,16.10303,0.8322247,-1,3.498412885148336,4.646035333251021,-9999,63717.55309875,1.178604125976562,0.8907318115234375,-0.11871337890625,1,0.84
2020-05-19 09:59:23.794 -0400,1589896763.000323,41.35199442075131,-71.84495206668339,16.10303,0.8322247,-1,3.498412885148336,4.646035333251021,-9999,63717.60298775,1.30322265625,0.9764404296875,-0.1103515625,1,0.84
2020-05-19 09:59:23.842 -0400,1589896763.000323,41.35199442075131,-71.84495206668339,16.10303,0.8322247,-1,3.498412885148336,4.646035333251021,-9999,63717.65287675001,0.784210205078125,0.5202789306640625,-0.0895843505859375,1,0.84
2020-05-19 09:59:23.892 -0400,1589896763.000323,41.35199442075131,-71.84495206668339,16.10303,0.8322247,-1,3.498412885148336,4.646035333251021,-9999,63717.70276675,0.215301513671875,1.075653076171875,-0.26513671875,1,0.84
2020-05-19 09:59:23.942 -0400,1589896763.000323,41.35199442075131,-71.84495206668339,16.10303,0.8322247,-1,3.498412885148336,4.646035333251021,-9999,63717.75265575,0.35772705078125,0.6091766357421875,-0.2820281982421875,1,0.84
2020-05-19 09:59:23.991 -0400,1589896763.000323,41.35199442075131,-71.84495206668339,16.10303,0.8322247,-1,3.498412885148336,4.646035333251021,-9999,63717.80254875001,0.256256103515625,0.9498443603515625,-0.0135498046875,1,0.84
2020-05-19 09:59:24.041 -0400,1589896763.000323,41.35199442075131,-71.84495206668339,16.10303,0.8322247,-1,3.498412885148336,4.646035333251021,-9999,63717.85244575,0.31951904296875,0.9172210693359375,-0.3045806884765625,1,0.84
2020-05-19 09:59:24.091 -0400,1589896763.000323,41.35199442075131,-71.84495206668339,16.10303,0.8322247,-1,3.498412885148336,4.646035333251021,-9999,63717.90234275001,0.0709381103515625,1.14910888671875,-0.039398193359375,1,0.84
2020-05-19 09:59:24.141 -0400,1589896763.000323,41.35199442075131,-71.84495206668339,16.10303,0.8322247,-1,3.498412885148336,4.646035333251021,-9999,63717.95223775,0.038543701171875,1.247894287109375,0.1108551025390625,1,0.84
2020-05-19 09:59:24.191 -0400,1589896763.000323,41.35199442075131,-71.84495206668339,16.10303,0.8322247,-1,3.498412885148336,4.646035333251021,-9999,63718.00212875001,0.18133544921875,1.133804321289062,0.1470794677734375,1,0.84
2020-05-19 09:59:24.241 -0400,1589896764.000326,41.35199574865481,-71.84495221155431,14.72419,0,-1,3.507142282958158,4.639449325068211,-9999,63718.05201975,0.3260040283203125,1.379898071289062,0.285400390625,1,0.84
2020-05-19 09:59:24.291 -0400,1589896764.000326,41.35199574865481,-71.84495221155431,14.72419,0,-1,3.507142282958158,4.639449325068211,-9999,63718.10190875,0.43621826171875,1.48956298828125,0.2373046875,1,0.84
2020-05-19 09:59:24.341 -0400,1589896764.000326,41.35199574865481,-71.84495221155431,14.72419,0,-1,3.507142282958158,4.639449325068211,-9999,63718.15179975001,0.3305816650390625,0.8211212158203125,-0.384735107421875,1,0.84
2020-05-19 09:59:24.391 -0400,1589896764.000326,41.35199574865481,-71.84495221155431,14.72419,0,-1,3.507142282958158,4.639449325068211,-9999,63718.20168775001,0.2412872314453125,0.0773468017578125,-0.5131988525390625,1,0.84
2020-05-19 09:59:24.440 -0400,1589896764.000326,41.35199574865481,-71.84495221155431,14.72419,0,-1,3.507142282958158,4.639449325068211,-9999,63718.25157875,-0.0377044677734375,0.8533477783203125,-0.2483367919921875,1,0.84
2020-05-19 09:59:24.490 -0400,1589896764.000326,41.35199574865481,-71.84495221155431,14.72419,0,-1,3.507142282958158,4.639449325068211,-9999,63718.30147275,0.27166748046875,0.766876220703125,-1.333770751953125,1,0.84
2020-05-19 09:59:24.540 -0400,1589896764.000326,41.35199574865481,-71.84495221155431,14.72419,0,-1,3.507142282958158,4.639449325068211,-9999,63718.35136875,0.2099151611328125,0.4865264892578125,-0.85650634765625,1,0.84
2020-05-19 09:59:24.590 -0400,1589896764.000326,41.35199574865481,-71.84495221155431,14.72419,0,-1,3.507142282958158,4.639449325068211,-9999,63718.40126375001,0.2512664794921875,0.0994873046875,-1.150772094726562,1,0.84
2020-05-19 09:59:24.640 -0400,1589896764.000326,41.35199574865481,-71.84495221155431,14.72419,0,-1,3.507142282958158,4.639449325068211,-9999,63718.45115775,0.345489501953125,-0.5675048828125,-0.751007080078125,1,0.84
2020-05-19 09:59:24.690 -0400,1589896764.000326,41.35199574865481,-71.84495221155431,14.72419,0,-1,3.507142282958158,4.639449325068211,-9999,63718.501049375,0.6592254638671875,-0.320770263671875,-0.5668487548828125,1,0.84
2020-05-19 09:59:24.740 -0400,1589896764.000326,41.35199574865481,-71.84495221155431,14.72419,0,-1,3.507142282958158,4.639449325068211,-9999,63718.550937375,0.434417724609375,0.15313720703125,-0.5498504638671875,1,0.84
2020-05-19 09:59:24.790 -0400,1589896764.000326,41.35199574865481,-71.84495221155431,14.72419,0,-1,3.507142282958158,4.639449325068211,-9999,63718.600826375,0.1844940185546875,0.565460205078125,-0.6983489990234375,1,0.84
2020-05-19 09:59:24.840 -0400,1589896764.000326,41.35199574865481,-71.84495221155431,14.72419,0,-1,3.507142282958158,4.639449325068211,-9999,63718.65071437501,-0.122283935546875,0.4218597412109375,-0.4099273681640625,1,0.84
2020-05-19 09:59:24.889 -0400,1589896764.000326,41.35199574865481,-71.84495221155431,14.72419,0,-1,3.507142282958158,4.639449325068211,-9999,63718.700604375,0.270172119140625,0.5370330810546875,-0.551971435546875,1,0.84
2020-05-19 09:59:24.939 -0400,1589896764.000326,41.35199574865481,-71.84495221155431,14.72419,0,-1,3.507142282958158,4.639449325068211,-9999,63718.750494375,0.646209716796875,0.98577880859375,-0.66314697265625,1,0.84
2020-05-19 09:59:24.989 -0400,1589896764.000326,41.35199574865481,-71.84495221155431,14.72419,0,-1,3.507142282958158,4.639449325068211,-9999,63718.800383375,0.684356689453125,1.407012939453125,-0.438507080078125,1,0.84
2020-05-19 09:59:25.039 -0400,1589896764.000326,41.35199574865481,-71.84495221155431,14.72419,0,-1,3.507142282958158,4.639449325068211,-9999,63718.85027237501,0.664642333984375,1.174270629882812,-0.61871337890625,1,0.84
2020-05-19 09:59:25.089 -0400,1589896764.000326,41.35199574865481,-71.84495221155431,14.72419,0,-1,3.507142282958158,4.639449325068211,-9999,63718.900165375,0.6646270751953125,0.6407470703125,-0.37554931640625,1,0.84
2020-05-19 09:59:25.139 -0400,1589896764.000326,41.35199574865481,-71.84495221155431,14.72419,0,-1,3.507142282958158,4.639449325068211,-9999,63718.950055375,0.5070953369140625,0.3159027099609375,-0.8896484375,1,0.84
2020-05-19 09:59:25.196 -0400,1589896764.000326,41.35199574865481,-71.84495221155431,14.72419,0,-1,3.507142282958158,4.639449325068211,-9999,63718.99994237501,0.5118255615234375,-0.2056427001953125,-0.86822509765625,1,0.84
2020-05-19 09:59:25.239 -0400,1589896765.000329,41.35199729731426,-71.84494800282106,15.36761,0,-1,3.516803507661077,4.632130192610262,-9999,63719.04983237501,0.49761962890625,0.27911376953125,-0.825927734375,1,0.84
2020-05-19 09:59:25.289 -0400,1589896765.000329,41.35199729731426,-71.84494800282106,15.36761,0,-1,3.516803507661077,4.632130192610262,-9999,63719.099720375,0.5699310302734375,0.3588714599609375,-1.245285034179688,1,0.84
2020-05-19 09:59:25.339 -0400,1589896765.000329,41.35199729731426,-71.84494800282106,15.36761,0,-1,3.516803507661077,4.632130192610262,-9999,63719.149609375,0.3869171142578125,0.0210723876953125,-0.8141326904296875,1,0.84
2020-05-19 09:59:25.389 -0400,1589896765.000329,41.35199729731426,-71.84494800282106,15.36761,0,-1,3.516803507661077,4.632130192610262,-9999,63719.199497375,0.2841033935546875,0.839202880859375,-0.733673095703125,1,0.84
2020-05-19 09:59:25.438 -0400,1589896765.000329,41.35199729731426,-71.84494800282106,15.36761,0,-1,3.516803507661077,4.632130192610262,-9999,63719.24938637501,0.027069091796875,0.1229095458984375,-0.5524444580078125,1,0.84
2020-05-19 09:59:25.488 -0400,1589896765.000329,41.35199729731426,-71.84494800282106,15.36761,0,-1,3.516803507661077,4.632130192610262,-9999,63719.299275375,-0.0379180908203125,-0.0904693603515625,-0.1025543212890625,1,0.84
2020-05-19 09:59:25.538 -0400,1589896765.000329,41.35199729731426,-71.84494800282106,15.36761,0,-1,3.516803507661077,4.632130192610262,-9999,63719.349164375,-0.1600189208984375,1.1951904296875,-0.782440185546875,1,0.84
2020-05-19 09:59:25.588 -0400,1589896765.000329,41.35199729731426,-71.84494800282106,15.36761,0,-1,3.516803507661077,4.632130192610262,-9999,63719.399054375,0.1124267578125,0.000335693359375,-1.298675537109375,1,0.84
2020-05-19 09:59:25.638 -0400,1589896765.000329,41.35199729731426,-71.84494800282106,15.36761,0,-1,3.516803507661077,4.632130192610262,-9999,63719.44894737501,-0.07501220703125,0.0945892333984375,-1.220993041992188,1,0.84
2020-05-19 09:59:25.688 -0400,1589896765.000329,41.35199729731426,-71.84494800282106,15.36761,0,-1,3.516803507661077,4.632130192610262,-9999,63719.49883687501,0.02734375,0.3470916748046875,-0.578704833984375,1,0.84
2020-05-19 09:59:25.738 -0400,1589896765.000329,41.35199729731426,-71.84494800282106,15.36761,0,-1,3.516803507661077,4.632130192610262,-9999,63719.548729875,0.4751129150390625,0.834075927734375,-0.8681488037109375,1,0.84
2020-05-19 09:59:25.788 -0400,1589896765.000329,41.35199729731426,-71.84494800282106,15.36761,0,-1,3.516803507661077,4.632130192610262,-9999,63719.598620875,0.7187957763671875,0.7759857177734375,-0.9470062255859375,1,0.84
2020-05-19 09:59:25.838 -0400,1589896765.000329,41.35199729731426,-71.84494800282106,15.36761,0,-1,3.516803507661077,4.632130192610262,-9999,63719.64851087501,0.9461669921875,0.906524658203125,-1.174087524414062,1,0.84
2020-05-19 09:59:25.887 -0400,1589896765.000329,41.35199729731426,-71.84494800282106,15.36761,0,-1,3.516803507661077,4.632130192610262,-9999,63719.698404875,0.9290618896484375,0.284271240234375,-0.59136962890625,1,0.84
2020-05-19 09:59:25.937 -0400,1589896765.000329,41.35199729731426,-71.84494800282106,15.36761,0,-1,3.516803507661077,4.632130192610262,-9999,63719.748296875,0.6690673828125,0.55828857421875,-1.022216796875,1,0.84
2020-05-19 09:59:25.987 -0400,1589896765.000329,41.35199729731426,-71.84494800282106,15.36761,0,-1,3.516803507661077,4.632130192610262,-9999,63719.79818687501,0.3962554931640625,0.672943115234375,-0.58538818359375,1,0.84
2020-05-19 09:59:26.066 -0400,1589896765.000329,41.35199729731426,-71.84494800282106,15.36761,0,-1,3.516803507661077,4.632130192610262,-9999,63719.848074875,0.441131591796875,0.32568359375,-0.7424163818359375,1,0.84
2020-05-19 09:59:26.087 -0400,1589896765.000329,41.35199729731426,-71.84494800282106,15.36761,0,-1,3.516803507661077,4.632130192610262,-9999,63719.897962875,0.1710968017578125,0.5483856201171875,-0.7518463134765625,1,0.83
2020-05-19 09:59:26.137 -0400,1589896765.000329,41.35199729731426,-71.84494800282106,15.36761,0,-1,3.516803507661077,4.632130192610262,-9999,63719.947852875,0.38861083984375,0.8521728515625,-0.7329254150390625,1,0.83
2020-05-19 09:59:26.194 -0400,1589896765.000329,41.35199729731426,-71.84494800282106,15.36761,0,-1,3.516803507661077,4.632130192610262,-9999,63719.99774187501,0.554412841796875,0.3308258056640625,-0.498291015625,1,0.83
2020-05-19 09:59:26.237 -0400,1589896766.000332,41.35199833868735,-71.84494676675172,15.53332,0,-1,3.435872755014455,4.692474341340421,-9999,63720.047630875,0.283416748046875,0.759979248046875,-0.726837158203125,1,0.83
2020-05-19 09:59:26.286 -0400,1589896766.000332,41.35199833868735,-71.84494676675172,15.53332,0,-1,3.435872755014455,4.692474341340421,-9999,63720.097519875,-0.1289215087890625,0.498046875,-0.7418060302734375,1,0.83
2020-05-19 09:59:26.336 -0400,1589896766.000332,41.35199833868735,-71.84494676675172,15.53332,0,-1,3.435872755014455,4.692474341340421,-9999,63720.147408875,-0.01922607421875,0.5770111083984375,-0.68597412109375,1,0.83
2020-05-19 09:59:26.386 -0400,1589896766.000332,41.35199833868735,-71.84494676675172,15.53332,0,-1,3.435872755014455,4.692474341340421,-9999,63720.19729987501,0.201171875,0.5944671630859375,-0.7061614990234375,1,0.83
2020-05-19 09:59:26.436 -0400,1589896766.000332,41.35199833868735,-71.84494676675172,15.53332,0,-1,3.435872755014455,4.692474341340421,-9999,63720.247189875,0.2612152099609375,0.69610595703125,-0.5265045166015625,1,0.83
2020-05-19 09:59:26.486 -0400,1589896766.000332,41.35199833868735,-71.84494676675172,15.53332,0,-1,3.435872755014455,4.692474341340421,-9999,63720.297080875,0.3668060302734375,0.870269775390625,-0.626129150390625,1,0.83
2020-05-19 09:59:26.536 -0400,1589896766.000332,41.35199833868735,-71.84494676675172,15.53332,0,-1,3.435872755014455,4.692474341340421,-9999,63720.34697187501,0.30523681640625,1.015670776367188,-0.305511474609375,1,0.83
2020-05-19 09:59:26.586 -0400,1589896766.000332,41.35199833868735,-71.84494676675172,15.53332,0,-1,3.435872755014455,4.692474341340421,-9999,63720.396861875,0.4192047119140625,0.9246368408203125,-0.4828643798828125,1,0.83
2020-05-19 09:59:26.636 -0400,1589896766.000332,41.35199833868735,-71.84494676675172,15.53332,0,-1,3.435872755014455,4.692474341340421,-9999,63720.446752875,0.38275146484375,0.91748046875,-0.482574462890625,1,0.83
2020-05-19 09:59:26.686 -0400,1589896766.000332,41.35199833868735,-71.84494676675172,15.53332,0,-1,3.435872755014455,4.692474341340421,-9999,63720.496642875,0.34686279296875,0.7859344482421875,-0.433746337890625,1,0.83
2020-05-19 09:59:26.736 -0400,1589896766.000332,41.35199833868735,-71.84494676675172,15.53332,0,-1,3.435872755014455,4.692474341340421,-9999,63720.54653075001,0.4099884033203125,1.002914428710938,-0.3250732421875,1,0.83
2020-05-19 09:59:26.786 -0400,1589896766.000332,41.35199833868735,-71.84494676675172,15.53332,0,-1,3.435872755014455,4.692474341340421,-9999,63720.59642275,0.3986358642578125,1.053390502929688,-0.3090972900390625,1,0.83
2020-05-19 09:59:26.835 -0400,1589896766.000332,41.35199833868735,-71.84494676675172,15.53332,0,-1,3.435872755014455,4.692474341340421,-9999,63720.64631375,0.3740997314453125,0.8000946044921875,-0.4854278564453125,1,0.83
2020-05-19 09:59:26.885 -0400,1589896766.000332,41.35199833868735,-71.84494676675172,15.53332,0,-1,3.435872755014455,4.692474341340421,-9999,63720.69620375001,0.288604736328125,0.708709716796875,-0.5177001953125,1,0.83
2020-05-19 09:59:26.935 -0400,1589896766.000332,41.35199833868735,-71.84494676675172,15.53332,0,-1,3.435872755014455,4.692474341340421,-9999,63720.74609475,0.4080963134765625,0.8480072021484375,-0.761749267578125,1,0.83
2020-05-19 09:59:26.985 -0400,1589896766.000332,41.35199833868735,-71.84494676675172,15.53332,0,-1,3.435872755014455,4.692474341340421,-9999,63720.79598575,0.3071136474609375,0.7537689208984375,-0.6753082275390625,1,0.83
2020-05-19 09:59:27.035 -0400,1589896766.000332,41.35199833868735,-71.84494676675172,15.53332,0,-1,3.435872755014455,4.692474341340421,-9999,63720.84587675001,0.140869140625,0.651641845703125,-0.628387451171875,1,0.83
2020-05-19 09:59:27.085 -0400,1589896766.000332,41.35199833868735,-71.84494676675172,15.53332,0,-1,3.435872755014455,4.692474341340421,-9999,63720.89576475001,0.1630706787109375,0.748138427734375,-0.660186767578125,1,0.83
2020-05-19 09:59:27.135 -0400,1589896766.000332,41.35199833868735,-71.84494676675172,15.53332,0,-1,3.435872755014455,4.692474341340421,-9999,63720.94565175,0.21527099609375,0.532562255859375,-0.877716064453125,1,0.83
2020-05-19 09:59:27.186 -0400,1589896766.000332,41.35199833868735,-71.84494676675172,15.53332,0,-1,3.435872755014455,4.692474341340421,-9999,63720.99553975,0.2986602783203125,0.275726318359375,-1.101715087890625,1,0.83
2020-05-19 09:59:27.235 -0400,1589896767.000336,41.35199839590136,-71.84495091083498,15.4765,0,-1,3.409668634858465,4.711549302856891,-9999,63721.04542875,0.2100372314453125,-0.078582763671875,-0.927154541015625,1,0.83
2020-05-19 09:59:27.284 -0400,1589896767.000336,41.35199839590136,-71.84495091083498,15.4765,0,-1,3.409668634858465,4.711549302856891,-9999,63721.09531475,0.29083251953125,0.2326202392578125,-0.8199615478515625,1,0.83
2020-05-19 09:59:27.334 -0400,1589896767.000336,41.35199839590136,-71.84495091083498,15.4765,0,-1,3.409668634858465,4.711549302856891,-9999,63721.14520175001,0.26641845703125,0.809326171875,-0.6594696044921875,1,0.83
2020-05-19 09:59:27.384 -0400,1589896767.000336,41.35199839590136,-71.84495091083498,15.4765,0,-1,3.409668634858465,4.711549302856891,-9999,63721.19508775001,0.384735107421875,0.224700927734375,-0.8249664306640625,1,0.83
2020-05-19 09:59:27.434 -0400,1589896767.000336,41.35199839590136,-71.84495091083498,15.4765,0,-1,3.409668634858465,4.711549302856891,-9999,63721.24497375001,0.55908203125,0.417999267578125,-1.07568359375,1,0.83
2020-05-19 09:59:27.484 -0400,1589896767.000336,41.35199839590136,-71.84495091083498,15.4765,0,-1,3.409668634858465,4.711549302856891,-9999,63721.29485975001,0.4416046142578125,0.6375732421875,-1.261856079101562,1,0.83
2020-05-19 09:59:27.534 -0400,1589896767.000336,41.35199839590136,-71.84495091083498,15.4765,0,-1,3.409668634858465,4.711549302856891,-9999,63721.34474875,0.2911224365234375,0.231903076171875,-0.8737030029296875,1,0.83
2020-05-19 09:59:27.584 -0400,1589896767.000336,41.35199839590136,-71.84495091083498,15.4765,0,-1,3.409668634858465,4.711549302856891,-9999,63721.39463675,0.26446533203125,0.0711517333984375,-0.7454376220703125,1,0.83
2020-05-19 09:59:27.634 -0400,1589896767.000336,41.35199839590136,-71.84495091083498,15.4765,0,-1,3.409668634858465,4.711549302856891,-9999,63721.44452575,0.11724853515625,0.1337738037109375,-0.688201904296875,1,0.83
2020-05-19 09:59:27.684 -0400,1589896767.000336,41.35199839590136,-71.84495091083498,15.4765,0,-1,3.409668634858465,4.711549302856891,-9999,63721.49440975,0.31402587890625,-0.1705474853515625,-0.742034912109375,1,0.83
2020-05-19 09:59:27.733 -0400,1589896767.000336,41.35199839590136,-71.84495091083498,15.4765,0,-1,3.409668634858465,4.711549302856891,-9999,63721.54429487501,0.22760009765625,0.2084197998046875,-0.74151611328125,1,0.83
2020-05-19 09:59:27.783 -0400,1589896767.000336,41.35199839590136,-71.84495091083498,15.4765,0,-1,3.409668634858465,4.711549302856891,-9999,63721.59418187501,0.0670166015625,0.2968902587890625,-0.7562255859375,1,0.83
2020-05-19 09:59:27.833 -0400,1589896767.000336,41.35199839590136,-71.84495091083498,15.4765,0,-1,3.409668634858465,4.711549302856891,-9999,63721.644069875,0.1732635498046875,0.171966552734375,-1.043304443359375,1,0.83
2020-05-19 09:59:27.884 -0400,1589896767.000336,41.35199839590136,-71.84495091083498,15.4765,0,-1,3.409668634858465,4.711549302856891,-9999,63721.693957875,0.2597808837890625,0.48577880859375,-0.9492950439453125,1,0.83
2020-05-19 09:59:27.933 -0400,1589896767.000336,41.35199839590136,-71.84495091083498,15.4765,0,-1,3.409668634858465,4.711549302856891,-9999,63721.743846875,0.3637847900390625,0.7505340576171875,-0.80035400390625,1,0.83
2020-05-19 09:59:27.982 -0400,1589896767.000336,41.35199839590136,-71.84495091083498,15.4765,0,-1,3.409668634858465,4.711549302856891,-9999,63721.79373587501,0.474884033203125,0.472381591796875,-0.847442626953125,1,0.83
2020-05-19 09:59:28.032 -0400,1589896767.000336,41.35199839590136,-71.84495091083498,15.4765,0,-1,3.409668634858465,4.711549302856891,-9999,63721.843625875,0.63690185546875,0.4928741455078125,-1.13421630859375,1,0.83
2020-05-19 09:59:28.082 -0400,1589896767.000336,41.35199839590136,-71.84495091083498,15.4765,0,-1,3.409668634858465,4.711549302856891,-9999,63721.893515875,0.27435302734375,0.6476898193359375,-0.63311767578125,1,0.83
2020-05-19 09:59:28.132 -0400,1589896767.000336,41.35199839590136,-71.84495091083498,15.4765,0,-1,3.409668634858465,4.711549302856891,-9999,63721.943401875,0.287445068359375,0.5192108154296875,-0.81561279296875,1,0.83
2020-05-19 09:59:28.182 -0400,1589896767.000336,41.35199839590136,-71.84495091083498,15.4765,0,-1,3.409668634858465,4.711549302856891,-9999,63721.993288875,0.29193115234375,0.4839324951171875,-0.742889404296875,1,0.83
2020-05-19 09:59:28.232 -0400,1589896768.00034,41.35199948535114,-71.84494931380948,15.41258,0,-1,3.383589171719881,4.730313028733808,-9999,63722.04317487501,0.322296142578125,0.6759796142578125,-0.7516326904296875,1,0.83
2020-05-19 09:59:28.282 -0400,1589896768.00034,41.35199948535114,-71.84494931380948,15.41258,0,-1,3.383589171719881,4.730313028733808,-9999,63722.09306287501,0.2503204345703125,0.5235137939453125,-0.65325927734375,1,0.83
2020-05-19 09:59:28.341 -0400,1589896768.00034,41.35199948535114,-71.84494931380948,15.41258,0,-1,3.383589171719881,4.730313028733808,-9999,63722.142949875,0.3053436279296875,0.61376953125,-0.6275177001953125,1,0.83
2020-05-19 09:59:28.382 -0400,1589896768.00034,41.35199948535114,-71.84494931380948,15.41258,0,-1,3.383589171719881,4.730313028733808,-9999,63722.192839875,0.3043975830078125,0.8941802978515625,-0.54180908203125,1,0.83
2020-05-19 09:59:28.432 -0400,1589896768.00034,41.35199948535114,-71.84494931380948,15.41258,0,-1,3.383589171719881,4.730313028733808,-9999,63722.24273287501,0.2456512451171875,0.9648284912109375,-0.3890228271484375,1,0.83
2020-05-19 09:59:28.482 -0400,1589896768.00034,41.35199948535114,-71.84494931380948,15.41258,0,-1,3.383589171719881,4.730313028733808,-9999,63722.292623875,0.2774658203125,0.756134033203125,-0.569091796875,1,0.83
2020-05-19 09:59:28.531 -0400,1589896768.00034,41.35199948535114,-71.84494931380948,15.41258,0,-1,3.383589171719881,4.730313028733808,-9999,63722.342517875,0.300201416015625,0.698577880859375,-0.6187896728515625,1,0.83
2020-05-19 09:59:28.582 -0400,1589896768.00034,41.35199948535114,-71.84494931380948,15.41258,0,-1,3.383589171719881,4.730313028733808,-9999,63722.39240787501,0.2896270751953125,0.693023681640625,-0.62127685546875,1,0.83
2020-05-19 09:59:28.631 -0400,1589896768.00034,41.35199948535114,-71.84494931380948,15.41258,0,-1,3.383589171719881,4.730313028733808,-9999,63722.442297875,0.28662109375,0.7796630859375,-0.612213134765625,1,0.83
2020-05-19 09:59:28.681 -0400,1589896768.00034,41.35199948535114,-71.84494931380948,15.41258,0,-1,3.383589171719881,4.730313028733808,-9999,63722.492189875,0.28240966796875,0.765411376953125,-0.6237335205078125,1,0.83
2020-05-19 09:59:28.731 -0400,1589896768.00034,41.35199948535114,-71.84494931380948,15.41258,0,-1,3.383589171719881,4.730313028733808,-9999,63722.542081375,0.293487548828125,0.64892578125,-0.671966552734375,1,0.83
2020-05-19 09:59:28.781 -0400,1589896768.00034,41.35199948535114,-71.84494931380948,15.41258,0,-1,3.383589171719881,4.730313028733808,-9999,63722.59197337501,0.2801055908203125,0.775115966796875,-0.630096435546875,1,0.83
2020-05-19 09:59:28.840 -0400,1589896768.00034,41.35199948535114,-71.84494931380948,15.41258,0,-1,3.383589171719881,4.730313028733808,-9999,63722.641864375,0.2776641845703125,0.72442626953125,-0.6473388671875,1,0.83
2020-05-19 09:59:28.881 -0400,1589896768.00034,41.35199948535114,-71.84494931380948,15.41258,0,-1,3.383589171719881,4.730313028733808,-9999,63722.691757375,0.281219482421875,0.6702117919921875,-0.6491851806640625,1,0.83
2020-05-19 09:59:28.931 -0400,1589896768.00034,41.35199948535114,-71.84494931380948,15.41258,0,-1,3.383589171719881,4.730313028733808,-9999,63722.74164837501,0.283203125,0.7174224853515625,-0.643280029296875,1,0.83
2020-05-19 09:59:28.981 -0400,1589896768.00034,41.35199948535114,-71.84494931380948,15.41258,0,-1,3.383589171719881,4.730313028733808,-9999,63722.791539375,0.296173095703125,0.684051513671875,-0.65399169921875,1,0.83
2020-05-19 09:59:29.030 -0400,1589896768.00034,41.35199948535114,-71.84494931380948,15.41258,0,-1,3.383589171719881,4.730313028733808,-9999,63722.841431375,0.2938232421875,0.720977783203125,-0.650360107421875,1,0.83
2020-05-19 09:59:29.081 -0400,1589896768.00034,41.35199948535114,-71.84494931380948,15.41258,0,-1,3.383589171719881,4.730313028733808,-9999,63722.89132437501,0.2846832275390625,0.680694580078125,-0.657012939453125,1,0.83
2020-05-19 09:59:29.130 -0400,1589896768.00034,41.35199948535114,-71.84494931380948,15.41258,0,-1,3.383589171719881,4.730313028733808,-9999,63722.941216375,0.286712646484375,0.7356109619140625,-0.652740478515625,1,0.83
2020-05-19 09:59:29.180 -0400,1589896768.00034,41.35199948535114,-71.84494931380948,15.41258,0,-1,3.383589171719881,4.730313028733808,-9999,63722.991107375,0.2954559326171875,0.7225189208984375,-0.633148193359375,1,0.83
2020-05-19 09:59:29.230 -0400,1589896769.000341,41.35200018369945,-71.84494873233716,15.227,0,-1,3.359069416800354,4.747756279118102,-9999,63723.04099637501,0.295654296875,0.708740234375,-0.666107177734375,1,0.83
2020-05-19 09:59:29.280 -0400,1589896769.000341,41.35200018369945,-71.84494873233716,15.227,0,-1,3.359069416800354,4.747756279118102,-9999,63723.090887375,0.2928924560546875,0.7135772705078125,-0.631317138671875,1,0.83
2020-05-19 09:59:29.343 -0400,1589896769.000341,41.35200018369945,-71.84494873233716,15.227,0,-1,3.359069416800354,4.747756279118102,-9999,63723.140775375,0.303802490234375,0.734161376953125,-0.6590728759765625,1,0.83
2020-05-19 09:59:29.380 -0400,1589896769.000341,41.35200018369945,-71.84494873233716,15.227,0,-1,3.359069416800354,4.747756279118102,-9999,63723.190663375,0.290985107421875,0.7202911376953125,-0.6427154541015625,1,0.83
2020-05-19 09:59:29.430 -0400,1589896769.000341,41.35200018369945,-71.84494873233716,15.227,0,-1,3.359069416800354,4.747756279118102,-9999,63723.24055437501,0.2940521240234375,0.7130889892578125,-0.6562957763671875,1,0.83
2020-05-19 09:59:29.479 -0400,1589896769.000341,41.35200018369945,-71.84494873233716,15.227,0,-1,3.359069416800354,4.747756279118102,-9999,63723.290445375,0.2906646728515625,0.689300537109375,-0.6403961181640625,1,0.83
2020-05-19 09:59:29.529 -0400,1589896769.000341,41.35200018369945,-71.84494873233716,15.227,0,-1,3.359069416800354,4.747756279118102,-9999,63723.340338375,0.294769287109375,0.680877685546875,-0.6385345458984375,1,0.83
2020-05-19 09:59:29.579 -0400,1589896769.000341,41.35200018369945,-71.84494873233716,15.227,0,-1,3.359069416800354,4.747756279118102,-9999,63723.39023037501,0.289398193359375,0.71917724609375,-0.640533447265625,1,0.83
2020-05-19 09:59:29.629 -0400,1589896769.000341,41.35200018369945,-71.84494873233716,15.227,0,-1,3.359069416800354,4.747756279118102,-9999,63723.440116375,0.2950439453125,0.665924072265625,-0.709228515625,1,0.83
2020-05-19 09:59:29.679 -0400,1589896769.000341,41.35200018369945,-71.84494873233716,15.227,0,-1,3.359069416800354,4.747756279118102,-9999,63723.490008375,0.2821044921875,0.841552734375,-0.6191253662109375,1,0.83
2020-05-19 09:59:29.729 -0400,1589896769.000341,41.35200018369945,-71.84494873233716,15.227,0,-1,3.359069416800354,4.747756279118102,-9999,63723.539898875,0.352752685546875,0.35455322265625,-0.889617919921875,1,0.83
2020-05-19 09:59:29.779 -0400,1589896769.000341,41.35200018369945,-71.84494873233716,15.227,0,-1,3.359069416800354,4.747756279118102,-9999,63723.589789875,0.322296142578125,0.4400634765625,-0.7233123779296875,1,0.83
2020-05-19 09:59:29.829 -0400,1589896769.000341,41.35200018369945,-71.84494873233716,15.227,0,-1,3.359069416800354,4.747756279118102,-9999,63723.63967787501,0.30682373046875,0.6079559326171875,-0.68756103515625,1,0.83
2020-05-19 09:59:29.879 -0400,1589896769.000341,41.35200018369945,-71.84494873233716,15.227,0,-1,3.359069416800354,4.747756279118102,-9999,63723.68956587501,0.3265228271484375,0.5387725830078125,-0.7921142578125,1,0.83
2020-05-19 09:59:29.929 -0400,1589896769.000341,41.35200018369945,-71.84494873233716,15.227,0,-1,3.359069416800354,4.747756279118102,-9999,63723.73944987501,0.34173583984375,0.5062713623046875,-0.7652435302734375,1,0.83
2020-05-19 09:59:29.978 -0400,1589896769.000341,41.35200018369945,-71.84494873233716,15.227,0,-1,3.359069416800354,4.747756279118102,-9999,63723.789334875,0.3054046630859375,0.7007293701171875,-0.63818359375,1,0.83
2020-05-19 09:59:30.028 -0400,1589896769.000341,41.35200018369945,-71.84494873233716,15.227,0,-1,3.359069416800354,4.747756279118102,-9999,63723.839221875,0.30853271484375,0.654541015625,-0.6823577880859375,1,0.83
2020-05-19 09:59:30.078 -0400,1589896769.000341,41.35200018369945,-71.84494873233716,15.227,0,-1,3.359069416800354,4.747756279118102,-9999,63723.889107875,0.2541046142578125,0.8127593994140625,-0.4816131591796875,1,0.83
2020-05-19 09:59:30.128 -0400,1589896769.000341,41.35200018369945,-71.84494873233716,15.227,0,-1,3.359069416800354,4.747756279118102,-9999,63723.938994875,0.30987548828125,0.821624755859375,-0.5517730712890625,1,0.83
2020-05-19 09:59:30.178 -0400,1589896769.000341,41.35200018369945,-71.84494873233716,15.227,0,-1,3.359069416800354,4.747756279118102,-9999,63723.988883875,0.2864990234375,0.9017181396484375,-0.4174957275390625,1,0.83
2020-05-19 09:59:30.228 -0400,1589896769.000341,41.35200018369945,-71.84494873233716,15.227,0,-1,3.359069416800354,4.747756279118102,-9999,63724.03877187501,0.250579833984375,0.898834228515625,-0.3749542236328125,1,0.83
2020-05-19 09:59:30.278 -0400,1589896769.000341,41.35200018369945,-71.84494873233716,15.227,0,-1,3.359069416800354,4.747756279118102,-9999,63724.088665875,0.2580718994140625,0.9575347900390625,-0.316192626953125,1,0.83
2020-05-19 09:59:30.328 -0400,1589896770.000345,41.35200065101112,-71.84494703653124,15.08095,0,-1,3.356131497320569,4.749833513448828,-9999,63724.138555875,0.2732086181640625,0.958892822265625,-0.3244171142578125,1,0.83
2020-05-19 09:59:30.377 -0400,1589896770.000345,41.35200065101112,-71.84494703653124,15.08095,0,-1,3.356131497320569,4.749833513448828,-9999,63724.18844887501,0.301971435546875,0.7693939208984375,-0.4578857421875,1,0.83
2020-05-19 09:59:30.427 -0400,1589896770.000345,41.35200065101112,-71.84494703653124,15.08095,0,-1,3.356131497320569,4.749833513448828,-9999,63724.238336875,0.2869720458984375,0.8773345947265625,-0.4346771240234375,1,0.83
2020-05-19 09:59:30.477 -0400,1589896770.000345,41.35200065101112,-71.84494703653124,15.08095,0,-1,3.356131497320569,4.749833513448828,-9999,63724.288225875,0.2952423095703125,0.8074951171875,-0.4966278076171875,1,0.83
2020-05-19 09:59:30.527 -0400,1589896770.000345,41.35200065101112,-71.84494703653124,15.08095,0,-1,3.356131497320569,4.749833513448828,-9999,63724.33811687501,0.2934417724609375,0.7493133544921875,-0.5277862548828125,1,0.83
2020-05-19 09:59:30.577 -0400,1589896770.000345,41.35200065101112,-71.84494703653124,15.08095,0,-1,3.356131497320569,4.749833513448828,-9999,63724.38800487501,0.3019866943359375,0.727264404296875,-0.549560546875,1,0.83
2020-05-19 09:59:30.627 -0400,1589896770.000345,41.35200065101112,-71.84494703653124,15.08095,0,-1,3.356131497320569,4.749833513448828,-9999,63724.437894875,0.270355224609375,0.6848602294921875,-0.5686492919921875,1,0.83
2020-05-19 09:59:30.677 -0400,1589896770.000345,41.35200065101112,-71.84494703653124,15.08095,0,-1,3.356131497320569,4.749833513448828,-9999,63724.487783875,0.2721710205078125,0.7499847412109375,-0.570709228515625,1,0.83
2020-05-19 09:59:30.727 -0400,1589896770.000345,41.35200065101112,-71.84494703653124,15.08095,0,-1,3.356131497320569,4.749833513448828,-9999,63724.53767375,0.2648162841796875,0.6778411865234375,-0.5626678466796875,1,0.83
2020-05-19 09:59:30.776 -0400,1589896770.000345,41.35200065101112,-71.84494703653124,15.08095,0,-1,3.356131497320569,4.749833513448828,-9999,63724.58756475001,0.2949371337890625,0.734466552734375,-0.619659423828125,1,0.83
2020-05-19 09:59:30.827 -0400,1589896770.000345,41.35200065101112,-71.84494703653124,15.08095,0,-1,3.356131497320569,4.749833513448828,-9999,63724.63745675,0.2840118408203125,0.6885528564453125,-0.6210174560546875,1,0.83
2020-05-19 09:59:30.876 -0400,1589896770.000345,41.35200065101112,-71.84494703653124,15.08095,0,-1,3.356131497320569,4.749833513448828,-9999,63724.68734675,0.2996673583984375,0.7679443359375,-0.616546630859375,1,0.83
2020-05-19 09:59:30.926 -0400,1589896770.000345,41.35200065101112,-71.84494703653124,15.08095,0,-1,3.356131497320569,4.749833513448828,-9999,63724.73723575001,0.2890625,0.642791748046875,-0.6558990478515625,1,0.83
2020-05-19 09:59:30.976 -0400,1589896770.000345,41.35200065101112,-71.84494703653124,15.08095,0,-1,3.356131497320569,4.749833513448828,-9999,63724.78712475,0.2938385009765625,0.6917572021484375,-0.6796875,1,0.83
2020-05-19 09:59:31.026 -0400,1589896770.000345,41.35200065101112,-71.84494703653124,15.08095,0,-1,3.356131497320569,4.749833513448828,-9999,63724.83701675,0.2838134765625,0.7556610107421875,-0.614227294921875,1,0.83
2020-05-19 09:59:31.076 -0400,1589896770.000345,41.35200065101112,-71.84494703653124,15.08095,0,-1,3.356131497320569,4.749833513448828,-9999,63724.88691075001,0.255126953125,0.7061309814453125,-0.67083740234375,1,0.83
2020-05-19 09:59:31.126 -0400,1589896770.000345,41.35200065101112,-71.84494703653124,15.08095,0,-1,3.356131497320569,4.749833513448828,-9999,63724.93680675,0.2752227783203125,0.599334716796875,-0.70318603515625,1,0.83
2020-05-19 09:59:31.176 -0400,1589896770.000345,41.35200065101112,-71.84494703653124,15.08095,0,-1,3.356131497320569,4.749833513448828,-9999,63724.98670175001,0.2860107421875,0.6484832763671875,-0.7238616943359375,1,0.83
2020-05-19 09:59:31.226 -0400,1589896771.000347,41.35199899718557,-71.8449471203642,15.6603,0,-1,3.346493688232548,4.756628746014194,-9999,63725.03659475,0.2663421630859375,0.585540771484375,-0.7132110595703125,1,0.83
2020-05-19 09:59:31.276 -0400,1589896771.000347,41.35199899718557,-71.8449471203642,15.6603,0,-1,3.346493688232548,4.756628746014194,-9999,63725.08648775001,0.270843505859375,0.555084228515625,-0.734100341796875,1,0.83
2020-05-19 09:59:31.326 -0400,1589896771.000347,41.35199899718557,-71.8449471203642,15.6603,0,-1,3.346493688232548,4.756628746014194,-9999,63725.13637975,0.3029022216796875,0.4769439697265625,-0.7305145263671875,1,0.83
2020-05-19 09:59:31.375 -0400,1589896771.000347,41.35199899718557,-71.8449471203642,15.6603,0,-1,3.346493688232548,4.756628746014194,-9999,63725.18627375001,0.2451934814453125,0.8155670166015625,-0.5357208251953125,1,0.83
2020-05-19 09:59:31.425 -0400,1589896771.000347,41.35199899718557,-71.8449471203642,15.6603,0,-1,3.346493688232548,4.756628746014194,-9999,63725.23616775,0.2383575439453125,0.8695526123046875,-0.46380615234375,1,0.83
2020-05-19 09:59:31.475 -0400,1589896771.000347,41.35199899718557,-71.8449471203642,15.6603,0,-1,3.346493688232548,4.756628746014194,-9999,63725.28605875,0.212188720703125,0.940582275390625,-0.41412353515625,1,0.83
2020-05-19 09:59:31.525 -0400,1589896771.000347,41.35199899718557,-71.8449471203642,15.6603,0,-1,3.346493688232548,4.756628746014194,-9999,63725.33595075001,0.2679901123046875,0.8236236572265625,-0.4813079833984375,1,0.83
2020-05-19 09:59:31.575 -0400,1589896771.000347,41.35199899718557,-71.8449471203642,15.6603,0,-1,3.346493688232548,4.756628746014194,-9999,63725.38583975,0.2463531494140625,0.9317626953125,-0.3791046142578125,1,0.83
2020-05-19 09:59:31.625 -0400,1589896771.000347,41.35199899718557,-71.8449471203642,15.6603,0,-1,3.346493688232548,4.756628746014194,-9999,63725.43572675,0.2386627197265625,0.9444427490234375,-0.358673095703125,1,0.83
2020-05-19 09:59:31.675 -0400,1589896771.000347,41.35199899718557,-71.8449471203642,15.6603,0,-1,3.346493688232548,4.756628746014194,-9999,63725.48561675,0.250152587890625,0.875946044921875,-0.39093017578125,1,0.83
2020-05-19 09:59:31.724 -0400,1589896771.000347,41.35199899718557,-71.8449471203642,15.6603,0,-1,3.346493688232548,4.756628746014194,-9999,63725.535510875,0.2441558837890625,0.897125244140625,-0.3709869384765625,1,0.83
2020-05-19 09:59:31.774 -0400,1589896771.000347,41.35199899718557,-71.8449471203642,15.6603,0,-1,3.346493688232548,4.756628746014194,-9999,63725.585400875,0.2347259521484375,0.9384307861328125,-0.33709716796875,1,0.83
2020-05-19 09:59:31.824 -0400,1589896771.000347,41.35199899718557,-71.8449471203642,15.6603,0,-1,3.346493688232548,4.756628746014194,-9999,63725.63529087501,0.2372894287109375,0.865814208984375,-0.373992919921875,1,0.83
2020-05-19 09:59:31.874 -0400,1589896771.000347,41.35199899718557,-71.8449471203642,15.6603,0,-1,3.346493688232548,4.756628746014194,-9999,63725.685183875,0.237640380859375,0.8208465576171875,-0.44354248046875,1,0.83
2020-05-19 09:59:31.924 -0400,1589896771.000347,41.35199899718557,-71.8449471203642,15.6603,0,-1,3.346493688232548,4.756628746014194,-9999,63725.735075875,0.224700927734375,0.90771484375,-0.4010009765625,1,0.83
2020-05-19 09:59:31.974 -0400,1589896771.000347,41.35199899718557,-71.8449471203642,15.6603,0,-1,3.346493688232548,4.756628746014194,-9999,63725.78496687501,0.2286376953125,0.912322998046875,-0.4089508056640625,1,0.83
2020-05-19 09:59:32.024 -0400,1589896771.000347,41.35199899718557,-71.8449471203642,15.6603,0,-1,3.346493688232548,4.756628746014194,-9999,63725.834855875,0.2344207763671875,0.785736083984375,-0.5189666748046875,1,0.83
2020-05-19 09:59:32.074 -0400,1589896771.000347,41.35199899718557,-71.8449471203642,15.6603,0,-1,3.346493688232548,4.756628746014194,-9999,63725.884744875,0.2372589111328125,0.910064697265625,-0.4585113525390625,1,0.83
2020-05-19 09:59:32.124 -0400,1589896771.000347,41.35199899718557,-71.8449471203642,15.6603,0,-1,3.346493688232548,4.756628746014194,-9999,63725.934632875,0.235931396484375,0.7313385009765625,-0.54656982421875,1,0.83
2020-05-19 09:59:32.173 -0400,1589896771.000347,41.35199899718557,-71.8449471203642,15.6603,0,-1,3.346493688232548,4.756628746014194,-9999,63725.984520875,0.2340545654296875,0.79180908203125,-0.5331878662109375,1,0.83
2020-05-19 09:59:32.224 -0400,1589896772.00035,41.35200162865452,-71.84494874965971,16.27422,0,-1,3.330824874151361,4.767613941011102,-9999,63726.03441087501,0.214324951171875,0.7884063720703125,-0.510650634765625,1,0.83
2020-05-19 09:59:32.273 -0400,1589896772.00035,41.35200162865452,-71.84494874965971,16.27422,0,-1,3.330824874151361,4.767613941011102,-9999,63726.084301875,0.2254791259765625,0.7799072265625,-0.562286376953125,1,0.83
2020-05-19 09:59:32.323 -0400,1589896772.00035,41.35200162865452,-71.84494874965971,16.27422,0,-1,3.330824874151361,4.767613941011102,-9999,63726.134191875,0.24859619140625,0.7942962646484375,-0.5704498291015625,1,0.83
2020-05-19 09:59:32.373 -0400,1589896772.00035,41.35200162865452,-71.84494874965971,16.27422,0,-1,3.330824874151361,4.767613941011102,-9999,63726.18408087501,0.2399749755859375,0.8321990966796875,-0.5330657958984375,1,0.83
2020-05-19 09:59:32.423 -0400,1589896772.00035,41.35200162865452,-71.84494874965971,16.27422,0,-1,3.330824874151361,4.767613941011102,-9999,63726.233971875,0.245147705078125,0.7570648193359375,-0.569732666015625,1,0.83
2020-05-19 09:59:32.473 -0400,1589896772.00035,41.35200162865452,-71.84494874965971,16.27422,0,-1,3.330824874151361,4.767613941011102,-9999,63726.283861875,0.261505126953125,0.8058929443359375,-0.593475341796875,1,0.83
2020-05-19 09:59:32.523 -0400,1589896772.00035,41.35200162865452,-71.84494874965971,16.27422,0,-1,3.330824874151361,4.767613941011102,-9999,63726.333750875,0.254486083984375,0.837127685546875,-0.5514984130859375,1,0.83
2020-05-19 09:59:32.573 -0400,1589896772.00035,41.35200162865452,-71.84494874965971,16.27422,0,-1,3.330824874151361,4.767613941011102,-9999,63726.383643875,0.288177490234375,0.71783447265625,-0.6687774658203125,1,0.83
2020-05-19 09:59:32.622 -0400,1589896772.00035,41.35200162865452,-71.84494874965971,16.27422,0,-1,3.330824874151361,4.767613941011102,-9999,63726.433530875,0.251617431640625,0.9073028564453125,-0.453338623046875,1,0.83
2020-05-19 09:59:32.672 -0400,1589896772.00035,41.35200162865452,-71.84494874965971,16.27422,0,-1,3.330824874151361,4.767613941011102,-9999,63726.483417875,0.297637939453125,0.7860565185546875,-0.632171630859375,1,0.83
2020-05-19 09:59:32.722 -0400,1589896772.00035,41.35200162865452,-71.84494874965971,16.27422,0,-1,3.330824874151361,4.767613941011102,-9999,63726.53330629167,0.334564208984375,0.5567169189453125,-0.7866058349609375,1,0.83
2020-05-19 09:59:32.772 -0400,1589896772.00035,41.35200162865452,-71.84494874965971,16.27422,0,-1,3.330824874151361,4.767613941011102,-9999,63726.58319429167,0.3043365478515625,0.4860992431640625,-0.742279052734375,1,0.83
2020-05-19 09:59:32.822 -0400,1589896772.00035,41.35200162865452,-71.84494874965971,16.27422,0,-1,3.330824874151361,4.767613941011102,-9999,63726.63308429167,0.274749755859375,0.8562469482421875,-0.5999603271484375,1,0.83
2020-05-19 09:59:32.875 -0400,1589896772.00035,41.35200162865452,-71.84494874965971,16.27422,0,-1,3.330824874151361,4.767613941011102,-9999,63726.68297429167,0.28277587890625,0.7308807373046875,-0.6518402099609375,1,0.83
2020-05-19 09:59:32.922 -0400,1589896772.00035,41.35200162865452,-71.84494874965971,16.27422,0,-1,3.330824874151361,4.767613941011102,-9999,63726.73286429167,0.2858428955078125,0.6517181396484375,-0.679595947265625,1,0.83
2020-05-19 09:59:32.972 -0400,1589896772.00035,41.35200162865452,-71.84494874965971,16.27422,0,-1,3.330824874151361,4.767613941011102,-9999,63726.78275729167,0.2955474853515625,0.676910400390625,-0.6549224853515625,1,0.83
2020-05-19 09:59:33.022 -0400,1589896772.00035,41.35200162865452,-71.84494874965971,16.27422,0,-1,3.330824874151361,4.767613941011102,-9999,63726.83264729167,0.3029022216796875,0.72509765625,-0.64892578125,1,0.83
2020-05-19 09:59:33.071 -0400,1589896772.00035,41.35200162865452,-71.84494874965971,16.27422,0,-1,3.330824874151361,4.767613941011102,-9999,63726.88253629167,0.284454345703125,0.698211669921875,-0.64385986328125,1,0.83
2020-05-19 09:59:33.122 -0400,1589896772.00035,41.35200162865452,-71.84494874965971,16.27422,0,-1,3.330824874151361,4.767613941011102,-9999,63726.93242729167,0.2984771728515625,0.6139373779296875,-0.70855712890625,1,0.83
2020-05-19 09:59:33.171 -0400,1589896772.00035,41.35200162865452,-71.84494874965971,16.27422,0,-1,3.330824874151361,4.767613941011102,-9999,63726.98231429167,0.277374267578125,0.7552032470703125,-0.616241455078125,1,0.83
2020-05-19 09:59:33.221 -0400,1589896773.000353,41.35199110957466,-71.84495228056554,16.61468,0,-1,3.43660794870868,4.691935937292959,-9999,63727.03220429167,0.28631591796875,0.67535400390625,-0.6595458984375,1,0.83
2020-05-19 09:59:33.271 -0400,1589896773.000353,41.35199110957466,-71.84495228056554,16.61468,0,-1,3.43660794870868,4.691935937292959,-9999,63727.08209629167,0.28564453125,0.7101287841796875,-0.6541595458984375,1,0.83
2020-05-19 09:59:33.321 -0400,1589896773.000353,41.35199110957466,-71.84495228056554,16.61468,0,-1,3.43660794870868,4.691935937292959,-9999,63727.13198829167,0.2888641357421875,0.7163848876953125,-0.6446533203125,1,0.83
2020-05-19 09:59:33.371 -0400,1589896773.000353,41.35199110957466,-71.84495228056554,16.61468,0,-1,3.43660794870868,4.691935937292959,-9999,63727.18187829167,0.2972869873046875,0.6887054443359375,-0.675811767578125,1,0.83
2020-05-19 09:59:33.421 -0400,1589896773.000353,41.35199110957466,-71.84495228056554,16.61468,0,-1,3.43660794870868,4.691935937292959,-9999,63727.23176829167,0.285980224609375,0.6918487548828125,-0.6609039306640625,1,0.83
2020-05-19 09:59:33.471 -0400,1589896773.000353,41.35199110957466,-71.84495228056554,16.61468,0,-1,3.43660794870868,4.691935937292959,-9999,63727.28165729167,0.2849884033203125,0.6851806640625,-0.6500701904296875,1,0.83
2020-05-19 09:59:33.520 -0400,1589896773.000353,41.35199110957466,-71.84495228056554,16.61468,0,-1,3.43660794870868,4.691935937292959,-9999,63727.33154429167,0.2924957275390625,0.694671630859375,-0.6548309326171875,1,0.83
2020-05-19 09:59:33.570 -0400,1589896773.000353,41.35199110957466,-71.84495228056554,16.61468,0,-1,3.43660794870868,4.691935937292959,-9999,63727.38143029167,0.294891357421875,0.7017059326171875,-0.663238525390625,1,0.83
2020-05-19 09:59:33.620 -0400,1589896773.000353,41.35199110957466,-71.84495228056554,16.61468,0,-1,3.43660794870868,4.691935937292959,-9999,63727.43131729167,0.294036865234375,0.6955108642578125,-0.6594696044921875,1,0.83
2020-05-19 09:59:33.670 -0400,1589896773.000353,41.35199110957466,-71.84495228056554,16.61468,0,-1,3.43660794870868,4.691935937292959,-9999,63727.48120429167,0.2881927490234375,0.7017364501953125,-0.6564178466796875,1,0.83
2020-05-19 09:59:33.720 -0400,1589896773.000353,41.35199110957466,-71.84495228056554,16.61468,0,-1,3.43660794870868,4.691935937292959,-9999,63727.531094875,0.289093017578125,0.7016754150390625,-0.659423828125,1,0.83
2020-05-19 09:59:33.770 -0400,1589896773.000353,41.35199110957466,-71.84495228056554,16.61468,0,-1,3.43660794870868,4.691935937292959,-9999,63727.58098487501,0.2912445068359375,0.6797027587890625,-0.66046142578125,1,0.83
2020-05-19 09:59:33.820 -0400,1589896773.000353,41.35199110957466,-71.84495228056554,16.61468,0,-1,3.43660794870868,4.691935937292959,-9999,63727.630875875,0.2955780029296875,0.6981201171875,-0.65545654296875,1,0.83
2020-05-19 09:59:33.870 -0400,1589896773.000353,41.35199110957466,-71.84495228056554,16.61468,0,-1,3.43660794870868,4.691935937292959,-9999,63727.680762875,0.2916717529296875,0.7051239013671875,-0.6574554443359375,1,0.83
2020-05-19 09:59:33.920 -0400,1589896773.000353,41.35199110957466,-71.84495228056554,16.61468,0,-1,3.43660794870868,4.691935937292959,-9999,63727.73065287501,0.28955078125,0.697113037109375,-0.65338134765625,1,0.83
2020-05-19 09:59:33.969 -0400,1589896773.000353,41.35199110957466,-71.84495228056554,16.61468,0,-1,3.43660794870868,4.691935937292959,-9999,63727.78054187501,0.292694091796875,0.6934356689453125,-0.6587982177734375,1,0.83
2020-05-19 09:59:34.019 -0400,1589896773.000353,41.35199110957466,-71.84495228056554,16.61468,0,-1,3.43660794870868,4.691935937292959,-9999,63727.830429875,0.2887420654296875,0.6860809326171875,-0.6645050048828125,1,0.83
2020-05-19 09:59:34.069 -0400,1589896773.000353,41.35199110957466,-71.84495228056554,16.61468,0,-1,3.43660794870868,4.691935937292959,-9999,63727.880318875,0.2915191650390625,0.733642578125,-0.6417083740234375,1,0.83
2020-05-19 09:59:34.119 -0400,1589896773.000353,41.35199110957466,-71.84495228056554,16.61468,0,-1,3.43660794870868,4.691935937292959,-9999,63727.930204875,0.2914581298828125,0.7125396728515625,-0.629241943359375,1,0.83
2020-05-19 09:59:34.169 -0400,1589896773.000353,41.35199110957466,-71.84495228056554,16.61468,0,-1,3.43660794870868,4.691935937292959,-9999,63727.980091875,0.288055419921875,0.749603271484375,-0.60418701171875,1,0.83
2020-05-19 09:59:34.219 -0400,1589896774.000357,41.3519903974933,-71.8449544414707,16.54231,0,-1,3.442365413428033,4.687713450417301,-9999,63728.02998087501,0.2838592529296875,0.7321624755859375,-0.6206207275390625,1,0.83
2020-05-19 09:59:34.269 -0400,1589896774.000357,41.3519903974933,-71.8449544414707,16.54231,0,-1,3.442365413428033,4.687713450417301,-9999,63728.07986887501,0.2800750732421875,0.7452392578125,-0.619140625,1,0.83
2020-05-19 09:59:34.319 -0400,1589896774.000357,41.3519903974933,-71.8449544414707,16.54231,0,-1,3.442365413428033,4.687713450417301,-9999,63728.129759875,0.274810791015625,0.7639617919921875,-0.594146728515625,1,0.83
2020-05-19 09:59:34.369 -0400,1589896774.000357,41.3519903974933,-71.8449544414707,16.54231,0,-1,3.442365413428033,4.687713450417301,-9999,63728.179648875,0.284423828125,0.697357177734375,-0.6395416259765625,1,0.83
2020-05-19 09:59:34.419 -0400,1589896774.000357,41.3519903974933,-71.8449544414707,16.54231,0,-1,3.442365413428033,4.687713450417301,-9999,63728.22953887501,0.280853271484375,0.7246246337890625,-0.630401611328125,1,0.83
2020-05-19 09:59:34.468 -0400,1589896774.000357,41.3519903974933,-71.8449544414707,16.54231,0,-1,3.442365413428033,4.687713450417301,-9999,63728.279426875,0.28668212890625,0.6962432861328125,-0.6491546630859375,1,0.83
2020-05-19 09:59:34.518 -0400,1589896774.000357,41.3519903974933,-71.8449544414707,16.54231,0,-1,3.442365413428033,4.687713450417301,-9999,63728.329315875,0.2838134765625,0.6824951171875,-0.6584625244140625,1,0.83
2020-05-19 09:59:34.568 -0400,1589896774.000357,41.3519903974933,-71.8449544414707,16.54231,0,-1,3.442365413428033,4.687713450417301,-9999,63728.379204875,0.2954254150390625,0.7017822265625,-0.66485595703125,1,0.83
2020-05-19 09:59:34.618 -0400,1589896774.000357,41.3519903974933,-71.8449544414707,16.54231,0,-1,3.442365413428033,4.687713450417301,-9999,63728.42909487501,0.295074462890625,0.705718994140625,-0.6605987548828125,1,0.83
2020-05-19 09:59:34.668 -0400,1589896774.000357,41.3519903974933,-71.8449544414707,16.54231,0,-1,3.442365413428033,4.687713450417301,-9999,63728.478986875,0.2918548583984375,0.682159423828125,-0.6554412841796875,1,0.83
2020-05-19 09:59:34.718 -0400,1589896774.000357,41.3519903974933,-71.8449544414707,16.54231,0,-1,3.442365413428033,4.687713450417301,-9999,63728.52887941667,0.289031982421875,0.7016448974609375,-0.6586456298828125,1,0.83
2020-05-19 09:59:34.768 -0400,1589896774.000357,41.3519903974933,-71.8449544414707,16.54231,0,-1,3.442365413428033,4.687713450417301,-9999,63728.57877141667,0.295135498046875,0.6972808837890625,-0.6486358642578125,1,0.83
2020-05-19 09:59:34.818 -0400,1589896774.000357,41.3519903974933,-71.8449544414707,16.54231,0,-1,3.442365413428033,4.687713450417301,-9999,63728.62866141667,0.2935028076171875,0.720794677734375,-0.6378021240234375,1,0.83
2020-05-19 09:59:34.868 -0400,1589896774.000357,41.3519903974933,-71.8449544414707,16.54231,0,-1,3.442365413428033,4.687713450417301,-9999,63728.67855241667,0.2918853759765625,0.688995361328125,-0.636810302734375,1,0.83
2020-05-19 09:59:34.917 -0400,1589896774.000357,41.3519903974933,-71.8449544414707,16.54231,0,-1,3.442365413428033,4.687713450417301,-9999,63728.72844541667,0.2847137451171875,0.7210540771484375,-0.63201904296875,1,0.83
2020-05-19 09:59:34.967 -0400,1589896774.000357,41.3519903974933,-71.8449544414707,16.54231,0,-1,3.442365413428033,4.687713450417301,-9999,63728.77833941667,0.292877197265625,0.68145751953125,-0.65936279296875,1,0.83
2020-05-19 09:59:35.017 -0400,1589896774.000357,41.3519903974933,-71.8449544414707,16.54231,0,-1,3.442365413428033,4.687713450417301,-9999,63728.82822941667,0.2952880859375,0.6996002197265625,-0.6625213623046875,1,0.83
2020-05-19 09:59:35.067 -0400,1589896774.000357,41.3519903974933,-71.8449544414707,16.54231,0,-1,3.442365413428033,4.687713450417301,-9999,63728.87812141667,0.29974365234375,0.7024993896484375,-0.6690216064453125,1,0.83
2020-05-19 09:59:35.117 -0400,1589896774.000357,41.3519903974933,-71.8449544414707,16.54231,0,-1,3.442365413428033,4.687713450417301,-9999,63728.92801141667,0.304168701171875,0.7244873046875,-0.63507080078125,1,0.83
2020-05-19 09:59:35.167 -0400,1589896774.000357,41.3519903974933,-71.8449544414707,16.54231,0,-1,3.442365413428033,4.687713450417301,-9999,63728.97790241667,0.30194091796875,0.6806488037109375,-0.6565399169921875,1,0.83
2020-05-19 09:59:35.217 -0400,1589896775.00036,41.35199087733528,-71.84495521180071,16.42781,0,-1,3.462091526194396,4.673163735312706,-9999,63729.02779641667,0.2906646728515625,0.68359375,-0.6535797119140625,1,0.83
2020-05-19 09:59:35.267 -0400,1589896775.00036,41.35199087733528,-71.84495521180071,16.42781,0,-1,3.462091526194396,4.673163735312706,-9999,63729.07768841667,0.300201416015625,0.7293548583984375,-0.637451171875,1,0.83
2020-05-19 09:59:35.317 -0400,1589896775.00036,41.35199087733528,-71.84495521180071,16.42781,0,-1,3.462091526194396,4.673163735312706,-9999,63729.12757941667,0.292755126953125,0.70697021484375,-0.6533203125,1,0.83
2020-05-19 09:59:35.366 -0400,1589896775.00036,41.35199087733528,-71.84495521180071,16.42781,0,-1,3.462091526194396,4.673163735312706,-9999,63729.17747241667,0.28717041015625,0.7039642333984375,-0.6441497802734375,1,0.83
2020-05-19 09:59:35.416 -0400,1589896775.00036,41.35199087733528,-71.84495521180071,16.42781,0,-1,3.462091526194396,4.673163735312706,-9999,63729.22736341667,0.292449951171875,0.7098236083984375,-0.6307525634765625,1,0.83
2020-05-19 09:59:35.466 -0400,1589896775.00036,41.35199087733528,-71.84495521180071,16.42781,0,-1,3.462091526194396,4.673163735312706,-9999,63729.27725441667,0.297332763671875,0.741851806640625,-0.6273651123046875,1,0.83
2020-05-19 09:59:35.516 -0400,1589896775.00036,41.35199087733528,-71.84495521180071,16.42781,0,-1,3.462091526194396,4.673163735312706,-9999,63729.32714841667,0.2975311279296875,0.71636962890625,-0.6317901611328125,1,0.83
2020-05-19 09:59:35.566 -0400,1589896775.00036,41.35199087733528,-71.84495521180071,16.42781,0,-1,3.462091526194396,4.673163735312706,-9999,63729.37703941667,0.2894134521484375,0.6992645263671875,-0.6365814208984375,1,0.83
2020-05-19 09:59:35.616 -0400,1589896775.00036,41.35199087733528,-71.84495521180071,16.42781,0,-1,3.462091526194396,4.673163735312706,-9999,63729.42692841667,0.2946014404296875,0.7154693603515625,-0.627960205078125,1,0.83
2020-05-19 09:59:35.666 -0400,1589896775.00036,41.35199087733528,-71.84495521180071,16.42781,0,-1,3.462091526194396,4.673163735312706,-9999,63729.47681641667,0.297149658203125,0.6990509033203125,-0.6361846923828125,1,0.83
2020-05-19 09:59:35.716 -0400,1589896775.00036,41.35199087733528,-71.84495521180071,16.42781,0,-1,3.462091526194396,4.673163735312706,-9999,63729.52670804167,0.2946929931640625,0.7085418701171875,-0.617156982421875,1,0.83
2020-05-19 09:59:35.766 -0400,1589896775.00036,41.35199087733528,-71.84495521180071,16.42781,0,-1,3.462091526194396,4.673163735312706,-9999,63729.57659804167,0.305511474609375,0.7037506103515625,-0.6355133056640625,1,0.83
2020-05-19 09:59:35.816 -0400,1589896775.00036,41.35199087733528,-71.84495521180071,16.42781,0,-1,3.462091526194396,4.673163735312706,-9999,63729.62648604167,0.2978515625,0.736541748046875,-0.6211090087890625,1,0.83
2020-05-19 09:59:35.865 -0400,1589896775.00036,41.35199087733528,-71.84495521180071,16.42781,0,-1,3.462091526194396,4.673163735312706,-9999,63729.67637304167,0.300994873046875,0.731048583984375,-0.621002197265625,1,0.83
2020-05-19 09:59:35.915 -0400,1589896775.00036,41.35199087733528,-71.84495521180071,16.42781,0,-1,3.462091526194396,4.673163735312706,-9999,63729.72626004167,0.300262451171875,0.7208099365234375,-0.62408447265625,1,0.83
2020-05-19 09:59:35.965 -0400,1589896775.00036,41.35199087733528,-71.84495521180071,16.42781,0,-1,3.462091526194396,4.673163735312706,-9999,63729.77614804167,0.2973785400390625,0.73419189453125,-0.6189422607421875,1,0.83
2020-05-19 09:59:36.015 -0400,1589896775.00036,41.35199087733528,-71.84495521180071,16.42781,0,-1,3.462091526194396,4.673163735312706,-9999,63729.82603604167,0.2986907958984375,0.7173919677734375,-0.6328277587890625,1,0.83
2020-05-19 09:59:36.065 -0400,1589896775.00036,41.35199087733528,-71.84495521180071,16.42781,0,-1,3.462091526194396,4.673163735312706,-9999,63729.87592604167,0.300018310546875,0.7366180419921875,-0.6158599853515625,1,0.83
2020-05-19 09:59:36.115 -0400,1589896775.00036,41.35199087733528,-71.84495521180071,16.42781,0,-1,3.462091526194396,4.673163735312706,-9999,63729.92581404167,0.3012542724609375,0.7261962890625,-0.6147918701171875,1,0.83
2020-05-19 09:59:36.165 -0400,1589896775.00036,41.35199087733528,-71.84495521180071,16.42781,0,-1,3.462091526194396,4.673163735312706,-9999,63729.97570304167,0.3014678955078125,0.7242431640625,-0.6281280517578125,1,0.83
2020-05-19 09:59:36.215 -0400,1589896776.000363,41.35199087733528,-71.84495521180071,16.42781,0,-1,3.458506850746673,4.675817297128617,-9999,63730.02559404167,0.2987823486328125,0.7335357666015625,-0.6097259521484375,1,0.83
2020-05-19 09:59:36.264 -0400,1589896776.000363,41.35199087733528,-71.84495521180071,16.42781,0,-1,3.458506850746673,4.675817297128617,-9999,63730.07548204167,0.2977294921875,0.735687255859375,-0.6128692626953125,1,0.83
2020-05-19 09:59:36.314 -0400,1589896776.000363,41.35199087733528,-71.84495521180071,16.42781,0,-1,3.458506850746673,4.675817297128617,-9999,63730.12536904167,0.2965087890625,0.7427520751953125,-0.6163177490234375,1,0.83
2020-05-19 09:59:36.364 -0400,1589896776.000363,41.35199087733528,-71.84495521180071,16.42781,0,-1,3.458506850746673,4.675817297128617,-9999,63730.17526004167,0.3002471923828125,0.7403411865234375,-0.6155548095703125,1,0.83
2020-05-19 09:59:36.414 -0400,1589896776.000363,41.35199087733528,-71.84495521180071,16.42781,0,-1,3.458506850746673,4.675817297128617,-9999,63730.22515004167,0.3032379150390625,0.72509765625,-0.61724853515625,1,0.83
2020-05-19 09:59:36.464 -0400,1589896776.000363,41.35199087733528,-71.84495521180071,16.42781,0,-1,3.458506850746673,4.675817297128617,-9999,63730.27503904167,0.3031005859375,0.7425994873046875,-0.6109161376953125,1,0.83
2020-05-19 09:59:36.514 -0400,1589896776.000363,41.35199087733528,-71.84495521180071,16.42781,0,-1,3.458506850746673,4.675817297128617,-9999,63730.32492804167,0.2999114990234375,0.7288055419921875,-0.6169281005859375,1,0.83
2020-05-19 09:59:36.564 -0400,1589896776.000363,41.35199087733528,-71.84495521180071,16.42781,0,-1,3.458506850746673,4.675817297128617,-9999,63730.37481504167,0.3000335693359375,0.728851318359375,-0.6187286376953125,1,0.83
2020-05-19 09:59:36.614 -0400,1589896776.000363,41.35199087733528,-71.84495521180071,16.42781,0,-1,3.458506850746673,4.675817297128617,-9999,63730.42470204167,0.296905517578125,0.72821044921875,-0.6146392822265625,1,0.83
2020-05-19 09:59:36.664 -0400,1589896776.000363,41.35199087733528,-71.84495521180071,16.42781,0,-1,3.458506850746673,4.675817297128617,-9999,63730.47459104167,0.2970123291015625,0.729217529296875,-0.6120147705078125,1,0.83
2020-05-19 09:59:36.713 -0400,1589896776.000363,41.35199087733528,-71.84495521180071,16.42781,0,-1,3.458506850746673,4.675817297128617,-9999,63730.52448125,0.2960205078125,0.7314605712890625,-0.612091064453125,1,0.83
2020-05-19 09:59:36.763 -0400,1589896776.000363,41.35199087733528,-71.84495521180071,16.42781,0,-1,3.458506850746673,4.675817297128617,-9999,63730.57437025,0.29571533203125,0.736236572265625,-0.6209564208984375,1,0.83
2020-05-19 09:59:36.813 -0400,1589896776.000363,41.35199087733528,-71.84495521180071,16.42781,0,-1,3.458506850746673,4.675817297128617,-9999,63730.62425725001,0.297760009765625,0.7305145263671875,-0.615966796875,1,0.83
2020-05-19 09:59:36.863 -0400,1589896776.000363,41.35199087733528,-71.84495521180071,16.42781,0,-1,3.458506850746673,4.675817297128617,-9999,63730.67414525001,0.2974395751953125,0.727447509765625,-0.612762451171875,1,0.83
2020-05-19 09:59:36.913 -0400,1589896776.000363,41.35199087733528,-71.84495521180071,16.42781,0,-1,3.458506850746673,4.675817297128617,-9999,63730.72403425,0.2984771728515625,0.724090576171875,-0.624359130859375,1,0.83
2020-05-19 09:59:36.963 -0400,1589896776.000363,41.35199087733528,-71.84495521180071,16.42781,0,-1,3.458506850746673,4.675817297128617,-9999,63730.77392325,0.2944793701171875,0.743133544921875,-0.6185302734375,1,0.83
2020-05-19 09:59:37.013 -0400,1589896776.000363,41.35199087733528,-71.84495521180071,16.42781,0,-1,3.458506850746673,4.675817297128617,-9999,63730.82381125,0.2918853759765625,0.7259368896484375,-0.621337890625,1,0.83
2020-05-19 09:59:37.063 -0400,1589896776.000363,41.35199087733528,-71.84495521180071,16.42781,0,-1,3.458506850746673,4.675817297128617,-9999,63730.87370125001,0.2923431396484375,0.7271575927734375,-0.62255859375,1,0.83
2020-05-19 09:59:37.113 -0400,1589896776.000363,41.35199087733528,-71.84495521180071,16.42781,0,-1,3.458506850746673,4.675817297128617,-9999,63730.92358925001,0.295806884765625,0.730072021484375,-0.619842529296875,1,0.83
2020-05-19 09:59:37.162 -0400,1589896776.000363,41.35199087733528,-71.84495521180071,16.42781,0,-1,3.458506850746673,4.675817297128617,-9999,63730.97347625,0.2993927001953125,0.722381591796875,-0.6295013427734375,1,0.83
2020-05-19 09:59:37.213 -0400,1589896777.000365,41.35199087733528,-71.84495521180071,16.42781,0,-1,3.428772018037613,4.697665322382078,-9999,63731.02336425,0.2973175048828125,0.730072021484375,-0.6201019287109375,1,0.83
2020-05-19 09:59:37.262 -0400,1589896777.000365,41.35199087733528,-71.84495521180071,16.42781,0,-1,3.428772018037613,4.697665322382078,-9999,63731.07325525,0.2946929931640625,0.7156982421875,-0.6279449462890625,1,0.83
2020-05-19 09:59:37.312 -0400,1589896777.000365,41.35199087733528,-71.84495521180071,16.42781,0,-1,3.428772018037613,4.697665322382078,-9999,63731.12314625001,0.2940826416015625,0.7233734130859375,-0.628082275390625,1,0.83
2020-05-19 09:59:37.362 -0400,1589896777.000365,41.35199087733528,-71.84495521180071,16.42781,0,-1,3.428772018037613,4.697665322382078,-9999,63731.17303425,0.2913055419921875,0.7154541015625,-0.6264801025390625,1,0.83
2020-05-19 09:59:37.412 -0400,1589896777.000365,41.35199087733528,-71.84495521180071,16.42781,0,-1,3.428772018037613,4.697665322382078,-9999,63731.22292425,0.3029937744140625,0.694061279296875,-0.646087646484375,1,0.83
2020-05-19 09:59:37.462 -0400,1589896777.000365,41.35199087733528,-71.84495521180071,16.42781,0,-1,3.428772018037613,4.697665322382078,-9999,63731.27281325001,0.296905517578125,0.7061004638671875,-0.6322021484375,1,0.83
2020-05-19 09:59:37.512 -0400,1589896777.000365,41.35199087733528,-71.84495521180071,16.42781,0,-1,3.428772018037613,4.697665322382078,-9999,63731.32270025001,0.2941436767578125,0.7401123046875,-0.613372802734375,1,0.83
2020-05-19 09:59:37.561 -0400,1589896777.000365,41.35199087733528,-71.84495521180071,16.42781,0,-1,3.428772018037613,4.697665322382078,-9999,63731.37258625001,0.293853759765625,0.7373504638671875,-0.63421630859375,1,0.83
2020-05-19 09:59:37.611 -0400,1589896777.000365,41.35199087733528,-71.84495521180071,16.42781,0,-1,3.428772018037613,4.697665322382078,-9999,63731.42247525,0.2976226806640625,0.7296295166015625,-0.62994384765625,1,0.83
2020-05-19 09:59:37.661 -0400,1589896777.000365,41.35199087733528,-71.84495521180071,16.42781,0,-1,3.428772018037613,4.697665322382078,-9999,63731.47236325,0.2893829345703125,0.7105865478515625,-0.6263275146484375,1,0.83
2020-05-19 09:59:37.711 -0400,1589896777.000365,41.35199087733528,-71.84495521180071,16.42781,0,-1,3.428772018037613,4.697665322382078,-9999,63731.52225004167,0.2985992431640625,0.702667236328125,-0.648162841796875,1,0.83
2020-05-19 09:59:37.761 -0400,1589896777.000365,41.35199087733528,-71.84495521180071,16.42781,0,-1,3.428772018037613,4.697665322382078,-9999,63731.57213704167,0.2933807373046875,0.7003021240234375,-0.650482177734375,1,0.83
2020-05-19 09:59:37.811 -0400,1589896777.000365,41.35199087733528,-71.84495521180071,16.42781,0,-1,3.428772018037613,4.697665322382078,-9999,63731.62202404167,0.2915191650390625,0.7109527587890625,-0.637054443359375,1,0.83
2020-05-19 09:59:37.861 -0400,1589896777.000365,41.35199087733528,-71.84495521180071,16.42781,0,-1,3.428772018037613,4.697665322382078,-9999,63731.67191104167,0.2897796630859375,0.69415283203125,-0.651123046875,1,0.83
2020-05-19 09:59:37.911 -0400,1589896777.000365,41.35199087733528,-71.84495521180071,16.42781,0,-1,3.428772018037613,4.697665322382078,-9999,63731.72179604167,0.3150482177734375,0.7091522216796875,-0.69482421875,1,0.83
2020-05-19 09:59:37.961 -0400,1589896777.000365,41.35199087733528,-71.84495521180071,16.42781,0,-1,3.428772018037613,4.697665322382078,-9999,63731.77168304167,0.302459716796875,0.69696044921875,-0.6585693359375,1,0.83
2020-05-19 09:59:38.011 -0400,1589896777.000365,41.35199087733528,-71.84495521180071,16.42781,0,-1,3.428772018037613,4.697665322382078,-9999,63731.82156904167,0.303131103515625,0.68878173828125,-0.66131591796875,1,0.83
2020-05-19 09:59:38.060 -0400,1589896777.000365,41.35199087733528,-71.84495521180071,16.42781,0,-1,3.428772018037613,4.697665322382078,-9999,63731.87145504167,0.298736572265625,0.7017822265625,-0.6527099609375,1,0.83
2020-05-19 09:59:38.110 -0400,1589896777.000365,41.35199087733528,-71.84495521180071,16.42781,0,-1,3.428772018037613,4.697665322382078,-9999,63731.92134104167,0.2944793701171875,0.7206573486328125,-0.64984130859375,1,0.83
2020-05-19 09:59:38.160 -0400,1589896777.000365,41.35199087733528,-71.84495521180071,16.42781,0,-1,3.428772018037613,4.697665322382078,-9999,63731.97122504167,0.295135498046875,0.7019805908203125,-0.644256591796875,1,0.83
2020-05-19 09:59:38.210 -0400,1589896778.000372,41.35199087733528,-71.84495521180071,16.42781,0,-1,3.417881316901701,4.705595003436136,-9999,63732.02110804167,0.2893524169921875,0.7616729736328125,-0.6112518310546875,1,0.83
2020-05-19 09:59:38.260 -0400,1589896778.000372,41.35199087733528,-71.84495521180071,16.42781,0,-1,3.417881316901701,4.705595003436136,-9999,63732.07099204167,0.2957763671875,0.717864990234375,-0.638641357421875,1,0.83
2020-05-19 09:59:38.310 -0400,1589896778.000372,41.35199087733528,-71.84495521180071,16.42781,0,-1,3.417881316901701,4.705595003436136,-9999,63732.12088004167,0.2969207763671875,0.7073211669921875,-0.632904052734375,1,0.83
2020-05-19 09:59:38.360 -0400,1589896778.000372,41.35199087733528,-71.84495521180071,16.42781,0,-1,3.417881316901701,4.705595003436136,-9999,63732.17076604167,0.2981719970703125,0.7221221923828125,-0.6316070556640625,1,0.83
2020-05-19 09:59:38.410 -0400,1589896778.000372,41.35199087733528,-71.84495521180071,16.42781,0,-1,3.417881316901701,4.705595003436136,-9999,63732.22065204167,0.2967987060546875,0.70770263671875,-0.630767822265625,1,0.83
2020-05-19 09:59:38.459 -0400,1589896778.000372,41.35199087733528,-71.84495521180071,16.42781,0,-1,3.417881316901701,4.705595003436136,-9999,63732.27053704167,0.2904815673828125,0.741302490234375,-0.623687744140625,1,0.83
2020-05-19 09:59:38.509 -0400,1589896778.000372,41.35199087733528,-71.84495521180071,16.42781,0,-1,3.417881316901701,4.705595003436136,-9999,63732.32042504167,0.2896575927734375,0.737762451171875,-0.6196136474609375,1,0.83
2020-05-19 09:59:38.559 -0400,1589896778.000372,41.35199087733528,-71.84495521180071,16.42781,0,-1,3.417881316901701,4.705595003436136,-9999,63732.37031304167,0.2945404052734375,0.7030181884765625,-0.6318817138671875,1,0.83
2020-05-19 09:59:38.609 -0400,1589896778.000372,41.35199087733528,-71.84495521180071,16.42781,0,-1,3.417881316901701,4.705595003436136,-9999,63732.42020304167,0.2874298095703125,0.749481201171875,-0.6104583740234375,1,0.83
2020-05-19 09:59:38.659 -0400,1589896778.000372,41.35199087733528,-71.84495521180071,16.42781,0,-1,3.417881316901701,4.705595003436136,-9999,63732.47008904167,0.2879638671875,0.7229461669921875,-0.6228485107421875,1,0.83
2020-05-19 09:59:38.709 -0400,1589896778.000372,41.35199087733528,-71.84495521180071,16.42781,0,-1,3.417881316901701,4.705595003436136,-9999,63732.51997637501,0.2855377197265625,0.7375335693359375,-0.615325927734375,1,0.83
2020-05-19 09:59:38.759 -0400,1589896778.000372,41.35199087733528,-71.84495521180071,16.42781,0,-1,3.417881316901701,4.705595003436136,-9999,63732.56986137501,0.290069580078125,0.7357635498046875,-0.6243743896484375,1,0.83
2020-05-19 09:59:38.809 -0400,1589896778.000372,41.35199087733528,-71.84495521180071,16.42781,0,-1,3.417881316901701,4.705595003436136,-9999,63732.61974637501,0.2910614013671875,0.72802734375,-0.61920166015625,1,0.83
2020-05-19 09:59:38.859 -0400,1589896778.000372,41.35199087733528,-71.84495521180071,16.42781,0,-1,3.417881316901701,4.705595003436136,-9999,63732.66963237501,0.2987060546875,0.7379302978515625,-0.6171112060546875,1,0.83
2020-05-19 09:59:38.908 -0400,1589896778.000372,41.35199087733528,-71.84495521180071,16.42781,0,-1,3.417881316901701,4.705595003436136,-9999,63732.719518375,0.296905517578125,0.7296295166015625,-0.6177215576171875,1,0.83
2020-05-19 09:59:38.959 -0400,1589896778.000372,41.35199087733528,-71.84495521180071,16.42781,0,-1,3.417881316901701,4.705595003436136,-9999,63732.769405375,0.2915191650390625,0.73748779296875,-0.6166229248046875,1,0.83
2020-05-19 09:59:39.008 -0400,1589896778.000372,41.35199087733528,-71.84495521180071,16.42781,0,-1,3.417881316901701,4.705595003436136,-9999,63732.819292375,0.291107177734375,0.72540283203125,-0.618988037109375,1,0.83
2020-05-19 09:59:39.058 -0400,1589896778.000372,41.35199087733528,-71.84495521180071,16.42781,0,-1,3.417881316901701,4.705595003436136,-9999,63732.869179375,0.296844482421875,0.729705810546875,-0.6183929443359375,1,0.83
2020-05-19 09:59:39.108 -0400,1589896778.000372,41.35199087733528,-71.84495521180071,16.42781,0,-1,3.417881316901701,4.705595003436136,-9999,63732.919064375,0.2961273193359375,0.72930908203125,-0.6172027587890625,1,0.83
2020-05-19 09:59:39.158 -0400,1589896778.000372,41.35199087733528,-71.84495521180071,16.42781,0,-1,3.417881316901701,4.705595003436136,-9999,63732.96895037501,0.2982025146484375,0.723785400390625,-0.6213836669921875,1,0.83
2020-05-19 09:59:39.208 -0400,1589896779.000371,41.35198617834394,-71.84495980544438,17.14572,0,-1,3.421303308528015,4.703107558183642,-9999,63733.01883737501,0.30255126953125,0.7257080078125,-0.6267242431640625,1,0.83
2020-05-19 09:59:39.258 -0400,1589896779.000371,41.35198617834394,-71.84495980544438,17.14572,0,-1,3.421303308528015,4.703107558183642,-9999,63733.06872237501,0.3034210205078125,0.72430419921875,-0.6137237548828125,1,0.83
2020-05-19 09:59:39.307 -0400,1589896779.000371,41.35198617834394,-71.84495980544438,17.14572,0,-1,3.421303308528015,4.703107558183642,-9999,63733.11860737501,0.300048828125,0.719207763671875,-0.6226348876953125,1,0.83
2020-05-19 09:59:39.357 -0400,1589896779.000371,41.35198617834394,-71.84495980544438,17.14572,0,-1,3.421303308528015,4.703107558183642,-9999,63733.16849137501,0.29949951171875,0.740631103515625,-0.6187286376953125,1,0.83
2020-05-19 09:59:39.407 -0400,1589896779.000371,41.35198617834394,-71.84495980544438,17.14572,0,-1,3.421303308528015,4.703107558183642,-9999,63733.21837537501,0.3045806884765625,0.72247314453125,-0.6178436279296875,1,0.83
2020-05-19 09:59:39.457 -0400,1589896779.000371,41.35198617834394,-71.84495980544438,17.14572,0,-1,3.421303308528015,4.703107558183642,-9999,63733.26825937501,0.3032073974609375,0.72259521484375,-0.6225433349609375,1,0.83
2020-05-19 09:59:39.507 -0400,1589896779.000371,41.35198617834394,-71.84495980544438,17.14572,0,-1,3.421303308528015,4.703107558183642,-9999,63733.31814237501,0.303863525390625,0.7265625,-0.624420166015625,1,0.83
2020-05-19 09:59:39.557 -0400,1589896779.000371,41.35198617834394,-71.84495980544438,17.14572,0,-1,3.421303308528015,4.703107558183642,-9999,63733.36802837501,0.3057403564453125,0.7303924560546875,-0.619171142578125,1,0.83
2020-05-19 09:59:39.607 -0400,1589896779.000371,41.35198617834394,-71.84495980544438,17.14572,0,-1,3.421303308528015,4.703107558183642,-9999,63733.417915375,0.30218505859375,0.723419189453125,-0.6205902099609375,1,0.83
2020-05-19 09:59:39.657 -0400,1589896779.000371,41.35198617834394,-71.84495980544438,17.14572,0,-1,3.421303308528015,4.703107558183642,-9999,63733.467801375,0.30609130859375,0.7357635498046875,-0.621551513671875,1,0.83
2020-05-19 09:59:39.706 -0400,1589896779.000371,41.35198617834394,-71.84495980544438,17.14572,0,-1,3.421303308528015,4.703107558183642,-9999,63733.51768791667,0.3060150146484375,0.725677490234375,-0.620941162109375,1,0.83
2020-05-19 09:59:39.756 -0400,1589896779.000371,41.35198617834394,-71.84495980544438,17.14572,0,-1,3.421303308528015,4.703107558183642,-9999,63733.56757591667,0.3116607666015625,0.706573486328125,-0.635589599609375,1,0.83
2020-05-19 09:59:39.806 -0400,1589896779.000371,41.35198617834394,-71.84495980544438,17.14572,0,-1,3.421303308528015,4.703107558183642,-9999,63733.61746291667,0.30352783203125,0.7047576904296875,-0.62481689453125,1,0.83
2020-05-19 09:59:39.856 -0400,1589896779.000371,41.35198617834394,-71.84495980544438,17.14572,0,-1,3.421303308528015,4.703107558183642,-9999,63733.66734891667,0.3010101318359375,0.7259368896484375,-0.6189727783203125,1,0.83
2020-05-19 09:59:39.906 -0400,1589896779.000371,41.35198617834394,-71.84495980544438,17.14572,0,-1,3.421303308528015,4.703107558183642,-9999,63733.71723591667,0.304534912109375,0.7155303955078125,-0.6242828369140625,1,0.83
2020-05-19 09:59:39.956 -0400,1589896779.000371,41.35198617834394,-71.84495980544438,17.14572,0,-1,3.421303308528015,4.703107558183642,-9999,63733.76712291667,0.3095855712890625,0.7114410400390625,-0.632080078125,1,0.83
