loggingTime(txt),locationTimestamp_since1970(s),locationLatitude(WGS84),locationLongitude(WGS84),locationAltitude(m),locationSpeed(m/s),locationCourse(°),locationVerticalAccuracy(m),locationHorizontalAccuracy(m),locationFloor(Z),accelerometerTimestamp_sinceReboot(s),accelerometerAccelerationX(G),accelerometerAccelerationY(G),accelerometerAccelerationZ(G),batteryState,batteryLevel
2020-05-19 10:04:03.496 -0400,1589897043.000169,41.35199640366667,-71.84495842080742,15.61917,0,-1,3.473244753153507,4.664880268289902,-9999,63857.464687375,0.5838623046875,-0.80401611328125,-0.2508544921875,1,0.83
2020-05-19 10:04:03.539 -0400,1589897043.000169,41.35199640366667,-71.84495842080742,15.61917,0,-1,3.473244753153507,4.664880268289902,-9999,63857.514574375,0.5678253173828125,-0.803009033203125,-0.2437591552734375,1,0.83
2020-05-19 10:04:03.589 -0400,1589897043.000169,41.35199640366667,-71.84495842080742,15.61917,0,-1,3.473244753153507,4.664880268289902,-9999,63857.564459375,0.564056396484375,-0.79241943359375,-0.248260498046875,1,0.83
2020-05-19 10:04:03.638 -0400,1589897043.000169,41.35199640366667,-71.84495842080742,15.61917,0,-1,3.473244753153507,4.664880268289902,-9999,63857.61434737501,0.5499725341796875,-0.7812042236328125,-0.2566680908203125,1,0.83
2020-05-19 10:04:03.689 -0400,1589897043.000169,41.35199640366667,-71.84495842080742,15.61917,0,-1,3.473244753153507,4.664880268289902,-9999,63857.66423166667,0.539794921875,-0.786712646484375,-0.243011474609375,1,0.83
2020-05-19 10:04:03.738 -0400,1589897043.000169,41.35199640366667,-71.84495842080742,15.61917,0,-1,3.473244753153507,4.664880268289902,-9999,63857.71411666667,0.538330078125,-0.7914886474609375,-0.2366485595703125,1,0.83
2020-05-19 10:04:03.788 -0400,1589897043.000169,41.35199640366667,-71.84495842080742,15.61917,0,-1,3.473244753153507,4.664880268289902,-9999,63857.76400366667,0.54791259765625,-0.7921905517578125,-0.23699951171875,1,0.83
2020-05-19 10:04:03.838 -0400,1589897043.000169,41.35199640366667,-71.84495842080742,15.61917,0,-1,3.473244753153507,4.664880268289902,-9999,63857.81389366667,0.5761260986328125,-0.7972869873046875,-0.2297210693359375,1,0.83
2020-05-19 10:04:03.888 -0400,1589897043.000169,41.35199640366667,-71.84495842080742,15.61917,0,-1,3.473244753153507,4.664880268289902,-9999,63857.86378166667,0.6005859375,-0.8207244873046875,-0.18792724609375,1,0.83
2020-05-19 10:04:03.938 -0400,1589897043.000169,41.35199640366667,-71.84495842080742,15.61917,0,-1,3.473244753153507,4.664880268289902,-9999,63857.91367066667,0.58782958984375,-0.7626190185546875,-0.231658935546875,1,0.83
2020-05-19 10:04:03.988 -0400,1589897043.000169,41.35199640366667,-71.84495842080742,15.61917,0,-1,3.473244753153507,4.664880268289902,-9999,63857.96355566667,0.564849853515625,-0.7678680419921875,-0.2460479736328125,1,0.83
2020-05-19 10:04:04.038 -0400,1589897043.000169,41.35199640366667,-71.84495842080742,15.61917,0,-1,3.473244753153507,4.664880268289902,-9999,63858.01344366667,0.5549163818359375,-0.782623291015625,-0.2872314453125,1,0.83
2020-05-19 10:04:04.087 -0400,1589897043.000169,41.35199640366667,-71.84495842080742,15.61917,0,-1,3.473244753153507,4.664880268289902,-9999,63858.06333466667,0.5469818115234375,-0.7337493896484375,-0.3507080078125,1,0.83
2020-05-19 10:04:04.138 -0400,1589897043.000169,41.35199640366667,-71.84495842080742,15.61917,0,-1,3.473244753153507,4.664880268289902,-9999,63858.11322466667,0.49847412109375,-0.6481170654296875,-0.4467926025390625,1,0.83
2020-05-19 10:04:04.187 -0400,1589897043.000169,41.35199640366667,-71.84495842080742,15.61917,0,-1,3.473244753153507,4.664880268289902,-9999,63858.16311466667,0.468017578125,-0.532684326171875,-0.49725341796875,1,0.83
2020-05-19 10:04:04.242 -0400,1589897044.000173,41.35199399726548,-71.84495913184291,16.58908,0,-1,3.467427715151817,4.669205721853117,-9999,63858.21300466667,0.418243408203125,-0.1250762939453125,-0.7216949462890625,1,0.83
2020-05-19 10:04:04.287 -0400,1589897044.000173,41.35199399726548,-71.84495913184291,16.58908,0,-1,3.467427715151817,4.669205721853117,-9999,63858.26289666667,0.3428955078125,-0.0563507080078125,-0.7748870849609375,1,0.83
2020-05-19 10:04:04.337 -0400,1589897044.000173,41.35199399726548,-71.84495913184291,16.58908,0,-1,3.467427715151817,4.669205721853117,-9999,63858.31278666667,0.2582550048828125,0.4098663330078125,-0.8647003173828125,1,0.83
2020-05-19 10:04:04.387 -0400,1589897044.000173,41.35199399726548,-71.84495913184291,16.58908,0,-1,3.467427715151817,4.669205721853117,-9999,63858.36267566667,0.165618896484375,0.4308929443359375,-0.9058074951171875,1,0.83
2020-05-19 10:04:04.437 -0400,1589897044.000173,41.35199399726548,-71.84495913184291,16.58908,0,-1,3.467427715151817,4.669205721853117,-9999,63858.41256566667,0.0440673828125,0.74676513671875,-0.854644775390625,1,0.83
2020-05-19 10:04:04.487 -0400,1589897044.000173,41.35199399726548,-71.84495913184291,16.58908,0,-1,3.467427715151817,4.669205721853117,-9999,63858.46245566667,-0.1759033203125,0.6654052734375,-0.9656524658203125,1,0.83
2020-05-19 10:04:04.537 -0400,1589897044.000173,41.35199399726548,-71.84495913184291,16.58908,0,-1,3.467427715151817,4.669205721853117,-9999,63858.51234566667,-0.188629150390625,0.7116546630859375,-1.129959106445312,1,0.83
2020-05-19 10:04:04.587 -0400,1589897044.000173,41.35199399726548,-71.84495913184291,16.58908,0,-1,3.467427715151817,4.669205721853117,-9999,63858.56223766667,-0.0209808349609375,0.776153564453125,-0.8803253173828125,1,0.83
2020-05-19 10:04:04.636 -0400,1589897044.000173,41.35199399726548,-71.84495913184291,16.58908,0,-1,3.467427715151817,4.669205721853117,-9999,63858.61212566667,0.0099639892578125,0.648040771484375,-0.731842041015625,1,0.83
2020-05-19 10:04:04.686 -0400,1589897044.000173,41.35199399726548,-71.84495913184291,16.58908,0,-1,3.467427715151817,4.669205721853117,-9999,63858.66201841667,0.094146728515625,0.5541229248046875,-0.6930389404296875,1,0.83
2020-05-19 10:04:04.742 -0400,1589897044.000173,41.35199399726548,-71.84495913184291,16.58908,0,-1,3.467427715151817,4.669205721853117,-9999,63858.71190741667,0.0782623291015625,0.2151031494140625,-0.71826171875,1,0.83
2020-05-19 10:04:04.786 -0400,1589897044.000173,41.35199399726548,-71.84495913184291,16.58908,0,-1,3.467427715151817,4.669205721853117,-9999,63858.76179641667,0.049530029296875,0.5608062744140625,-0.80706787109375,1,0.83
2020-05-19 10:04:04.836 -0400,1589897044.000173,41.35199399726548,-71.84495913184291,16.58908,0,-1,3.467427715151817,4.669205721853117,-9999,63858.81168541667,0.0386505126953125,0.7278900146484375,-0.842376708984375,1,0.83
2020-05-19 10:04:04.886 -0400,1589897044.000173,41.35199399726548,-71.84495913184291,16.58908,0,-1,3.467427715151817,4.669205721853117,-9999,63858.86157241667,0.03424072265625,0.5848846435546875,-0.801605224609375,1,0.83
2020-05-19 10:04:04.936 -0400,1589897044.000173,41.35199399726548,-71.84495913184291,16.58908,0,-1,3.467427715151817,4.669205721853117,-9999,63858.91146441667,0.00360107421875,0.8768157958984375,-0.755523681640625,1,0.83
2020-05-19 10:04:04.986 -0400,1589897044.000173,41.35199399726548,-71.84495913184291,16.58908,0,-1,3.467427715151817,4.669205721853117,-9999,63858.96135541667,0.0410308837890625,0.6041107177734375,-0.8176422119140625,1,0.83
2020-05-19 10:04:05.036 -0400,1589897044.000173,41.35199399726548,-71.84495913184291,16.58908,0,-1,3.467427715151817,4.669205721853117,-9999,63859.01124441667,-0.005157470703125,0.70428466796875,-0.74188232421875,1,0.83
2020-05-19 10:04:05.085 -0400,1589897044.000173,41.35199399726548,-71.84495913184291,16.58908,0,-1,3.467427715151817,4.669205721853117,-9999,63859.06113141667,0.1461334228515625,0.6531219482421875,-0.7847747802734375,1,0.83
2020-05-19 10:04:05.135 -0400,1589897044.000173,41.35199399726548,-71.84495913184291,16.58908,0,-1,3.467427715151817,4.669205721853117,-9999,63859.11101941667,0.1464385986328125,0.5116119384765625,-0.73626708984375,1,0.83
2020-05-19 10:04:05.185 -0400,1589897044.000173,41.35199399726548,-71.84495913184291,16.58908,0,-1,3.467427715151817,4.669205721853117,-9999,63859.16090641667,0.041717529296875,0.441070556640625,-1.049285888671875,1,0.83
2020-05-19 10:04:05.235 -0400,1589897044.000173,41.35199399726548,-71.84495913184291,16.58908,0,-1,3.467427715151817,4.669205721853117,-9999,63859.21079441667,-0.0147857666015625,0.4097900390625,-0.9558868408203125,1,0.83
2020-05-19 10:04:05.285 -0400,1589897045.000172,41.35199672871665,-71.84495225741333,15.52871,0.7014003,-1,3.461163282421963,4.673851277608527,-9999,63859.26068441667,-0.023223876953125,0.44580078125,-0.907012939453125,1,0.83
2020-05-19 10:04:05.335 -0400,1589897045.000172,41.35199672871665,-71.84495225741333,15.52871,0.7014003,-1,3.461163282421963,4.673851277608527,-9999,63859.31057441667,0.0877227783203125,0.47308349609375,-0.9037933349609375,1,0.83
2020-05-19 10:04:05.385 -0400,1589897045.000172,41.35199672871665,-71.84495225741333,15.52871,0.7014003,-1,3.461163282421963,4.673851277608527,-9999,63859.36046541667,0.0747222900390625,0.51318359375,-0.87701416015625,1,0.83
2020-05-19 10:04:05.435 -0400,1589897045.000172,41.35199672871665,-71.84495225741333,15.52871,0.7014003,-1,3.461163282421963,4.673851277608527,-9999,63859.41035441667,0.0699005126953125,0.4320831298828125,-0.8713226318359375,1,0.83
2020-05-19 10:04:05.485 -0400,1589897045.000172,41.35199672871665,-71.84495225741333,15.52871,0.7014003,-1,3.461163282421963,4.673851277608527,-9999,63859.46024341667,0.0752105712890625,0.4219512939453125,-0.8494873046875,1,0.83
2020-05-19 10:04:05.534 -0400,1589897045.000172,41.35199672871665,-71.84495225741333,15.52871,0.7014003,-1,3.461163282421963,4.673851277608527,-9999,63859.51013441667,0.034454345703125,0.50799560546875,-0.7469329833984375,1,0.83
2020-05-19 10:04:05.584 -0400,1589897045.000172,41.35199672871665,-71.84495225741333,15.52871,0.7014003,-1,3.461163282421963,4.673851277608527,-9999,63859.56002441667,0.032135009765625,0.468780517578125,-0.7114410400390625,1,0.83
2020-05-19 10:04:05.634 -0400,1589897045.000172,41.35199672871665,-71.84495225741333,15.52871,0.7014003,-1,3.461163282421963,4.673851277608527,-9999,63859.60991341667,0.0764007568359375,0.465362548828125,-0.7602691650390625,1,0.83
2020-05-19 10:04:05.684 -0400,1589897045.000172,41.35199672871665,-71.84495225741333,15.52871,0.7014003,-1,3.461163282421963,4.673851277608527,-9999,63859.65980375,0.1632537841796875,0.5080108642578125,-0.9702301025390625,1,0.83
2020-05-19 10:04:05.734 -0400,1589897045.000172,41.35199672871665,-71.84495225741333,15.52871,0.7014003,-1,3.461163282421963,4.673851277608527,-9999,63859.70969475,0.1957244873046875,0.4576568603515625,-0.9206085205078125,1,0.83
2020-05-19 10:04:05.784 -0400,1589897045.000172,41.35199672871665,-71.84495225741333,15.52871,0.7014003,-1,3.461163282421963,4.673851277608527,-9999,63859.75958175,0.3179473876953125,0.6003570556640625,-1.00860595703125,1,0.83
2020-05-19 10:04:05.834 -0400,1589897045.000172,41.35199672871665,-71.84495225741333,15.52871,0.7014003,-1,3.461163282421963,4.673851277608527,-9999,63859.80946975001,0.1699066162109375,0.620574951171875,-0.821197509765625,1,0.83
2020-05-19 10:04:05.884 -0400,1589897045.000172,41.35199672871665,-71.84495225741333,15.52871,0.7014003,-1,3.461163282421963,4.673851277608527,-9999,63859.85936275,0.1454925537109375,0.4686126708984375,-0.831207275390625,1,0.83
2020-05-19 10:04:05.933 -0400,1589897045.000172,41.35199672871665,-71.84495225741333,15.52871,0.7014003,-1,3.461163282421963,4.673851277608527,-9999,63859.90925275,0.14752197265625,0.4974365234375,-0.8372039794921875,1,0.83
2020-05-19 10:04:05.983 -0400,1589897045.000172,41.35199672871665,-71.84495225741333,15.52871,0.7014003,-1,3.461163282421963,4.673851277608527,-9999,63859.95914375001,0.1796875,0.479400634765625,-0.8488006591796875,1,0.83
2020-05-19 10:04:06.033 -0400,1589897045.000172,41.35199672871665,-71.84495225741333,15.52871,0.7014003,-1,3.461163282421963,4.673851277608527,-9999,63860.00903675,0.1792449951171875,0.5155792236328125,-0.86029052734375,1,0.83
2020-05-19 10:04:06.083 -0400,1589897045.000172,41.35199672871665,-71.84495225741333,15.52871,0.7014003,-1,3.461163282421963,4.673851277608527,-9999,63860.05892875,0.1799163818359375,0.534027099609375,-0.8687591552734375,1,0.83
2020-05-19 10:04:06.133 -0400,1589897045.000172,41.35199672871665,-71.84495225741333,15.52871,0.7014003,-1,3.461163282421963,4.673851277608527,-9999,63860.10881975001,0.1748046875,0.489044189453125,-0.8437957763671875,1,0.83
2020-05-19 10:04:06.183 -0400,1589897045.000172,41.35199672871665,-71.84495225741333,15.52871,0.7014003,-1,3.461163282421963,4.673851277608527,-9999,63860.15870975,0.167327880859375,0.5028228759765625,-0.841278076171875,1,0.83
2020-05-19 10:04:06.233 -0400,1589897045.000172,41.35199672871665,-71.84495225741333,15.52871,0.7014003,-1,3.461163282421963,4.673851277608527,-9999,63860.20859975,0.190643310546875,0.482025146484375,-0.8703460693359375,1,0.83
2020-05-19 10:04:06.291 -0400,1589897045.000172,41.35199672871665,-71.84495225741333,15.52871,0.7014003,-1,3.461163282421963,4.673851277608527,-9999,63860.25848875001,0.1426239013671875,0.5060882568359375,-0.8282470703125,1,0.83
2020-05-19 10:04:06.333 -0400,1589897046.000174,41.35199272569647,-71.84495201346451,16.67059,0,-1,3.468437946967878,4.668455337777377,-9999,63860.30837675001,0.167816162109375,0.5021514892578125,-0.856231689453125,1,0.83
2020-05-19 10:04:06.383 -0400,1589897046.000174,41.35199272569647,-71.84495201346451,16.67059,0,-1,3.468437946967878,4.668455337777377,-9999,63860.35826575,0.1652679443359375,0.4961090087890625,-0.86163330078125,1,0.83
2020-05-19 10:04:06.432 -0400,1589897046.000174,41.35199272569647,-71.84495201346451,16.67059,0,-1,3.468437946967878,4.668455337777377,-9999,63860.40815275,0.172332763671875,0.5113067626953125,-0.88037109375,1,0.83
2020-05-19 10:04:06.483 -0400,1589897046.000174,41.35199272569647,-71.84495201346451,16.67059,0,-1,3.468437946967878,4.668455337777377,-9999,63860.45804175,0.1472930908203125,0.5491790771484375,-0.879669189453125,1,0.83
2020-05-19 10:04:06.532 -0400,1589897046.000174,41.35199272569647,-71.84495201346451,16.67059,0,-1,3.468437946967878,4.668455337777377,-9999,63860.50793175001,0.1722412109375,0.4508819580078125,-0.8882904052734375,1,0.83
2020-05-19 10:04:06.582 -0400,1589897046.000174,41.35199272569647,-71.84495201346451,16.67059,0,-1,3.468437946967878,4.668455337777377,-9999,63860.55782075,0.1532745361328125,0.438232421875,-0.884429931640625,1,0.83
2020-05-19 10:04:06.632 -0400,1589897046.000174,41.35199272569647,-71.84495201346451,16.67059,0,-1,3.468437946967878,4.668455337777377,-9999,63860.60770875,0.1793975830078125,0.376220703125,-0.88714599609375,1,0.83
2020-05-19 10:04:06.682 -0400,1589897046.000174,41.35199272569647,-71.84495201346451,16.67059,0,-1,3.468437946967878,4.668455337777377,-9999,63860.65759812501,0.1670074462890625,0.4471588134765625,-0.8866119384765625,1,0.83
2020-05-19 10:04:06.732 -0400,1589897046.000174,41.35199272569647,-71.84495201346451,16.67059,0,-1,3.468437946967878,4.668455337777377,-9999,63860.70748412501,0.157135009765625,0.4483489990234375,-0.893890380859375,1,0.83
2020-05-19 10:04:06.782 -0400,1589897046.000174,41.35199272569647,-71.84495201346451,16.67059,0,-1,3.468437946967878,4.668455337777377,-9999,63860.75736912501,0.1827850341796875,0.4306640625,-0.907073974609375,1,0.83
2020-05-19 10:04:06.831 -0400,1589897046.000174,41.35199272569647,-71.84495201346451,16.67059,0,-1,3.468437946967878,4.668455337777377,-9999,63860.807256125,0.1740570068359375,0.403106689453125,-0.857025146484375,1,0.83
2020-05-19 10:04:06.881 -0400,1589897046.000174,41.35199272569647,-71.84495201346451,16.67059,0,-1,3.468437946967878,4.668455337777377,-9999,63860.857142125,0.16162109375,0.4940032958984375,-0.89056396484375,1,0.83
2020-05-19 10:04:06.931 -0400,1589897046.000174,41.35199272569647,-71.84495201346451,16.67059,0,-1,3.468437946967878,4.668455337777377,-9999,63860.907026125,0.1470489501953125,0.4179229736328125,-0.8645172119140625,1,0.83
2020-05-19 10:04:06.981 -0400,1589897046.000174,41.35199272569647,-71.84495201346451,16.67059,0,-1,3.468437946967878,4.668455337777377,-9999,63860.956911125,0.1627960205078125,0.464874267578125,-0.8805999755859375,1,0.83
2020-05-19 10:04:07.031 -0400,1589897046.000174,41.35199272569647,-71.84495201346451,16.67059,0,-1,3.468437946967878,4.668455337777377,-9999,63861.006796125,0.161956787109375,0.4235992431640625,-0.88360595703125,1,0.83
2020-05-19 10:04:07.081 -0400,1589897046.000174,41.35199272569647,-71.84495201346451,16.67059,0,-1,3.468437946967878,4.668455337777377,-9999,63861.056681125,0.158233642578125,0.4639129638671875,-0.8874359130859375,1,0.83
2020-05-19 10:04:07.131 -0400,1589897046.000174,41.35199272569647,-71.84495201346451,16.67059,0,-1,3.468437946967878,4.668455337777377,-9999,63861.106566125,0.1540069580078125,0.45074462890625,-0.884002685546875,1,0.83
2020-05-19 10:04:07.181 -0400,1589897046.000174,41.35199272569647,-71.84495201346451,16.67059,0,-1,3.468437946967878,4.668455337777377,-9999,63861.156451125,0.169189453125,0.426116943359375,-0.8787689208984375,1,0.83
2020-05-19 10:04:07.231 -0400,1589897046.000174,41.35199272569647,-71.84495201346451,16.67059,0,-1,3.468437946967878,4.668455337777377,-9999,63861.206336125,0.1598358154296875,0.4589385986328125,-0.8833465576171875,1,0.83
2020-05-19 10:04:07.280 -0400,1589897046.000174,41.35199272569647,-71.84495201346451,16.67059,0,-1,3.468437946967878,4.668455337777377,-9999,63861.256221125,0.1589813232421875,0.4528961181640625,-0.8753204345703125,1,0.83
2020-05-19 10:04:07.331 -0400,1589897047.000177,41.3519890941705,-71.84495494577821,16.47764,0,-1,3.490905617511421,4.651678729492831,-9999,63861.30610912501,0.16058349609375,0.4300079345703125,-0.877685546875,1,0.83
2020-05-19 10:04:07.380 -0400,1589897047.000177,41.3519890941705,-71.84495494577821,16.47764,0,-1,3.490905617511421,4.651678729492831,-9999,63861.35599712501,0.1641082763671875,0.4600830078125,-0.88653564453125,1,0.83
2020-05-19 10:04:07.430 -0400,1589897047.000177,41.3519890941705,-71.84495494577821,16.47764,0,-1,3.490905617511421,4.651678729492831,-9999,63861.405884125,0.15692138671875,0.4370574951171875,-0.8805389404296875,1,0.83
2020-05-19 10:04:07.487 -0400,1589897047.000177,41.3519890941705,-71.84495494577821,16.47764,0,-1,3.490905617511421,4.651678729492831,-9999,63861.455769125,0.163726806640625,0.45697021484375,-0.8787078857421875,1,0.83
2020-05-19 10:04:07.530 -0400,1589897047.000177,41.3519890941705,-71.84495494577821,16.47764,0,-1,3.490905617511421,4.651678729492831,-9999,63861.505656125,0.155914306640625,0.4239501953125,-0.8913726806640625,1,0.83
2020-05-19 10:04:07.580 -0400,1589897047.000177,41.3519890941705,-71.84495494577821,16.47764,0,-1,3.490905617511421,4.651678729492831,-9999,63861.555540125,0.1591796875,0.453399658203125,-0.8814239501953125,1,0.83
2020-05-19 10:04:07.630 -0400,1589897047.000177,41.3519890941705,-71.84495494577821,16.47764,0,-1,3.490905617511421,4.651678729492831,-9999,63861.605429125,0.161834716796875,0.4348297119140625,-0.8813323974609375,1,0.83
2020-05-19 10:04:07.680 -0400,1589897047.000177,41.3519890941705,-71.84495494577821,16.47764,0,-1,3.490905617511421,4.651678729492831,-9999,63861.65531675,0.1671600341796875,0.4413604736328125,-0.8878936767578125,1,0.83
2020-05-19 10:04:07.729 -0400,1589897047.000177,41.3519890941705,-71.84495494577821,16.47764,0,-1,3.490905617511421,4.651678729492831,-9999,63861.70520275,0.1664886474609375,0.4451141357421875,-0.88458251953125,1,0.83
2020-05-19 10:04:07.779 -0400,1589897047.000177,41.3519890941705,-71.84495494577821,16.47764,0,-1,3.490905617511421,4.651678729492831,-9999,63861.75509075,0.16632080078125,0.43292236328125,-0.8814544677734375,1,0.83
2020-05-19 10:04:07.829 -0400,1589897047.000177,41.3519890941705,-71.84495494577821,16.47764,0,-1,3.490905617511421,4.651678729492831,-9999,63861.80497875001,0.1722869873046875,0.4402923583984375,-0.885009765625,1,0.83
2020-05-19 10:04:07.879 -0400,1589897047.000177,41.3519890941705,-71.84495494577821,16.47764,0,-1,3.490905617511421,4.651678729492831,-9999,63861.85486675001,0.1663818359375,0.47515869140625,-0.8774871826171875,1,0.83
2020-05-19 10:04:07.929 -0400,1589897047.000177,41.3519890941705,-71.84495494577821,16.47764,0,-1,3.490905617511421,4.651678729492831,-9999,63861.90475475,0.1663360595703125,0.4567718505859375,-0.8780059814453125,1,0.83
2020-05-19 10:04:07.979 -0400,1589897047.000177,41.3519890941705,-71.84495494577821,16.47764,0,-1,3.490905617511421,4.651678729492831,-9999,63861.95464275,0.164215087890625,0.4549560546875,-0.8863677978515625,1,0.83
2020-05-19 10:04:08.029 -0400,1589897047.000177,41.3519890941705,-71.84495494577821,16.47764,0,-1,3.490905617511421,4.651678729492831,-9999,63862.00453175,0.1629180908203125,0.4517669677734375,-0.8797607421875,1,0.83
2020-05-19 10:04:08.079 -0400,1589897047.000177,41.3519890941705,-71.84495494577821,16.47764,0,-1,3.490905617511421,4.651678729492831,-9999,63862.05441775001,0.1667327880859375,0.4657745361328125,-0.8894195556640625,1,0.83
2020-05-19 10:04:08.128 -0400,1589897047.000177,41.3519890941705,-71.84495494577821,16.47764,0,-1,3.490905617511421,4.651678729492831,-9999,63862.10430775001,0.177764892578125,0.4408721923828125,-0.941131591796875,1,0.83
2020-05-19 10:04:08.179 -0400,1589897047.000177,41.3519890941705,-71.84495494577821,16.47764,0,-1,3.490905617511421,4.651678729492831,-9999,63862.15419675,0.1321258544921875,0.453369140625,-0.8473968505859375,1,0.83
2020-05-19 10:04:08.245 -0400,1589897047.000177,41.3519890941705,-71.84495494577821,16.47764,0,-1,3.490905617511421,4.651678729492831,-9999,63862.20408975,0.18585205078125,0.4696502685546875,-0.9459228515625,1,0.83
2020-05-19 10:04:08.278 -0400,1589897048.000179,41.3519862834636,-71.84495422609385,16.5253,0,-1,3.498773735066949,4.645763595319344,-9999,63862.25398075001,0.1119842529296875,0.4587860107421875,-0.865264892578125,1,0.83
2020-05-19 10:04:08.328 -0400,1589897048.000179,41.3519862834636,-71.84495422609385,16.5253,0,-1,3.498773735066949,4.645763595319344,-9999,63862.30387275,0.1403350830078125,0.512969970703125,-0.9128875732421875,1,0.83
2020-05-19 10:04:08.378 -0400,1589897048.000179,41.3519862834636,-71.84495422609385,16.5253,0,-1,3.498773735066949,4.645763595319344,-9999,63862.35376275,0.1291046142578125,0.49102783203125,-0.8936767578125,1,0.83
2020-05-19 10:04:08.428 -0400,1589897048.000179,41.3519862834636,-71.84495422609385,16.5253,0,-1,3.498773735066949,4.645763595319344,-9999,63862.40365175001,0.1068267822265625,0.5958251953125,-0.8777923583984375,1,0.83
2020-05-19 10:04:08.485 -0400,1589897048.000179,41.3519862834636,-71.84495422609385,16.5253,0,-1,3.498773735066949,4.645763595319344,-9999,63862.45354175,0.0080718994140625,0.4668121337890625,-0.7813720703125,1,0.83
2020-05-19 10:04:08.528 -0400,1589897048.000179,41.3519862834636,-71.84495422609385,16.5253,0,-1,3.498773735066949,4.645763595319344,-9999,63862.50343275,-0.049530029296875,0.622467041015625,-0.7584075927734375,1,0.83
2020-05-19 10:04:08.578 -0400,1589897048.000179,41.3519862834636,-71.84495422609385,16.5253,0,-1,3.498773735066949,4.645763595319344,-9999,63862.55332275001,0.0205841064453125,0.448760986328125,-0.77423095703125,1,0.83
2020-05-19 10:04:08.627 -0400,1589897048.000179,41.3519862834636,-71.84495422609385,16.5253,0,-1,3.498773735066949,4.645763595319344,-9999,63862.60321275,0.014190673828125,0.5225982666015625,-0.77423095703125,1,0.83
2020-05-19 10:04:08.677 -0400,1589897048.000179,41.3519862834636,-71.84495422609385,16.5253,0,-1,3.498773735066949,4.645763595319344,-9999,63862.65309866667,0.0191192626953125,0.519256591796875,-0.695831298828125,1,0.83
2020-05-19 10:04:08.727 -0400,1589897048.000179,41.3519862834636,-71.84495422609385,16.5253,0,-1,3.498773735066949,4.645763595319344,-9999,63862.70298866667,0.0767822265625,0.605255126953125,-0.6646881103515625,1,0.83
2020-05-19 10:04:08.777 -0400,1589897048.000179,41.3519862834636,-71.84495422609385,16.5253,0,-1,3.498773735066949,4.645763595319344,-9999,63862.75287766667,0.0402374267578125,0.581512451171875,-0.864898681640625,1,0.83
2020-05-19 10:04:08.827 -0400,1589897048.000179,41.3519862834636,-71.84495422609385,16.5253,0,-1,3.498773735066949,4.645763595319344,-9999,63862.80276566667,0.044036865234375,0.5801849365234375,-0.90228271484375,1,0.83
2020-05-19 10:04:08.877 -0400,1589897048.000179,41.3519862834636,-71.84495422609385,16.5253,0,-1,3.498773735066949,4.645763595319344,-9999,63862.85265266667,0.0950775146484375,0.56036376953125,-0.8715057373046875,1,0.83
2020-05-19 10:04:08.927 -0400,1589897048.000179,41.3519862834636,-71.84495422609385,16.5253,0,-1,3.498773735066949,4.645763595319344,-9999,63862.90253866667,0.0659637451171875,0.6305084228515625,-0.837860107421875,1,0.83
2020-05-19 10:04:08.977 -0400,1589897048.000179,41.3519862834636,-71.84495422609385,16.5253,0,-1,3.498773735066949,4.645763595319344,-9999,63862.95242666667,0.0536956787109375,0.63690185546875,-0.785858154296875,1,0.83
2020-05-19 10:04:09.026 -0400,1589897048.000179,41.3519862834636,-71.84495422609385,16.5253,0,-1,3.498773735066949,4.645763595319344,-9999,63863.00231566667,0.0513916015625,0.605926513671875,-0.774505615234375,1,0.83
2020-05-19 10:04:09.076 -0400,1589897048.000179,41.3519862834636,-71.84495422609385,16.5253,0,-1,3.498773735066949,4.645763595319344,-9999,63863.05220366667,0.0639801025390625,0.656982421875,-0.825103759765625,1,0.83
2020-05-19 10:04:09.126 -0400,1589897048.000179,41.3519862834636,-71.84495422609385,16.5253,0,-1,3.498773735066949,4.645763595319344,-9999,63863.10208966667,0.065704345703125,0.614898681640625,-0.787078857421875,1,0.83
2020-05-19 10:04:09.176 -0400,1589897048.000179,41.3519862834636,-71.84495422609385,16.5253,0,-1,3.498773735066949,4.645763595319344,-9999,63863.15197766667,0.0715484619140625,0.5740203857421875,-0.7809295654296875,1,0.83
2020-05-19 10:04:09.226 -0400,1589897048.000179,41.3519862834636,-71.84495422609385,16.5253,0,-1,3.498773735066949,4.645763595319344,-9999,63863.20186366667,0.07012939453125,0.5966796875,-0.8019561767578125,1,0.83
2020-05-19 10:04:09.276 -0400,1589897048.000179,41.3519862834636,-71.84495422609385,16.5253,0,-1,3.498773735066949,4.645763595319344,-9999,63863.25175066667,0.08380126953125,0.610321044921875,-0.8150787353515625,1,0.83
2020-05-19 10:04:09.326 -0400,1589897049.000183,41.35198722997321,-71.84495270990075,15.77685,0,-1,3.511742169411884,4.635968503814833,-9999,63863.30164066667,0.075958251953125,0.60382080078125,-0.7996826171875,1,0.83
2020-05-19 10:04:09.376 -0400,1589897049.000183,41.35198722997321,-71.84495270990075,15.77685,0,-1,3.511742169411884,4.635968503814833,-9999,63863.35152766667,0.073516845703125,0.58795166015625,-0.8053741455078125,1,0.83
2020-05-19 10:04:09.426 -0400,1589897049.000183,41.35198722997321,-71.84495270990075,15.77685,0,-1,3.511742169411884,4.635968503814833,-9999,63863.40141666667,0.0743865966796875,0.57989501953125,-0.7978057861328125,1,0.83
2020-05-19 10:04:09.477 -0400,1589897049.000183,41.35198722997321,-71.84495270990075,15.77685,0,-1,3.511742169411884,4.635968503814833,-9999,63863.45129966667,0.0743865966796875,0.5889129638671875,-0.793670654296875,1,0.83
2020-05-19 10:04:09.525 -0400,1589897049.000183,41.35198722997321,-71.84495270990075,15.77685,0,-1,3.511742169411884,4.635968503814833,-9999,63863.50118466667,0.07977294921875,0.6076202392578125,-0.8160552978515625,1,0.83
2020-05-19 10:04:09.575 -0400,1589897049.000183,41.35198722997321,-71.84495270990075,15.77685,0,-1,3.511742169411884,4.635968503814833,-9999,63863.55106966667,0.0748138427734375,0.6150970458984375,-0.792205810546875,1,0.83
2020-05-19 10:04:09.625 -0400,1589897049.000183,41.35198722997321,-71.84495270990075,15.77685,0,-1,3.511742169411884,4.635968503814833,-9999,63863.60095666667,0.0824737548828125,0.639892578125,-0.7847900390625,1,0.83
2020-05-19 10:04:09.675 -0400,1589897049.000183,41.35198722997321,-71.84495270990075,15.77685,0,-1,3.511742169411884,4.635968503814833,-9999,63863.65084575,0.0813140869140625,0.5796356201171875,-0.7994842529296875,1,0.83
2020-05-19 10:04:09.725 -0400,1589897049.000183,41.35198722997321,-71.84495270990075,15.77685,0,-1,3.511742169411884,4.635968503814833,-9999,63863.70073575,0.081939697265625,0.6141510009765625,-0.7882232666015625,1,0.83
2020-05-19 10:04:09.775 -0400,1589897049.000183,41.35198722997321,-71.84495270990075,15.77685,0,-1,3.511742169411884,4.635968503814833,-9999,63863.75062275001,0.08648681640625,0.598114013671875,-0.796783447265625,1,0.83
2020-05-19 10:04:09.825 -0400,1589897049.000183,41.35198722997321,-71.84495270990075,15.77685,0,-1,3.511742169411884,4.635968503814833,-9999,63863.80050975001,0.0818634033203125,0.607086181640625,-0.8000640869140625,1,0.83
2020-05-19 10:04:09.875 -0400,1589897049.000183,41.35198722997321,-71.84495270990075,15.77685,0,-1,3.511742169411884,4.635968503814833,-9999,63863.85039475001,0.084014892578125,0.604248046875,-0.79241943359375,1,0.83
2020-05-19 10:04:09.925 -0400,1589897049.000183,41.35198722997321,-71.84495270990075,15.77685,0,-1,3.511742169411884,4.635968503814833,-9999,63863.90028075001,0.085601806640625,0.5936431884765625,-0.7998199462890625,1,0.83
2020-05-19 10:04:09.974 -0400,1589897049.000183,41.35198722997321,-71.84495270990075,15.77685,0,-1,3.511742169411884,4.635968503814833,-9999,63863.95016975,0.08575439453125,0.5906524658203125,-0.8117828369140625,1,0.83
2020-05-19 10:04:10.024 -0400,1589897049.000183,41.35198722997321,-71.84495270990075,15.77685,0,-1,3.511742169411884,4.635968503814833,-9999,63864.00005675,0.087066650390625,0.581878662109375,-0.80218505859375,1,0.83
2020-05-19 10:04:10.074 -0400,1589897049.000183,41.35198722997321,-71.84495270990075,15.77685,0,-1,3.511742169411884,4.635968503814833,-9999,63864.04994375,0.09259033203125,0.6108856201171875,-0.7997894287109375,1,0.83
2020-05-19 10:04:10.124 -0400,1589897049.000183,41.35198722997321,-71.84495270990075,15.77685,0,-1,3.511742169411884,4.635968503814833,-9999,63864.09983375001,0.0914459228515625,0.5877685546875,-0.8005523681640625,1,0.83
2020-05-19 10:04:10.174 -0400,1589897049.000183,41.35198722997321,-71.84495270990075,15.77685,0,-1,3.511742169411884,4.635968503814833,-9999,63864.14972475,0.0937652587890625,0.590972900390625,-0.807952880859375,1,0.83
2020-05-19 10:04:10.224 -0400,1589897049.000183,41.35198722997321,-71.84495270990075,15.77685,0,-1,3.511742169411884,4.635968503814833,-9999,63864.19961575,0.0979156494140625,0.5905914306640625,-0.79522705078125,1,0.83
2020-05-19 10:04:10.274 -0400,1589897049.000183,41.35198722997321,-71.84495270990075,15.77685,0,-1,3.511742169411884,4.635968503814833,-9999,63864.24950675001,0.0921173095703125,0.5941925048828125,-0.810882568359375,1,0.83
2020-05-19 10:04:10.324 -0400,1589897050.000186,41.35198602548342,-71.84495630310653,18.45149,1.106683,-1,3.513375651585015,4.634730689440154,-9999,63864.29939675,0.0926666259765625,0.58795166015625,-0.805267333984375,1,0.83
2020-05-19 10:04:10.374 -0400,1589897050.000186,41.35198602548342,-71.84495630310653,18.45149,1.106683,-1,3.513375651585015,4.634730689440154,-9999,63864.34928675,0.0953826904296875,0.5897064208984375,-0.794403076171875,1,0.83
2020-05-19 10:04:10.423 -0400,1589897050.000186,41.35198602548342,-71.84495630310653,18.45149,1.106683,-1,3.513375651585015,4.634730689440154,-9999,63864.39917875001,0.093475341796875,0.5879974365234375,-0.8083038330078125,1,0.83
2020-05-19 10:04:10.474 -0400,1589897050.000186,41.35198602548342,-71.84495630310653,18.45149,1.106683,-1,3.513375651585015,4.634730689440154,-9999,63864.44906875001,0.0936126708984375,0.58392333984375,-0.8033599853515625,1,0.83
2020-05-19 10:04:10.523 -0400,1589897050.000186,41.35198602548342,-71.84495630310653,18.45149,1.106683,-1,3.513375651585015,4.634730689440154,-9999,63864.49895675,0.10302734375,0.583404541015625,-0.8025665283203125,1,0.83
2020-05-19 10:04:10.573 -0400,1589897050.000186,41.35198602548342,-71.84495630310653,18.45149,1.106683,-1,3.513375651585015,4.634730689440154,-9999,63864.54884675,0.0946502685546875,0.5884246826171875,-0.8062744140625,1,0.83
2020-05-19 10:04:10.623 -0400,1589897050.000186,41.35198602548342,-71.84495630310653,18.45149,1.106683,-1,3.513375651585015,4.634730689440154,-9999,63864.59873575001,0.0956573486328125,0.5956573486328125,-0.8053436279296875,1,0.83
2020-05-19 10:04:10.673 -0400,1589897050.000186,41.35198602548342,-71.84495630310653,18.45149,1.106683,-1,3.513375651585015,4.634730689440154,-9999,63864.64862375001,0.1021728515625,0.592132568359375,-0.8002777099609375,1,0.83
2020-05-19 10:04:10.723 -0400,1589897050.000186,41.35198602548342,-71.84495630310653,18.45149,1.106683,-1,3.513375651585015,4.634730689440154,-9999,63864.69851175,0.103363037109375,0.5909576416015625,-0.8013916015625,1,0.83
2020-05-19 10:04:10.773 -0400,1589897050.000186,41.35198602548342,-71.84495630310653,18.45149,1.106683,-1,3.513375651585015,4.634730689440154,-9999,63864.74839975,0.100555419921875,0.5918426513671875,-0.803863525390625,1,0.83
2020-05-19 10:04:10.823 -0400,1589897050.000186,41.35198602548342,-71.84495630310653,18.45149,1.106683,-1,3.513375651585015,4.634730689440154,-9999,63864.79828775,0.100433349609375,0.5828399658203125,-0.812255859375,1,0.83
2020-05-19 10:04:10.872 -0400,1589897050.000186,41.35198602548342,-71.84495630310653,18.45149,1.106683,-1,3.513375651585015,4.634730689440154,-9999,63864.84817475,0.0943450927734375,0.584991455078125,-0.799713134765625,1,0.83
2020-05-19 10:04:10.922 -0400,1589897050.000186,41.35198602548342,-71.84495630310653,18.45149,1.106683,-1,3.513375651585015,4.634730689440154,-9999,63864.89806275001,0.0937957763671875,0.5881500244140625,-0.8084259033203125,1,0.83
2020-05-19 10:04:10.972 -0400,1589897050.000186,41.35198602548342,-71.84495630310653,18.45149,1.106683,-1,3.513375651585015,4.634730689440154,-9999,63864.94795075001,0.09814453125,0.571868896484375,-0.8117523193359375,1,0.83
2020-05-19 10:04:11.022 -0400,1589897050.000186,41.35198602548342,-71.84495630310653,18.45149,1.106683,-1,3.513375651585015,4.634730689440154,-9999,63864.99784075,0.1009521484375,0.5779571533203125,-0.8094329833984375,1,0.83
2020-05-19 10:04:11.072 -0400,1589897050.000186,41.35198602548342,-71.84495630310653,18.45149,1.106683,-1,3.513375651585015,4.634730689440154,-9999,63865.04773275,0.0980224609375,0.57928466796875,-0.8246307373046875,1,0.83
2020-05-19 10:04:11.122 -0400,1589897050.000186,41.35198602548342,-71.84495630310653,18.45149,1.106683,-1,3.513375651585015,4.634730689440154,-9999,63865.09762575,0.094268798828125,0.5791778564453125,-0.810577392578125,1,0.83
2020-05-19 10:04:11.172 -0400,1589897050.000186,41.35198602548342,-71.84495630310653,18.45149,1.106683,-1,3.513375651585015,4.634730689440154,-9999,63865.14752075,0.0944061279296875,0.5639801025390625,-0.8126220703125,1,0.83
2020-05-19 10:04:11.222 -0400,1589897050.000186,41.35198602548342,-71.84495630310653,18.45149,1.106683,-1,3.513375651585015,4.634730689440154,-9999,63865.19741275001,0.0936737060546875,0.5803070068359375,-0.8154754638671875,1,0.83
2020-05-19 10:04:11.272 -0400,1589897051.000187,41.35198648749205,-71.84495993965047,18.90286,0.9571444,-1,3.548712452393277,4.607730131313869,-9999,63865.24730575,0.089385986328125,0.5552978515625,-0.81915283203125,1,0.83
2020-05-19 10:04:11.321 -0400,1589897051.000187,41.35198648749205,-71.84495993965047,18.90286,0.9571444,-1,3.548712452393277,4.607730131313869,-9999,63865.29719675001,0.09033203125,0.5444793701171875,-0.817901611328125,1,0.83
2020-05-19 10:04:11.371 -0400,1589897051.000187,41.35198648749205,-71.84495993965047,18.90286,0.9571444,-1,3.548712452393277,4.607730131313869,-9999,63865.34708675001,0.0898895263671875,0.5675506591796875,-0.84698486328125,1,0.83
2020-05-19 10:04:11.421 -0400,1589897051.000187,41.35198648749205,-71.84495993965047,18.90286,0.9571444,-1,3.548712452393277,4.607730131313869,-9999,63865.39697575,0.089508056640625,0.61993408203125,-0.8074798583984375,1,0.83
2020-05-19 10:04:11.471 -0400,1589897051.000187,41.35198648749205,-71.84495993965047,18.90286,0.9571444,-1,3.548712452393277,4.607730131313869,-9999,63865.44686375,0.088165283203125,0.5106201171875,-0.8224029541015625,1,0.83
2020-05-19 10:04:11.521 -0400,1589897051.000187,41.35198648749205,-71.84495993965047,18.90286,0.9571444,-1,3.548712452393277,4.607730131313869,-9999,63865.49675175,0.1047821044921875,0.478851318359375,-0.8668975830078125,1,0.83
2020-05-19 10:04:11.571 -0400,1589897051.000187,41.35198648749205,-71.84495993965047,18.90286,0.9571444,-1,3.548712452393277,4.607730131313869,-9999,63865.54663775001,0.109161376953125,0.499420166015625,-0.852081298828125,1,0.83
2020-05-19 10:04:11.621 -0400,1589897051.000187,41.35198648749205,-71.84495993965047,18.90286,0.9571444,-1,3.548712452393277,4.607730131313869,-9999,63865.59652475001,0.0963592529296875,0.558807373046875,-0.8347930908203125,1,0.83
2020-05-19 10:04:11.671 -0400,1589897051.000187,41.35198648749205,-71.84495993965047,18.90286,0.9571444,-1,3.548712452393277,4.607730131313869,-9999,63865.64641075001,0.083587646484375,0.537628173828125,-0.837432861328125,1,0.83
2020-05-19 10:04:11.721 -0400,1589897051.000187,41.35198648749205,-71.84495993965047,18.90286,0.9571444,-1,3.548712452393277,4.607730131313869,-9999,63865.69629837501,0.0880584716796875,0.532012939453125,-0.8448638916015625,1,0.83
2020-05-19 10:04:11.770 -0400,1589897051.000187,41.35198648749205,-71.84495993965047,18.90286,0.9571444,-1,3.548712452393277,4.607730131313869,-9999,63865.74618837501,0.0966339111328125,0.528533935546875,-0.8390655517578125,1,0.83
2020-05-19 10:04:11.820 -0400,1589897051.000187,41.35198648749205,-71.84495993965047,18.90286,0.9571444,-1,3.548712452393277,4.607730131313869,-9999,63865.796077375,0.0995330810546875,0.5285797119140625,-0.842498779296875,1,0.83
2020-05-19 10:04:11.870 -0400,1589897051.000187,41.35198648749205,-71.84495993965047,18.90286,0.9571444,-1,3.548712452393277,4.607730131313869,-9999,63865.845969375,0.091583251953125,0.539459228515625,-0.8426971435546875,1,0.83
2020-05-19 10:04:11.920 -0400,1589897051.000187,41.35198648749205,-71.84495993965047,18.90286,0.9571444,-1,3.548712452393277,4.607730131313869,-9999,63865.89586037501,0.09051513671875,0.538787841796875,-0.837310791015625,1,0.83
2020-05-19 10:04:11.970 -0400,1589897051.000187,41.35198648749205,-71.84495993965047,18.90286,0.9571444,-1,3.548712452393277,4.607730131313869,-9999,63865.945752375,0.0913848876953125,0.5351715087890625,-0.835662841796875,1,0.83
2020-05-19 10:04:12.030 -0400,1589897051.000187,41.35198648749205,-71.84495993965047,18.90286,0.9571444,-1,3.548712452393277,4.607730131313869,-9999,63865.99564437501,0.0991668701171875,0.5261383056640625,-0.846160888671875,1,0.83
2020-05-19 10:04:12.070 -0400,1589897051.000187,41.35198648749205,-71.84495993965047,18.90286,0.9571444,-1,3.548712452393277,4.607730131313869,-9999,63866.045535375,0.0999755859375,0.532379150390625,-0.847137451171875,1,0.83
2020-05-19 10:04:12.120 -0400,1589897051.000187,41.35198648749205,-71.84495993965047,18.90286,0.9571444,-1,3.548712452393277,4.607730131313869,-9999,63866.095427375,0.0930633544921875,0.53778076171875,-0.8361053466796875,1,0.83
2020-05-19 10:04:12.170 -0400,1589897051.000187,41.35198648749205,-71.84495993965047,18.90286,0.9571444,-1,3.548712452393277,4.607730131313869,-9999,63866.14531737501,0.09295654296875,0.534210205078125,-0.843719482421875,1,0.83
2020-05-19 10:04:12.219 -0400,1589897051.000187,41.35198648749205,-71.84495993965047,18.90286,0.9571444,-1,3.548712452393277,4.607730131313869,-9999,63866.19520737501,0.0970306396484375,0.5336151123046875,-0.8387603759765625,1,0.83
2020-05-19 10:04:12.269 -0400,1589897051.000187,41.35198648749205,-71.84495993965047,18.90286,0.9571444,-1,3.548712452393277,4.607730131313869,-9999,63866.245101375,0.097686767578125,0.5377044677734375,-0.8378143310546875,1,0.83
2020-05-19 10:04:12.319 -0400,1589897052.00019,41.3519891381206,-71.84496068437802,16.93336,0,-1,3.542893006772092,4.612206215614632,-9999,63866.29499237501,0.0962982177734375,0.5406951904296875,-0.8446197509765625,1,0.83
2020-05-19 10:04:12.369 -0400,1589897052.00019,41.3519891381206,-71.84496068437802,16.93336,0,-1,3.542893006772092,4.612206215614632,-9999,63866.34488137501,0.0941009521484375,0.5364837646484375,-0.8366241455078125,1,0.83
2020-05-19 10:04:12.419 -0400,1589897052.00019,41.3519891381206,-71.84496068437802,16.93336,0,-1,3.542893006772092,4.612206215614632,-9999,63866.394770375,0.094512939453125,0.533050537109375,-0.8411712646484375,1,0.83
2020-05-19 10:04:12.469 -0400,1589897052.00019,41.3519891381206,-71.84496068437802,16.93336,0,-1,3.542893006772092,4.612206215614632,-9999,63866.444657375,0.09234619140625,0.5374755859375,-0.836669921875,1,0.83
2020-05-19 10:04:12.519 -0400,1589897052.00019,41.3519891381206,-71.84496068437802,16.93336,0,-1,3.542893006772092,4.612206215614632,-9999,63866.494546375,0.0947113037109375,0.533721923828125,-0.8395538330078125,1,0.83
2020-05-19 10:04:12.569 -0400,1589897052.00019,41.3519891381206,-71.84496068437802,16.93336,0,-1,3.542893006772092,4.612206215614632,-9999,63866.54443237501,0.0956878662109375,0.5314788818359375,-0.8385009765625,1,0.83
2020-05-19 10:04:12.619 -0400,1589897052.00019,41.3519891381206,-71.84496068437802,16.93336,0,-1,3.542893006772092,4.612206215614632,-9999,63866.59431837501,0.0996856689453125,0.5382080078125,-0.838714599609375,1,0.83
2020-05-19 10:04:12.669 -0400,1589897052.00019,41.3519891381206,-71.84496068437802,16.93336,0,-1,3.542893006772092,4.612206215614632,-9999,63866.644209375,0.0974884033203125,0.53582763671875,-0.8463287353515625,1,0.83
2020-05-19 10:04:12.718 -0400,1589897052.00019,41.3519891381206,-71.84496068437802,16.93336,0,-1,3.542893006772092,4.612206215614632,-9999,63866.694099125,0.0956268310546875,0.5384063720703125,-0.835968017578125,1,0.83
2020-05-19 10:04:12.768 -0400,1589897052.00019,41.3519891381206,-71.84496068437802,16.93336,0,-1,3.542893006772092,4.612206215614632,-9999,63866.743989125,0.099609375,0.5399627685546875,-0.8321533203125,1,0.83
2020-05-19 10:04:12.818 -0400,1589897052.00019,41.3519891381206,-71.84496068437802,16.93336,0,-1,3.542893006772092,4.612206215614632,-9999,63866.79388012501,0.0985565185546875,0.5386962890625,-0.843017578125,1,0.83
2020-05-19 10:04:12.868 -0400,1589897052.00019,41.3519891381206,-71.84496068437802,16.93336,0,-1,3.542893006772092,4.612206215614632,-9999,63866.843771125,0.1020050048828125,0.53192138671875,-0.84124755859375,1,0.83
2020-05-19 10:04:12.918 -0400,1589897052.00019,41.3519891381206,-71.84496068437802,16.93336,0,-1,3.542893006772092,4.612206215614632,-9999,63866.893661125,0.1027679443359375,0.5408477783203125,-0.834075927734375,1,0.83
2020-05-19 10:04:12.968 -0400,1589897052.00019,41.3519891381206,-71.84496068437802,16.93336,0,-1,3.542893006772092,4.612206215614632,-9999,63866.943549125,0.0962066650390625,0.5375518798828125,-0.8365631103515625,1,0.83
2020-05-19 10:04:13.018 -0400,1589897052.00019,41.3519891381206,-71.84496068437802,16.93336,0,-1,3.542893006772092,4.612206215614632,-9999,63866.99343612501,0.102935791015625,0.54156494140625,-0.8428802490234375,1,0.83
2020-05-19 10:04:13.068 -0400,1589897052.00019,41.3519891381206,-71.84496068437802,16.93336,0,-1,3.542893006772092,4.612206215614632,-9999,63867.04332312501,0.107391357421875,0.540435791015625,-0.8337860107421875,1,0.83
2020-05-19 10:04:13.117 -0400,1589897052.00019,41.3519891381206,-71.84496068437802,16.93336,0,-1,3.542893006772092,4.612206215614632,-9999,63867.09320812501,0.1096954345703125,0.54095458984375,-0.8359527587890625,1,0.83
2020-05-19 10:04:13.167 -0400,1589897052.00019,41.3519891381206,-71.84496068437802,16.93336,0,-1,3.542893006772092,4.612206215614632,-9999,63867.143096125,0.1063232421875,0.53857421875,-0.8386383056640625,1,0.83
2020-05-19 10:04:13.217 -0400,1589897052.00019,41.3519891381206,-71.84496068437802,16.93336,0,-1,3.542893006772092,4.612206215614632,-9999,63867.192983125,0.109649658203125,0.5426483154296875,-0.834442138671875,1,0.83
2020-05-19 10:04:13.267 -0400,1589897052.00019,41.3519891381206,-71.84496068437802,16.93336,0,-1,3.542893006772092,4.612206215614632,-9999,63867.242870125,0.1043701171875,0.537200927734375,-0.83575439453125,1,0.83
2020-05-19 10:04:13.317 -0400,1589897053.000194,41.35198965453629,-71.84495978289652,17.1867,0,-1,3.54132026706849,4.613413898496296,-9999,63867.292757125,0.0928192138671875,0.5210418701171875,-0.81298828125,1,0.83
2020-05-19 10:04:13.367 -0400,1589897053.000194,41.35198965453629,-71.84495978289652,17.1867,0,-1,3.54132026706849,4.613413898496296,-9999,63867.34264612501,0.1089630126953125,0.5496063232421875,-0.8466796875,1,0.83
2020-05-19 10:04:13.417 -0400,1589897053.000194,41.35198965453629,-71.84495978289652,17.1867,0,-1,3.54132026706849,4.613413898496296,-9999,63867.39253112501,0.1116943359375,0.5233917236328125,-0.8386383056640625,1,0.83
2020-05-19 10:04:13.467 -0400,1589897053.000194,41.35198965453629,-71.84495978289652,17.1867,0,-1,3.54132026706849,4.613413898496296,-9999,63867.44241412501,0.1138916015625,0.533660888671875,-0.857086181640625,1,0.83
2020-05-19 10:04:13.516 -0400,1589897053.000194,41.35198965453629,-71.84495978289652,17.1867,0,-1,3.54132026706849,4.613413898496296,-9999,63867.49229912501,0.1129150390625,0.531341552734375,-0.8357086181640625,1,0.83
2020-05-19 10:04:13.566 -0400,1589897053.000194,41.35198965453629,-71.84495978289652,17.1867,0,-1,3.54132026706849,4.613413898496296,-9999,63867.542188125,0.1219635009765625,0.5320587158203125,-0.843353271484375,1,0.83
2020-05-19 10:04:13.616 -0400,1589897053.000194,41.35198965453629,-71.84495978289652,17.1867,0,-1,3.54132026706849,4.613413898496296,-9999,63867.592078125,0.09820556640625,0.5926666259765625,-0.8056488037109375,1,0.83
2020-05-19 10:04:13.666 -0400,1589897053.000194,41.35198965453629,-71.84495978289652,17.1867,0,-1,3.54132026706849,4.613413898496296,-9999,63867.641965125,0.11737060546875,0.5557098388671875,-0.843780517578125,1,0.83
2020-05-19 10:04:13.716 -0400,1589897053.000194,41.35198965453629,-71.84495978289652,17.1867,0,-1,3.54132026706849,4.613413898496296,-9999,63867.691845875,0.11322021484375,0.525146484375,-0.8247833251953125,1,0.83
2020-05-19 10:04:13.766 -0400,1589897053.000194,41.35198965453629,-71.84495978289652,17.1867,0,-1,3.54132026706849,4.613413898496296,-9999,63867.741729875,0.107818603515625,0.5652923583984375,-0.8294677734375,1,0.83
2020-05-19 10:04:13.816 -0400,1589897053.000194,41.35198965453629,-71.84495978289652,17.1867,0,-1,3.54132026706849,4.613413898496296,-9999,63867.791613875,0.091339111328125,0.578094482421875,-0.81689453125,1,0.83
2020-05-19 10:04:13.866 -0400,1589897053.000194,41.35198965453629,-71.84495978289652,17.1867,0,-1,3.54132026706849,4.613413898496296,-9999,63867.841500875,0.1092529296875,0.569854736328125,-0.8173980712890625,1,0.83
2020-05-19 10:04:13.916 -0400,1589897053.000194,41.35198965453629,-71.84495978289652,17.1867,0,-1,3.54132026706849,4.613413898496296,-9999,63867.891387875,0.1255035400390625,0.5968780517578125,-0.8519287109375,1,0.83
2020-05-19 10:04:13.966 -0400,1589897053.000194,41.35198965453629,-71.84495978289652,17.1867,0,-1,3.54132026706849,4.613413898496296,-9999,63867.941271875,0.1432952880859375,0.544403076171875,-0.92303466796875,1,0.83
2020-05-19 10:04:14.015 -0400,1589897053.000194,41.35198965453629,-71.84495978289652,17.1867,0,-1,3.54132026706849,4.613413898496296,-9999,63867.991153875,0.0706939697265625,0.5770263671875,-0.9482269287109375,1,0.83
2020-05-19 10:04:14.065 -0400,1589897053.000194,41.35198965453629,-71.84495978289652,17.1867,0,-1,3.54132026706849,4.613413898496296,-9999,63868.041039875,-0.0162353515625,0.6710662841796875,-0.9025421142578125,1,0.83
2020-05-19 10:04:14.115 -0400,1589897053.000194,41.35198965453629,-71.84495978289652,17.1867,0,-1,3.54132026706849,4.613413898496296,-9999,63868.090926875,0.016693115234375,0.473297119140625,-0.7693328857421875,1,0.83
2020-05-19 10:04:14.168 -0400,1589897053.000194,41.35198965453629,-71.84495978289652,17.1867,0,-1,3.54132026706849,4.613413898496296,-9999,63868.140811875,0.00482177734375,0.577667236328125,-0.81829833984375,1,0.83
2020-05-19 10:04:14.215 -0400,1589897053.000194,41.35198965453629,-71.84495978289652,17.1867,0,-1,3.54132026706849,4.613413898496296,-9999,63868.19070087501,-0.0288543701171875,0.4060211181640625,-0.700225830078125,1,0.83
2020-05-19 10:04:14.265 -0400,1589897054.000197,41.35199032798884,-71.84495912124119,16.52415,0,-1,3.546554058627455,4.609391645545208,-9999,63868.24058787501,-0.0168914794921875,0.5415496826171875,-0.8299560546875,1,0.83
2020-05-19 10:04:14.315 -0400,1589897054.000197,41.35199032798884,-71.84495912124119,16.52415,0,-1,3.546554058627455,4.609391645545208,-9999,63868.290474875,0.00921630859375,0.3438262939453125,-0.8118743896484375,1,0.83
2020-05-19 10:04:14.365 -0400,1589897054.000197,41.35199032798884,-71.84495912124119,16.52415,0,-1,3.546554058627455,4.609391645545208,-9999,63868.340360875,-0.0105743408203125,0.4915313720703125,-0.83197021484375,1,0.83
2020-05-19 10:04:14.414 -0400,1589897054.000197,41.35199032798884,-71.84495912124119,16.52415,0,-1,3.546554058627455,4.609391645545208,-9999,63868.390247875,0.0290069580078125,0.4778289794921875,-0.8727569580078125,1,0.83
2020-05-19 10:04:14.464 -0400,1589897054.000197,41.35199032798884,-71.84495912124119,16.52415,0,-1,3.546554058627455,4.609391645545208,-9999,63868.440135875,-0.0058135986328125,0.5548248291015625,-0.7267913818359375,1,0.83
2020-05-19 10:04:14.514 -0400,1589897054.000197,41.35199032798884,-71.84495912124119,16.52415,0,-1,3.546554058627455,4.609391645545208,-9999,63868.490022875,-0.0197906494140625,0.51275634765625,-0.919219970703125,1,0.83
2020-05-19 10:04:14.564 -0400,1589897054.000197,41.35199032798884,-71.84495912124119,16.52415,0,-1,3.546554058627455,4.609391645545208,-9999,63868.53991087501,-0.0553436279296875,0.4701080322265625,-0.8818359375,1,0.83
2020-05-19 10:04:14.614 -0400,1589897054.000197,41.35199032798884,-71.84495912124119,16.52415,0,-1,3.546554058627455,4.609391645545208,-9999,63868.58979787501,-0.0521087646484375,0.5237579345703125,-0.8763580322265625,1,0.83
2020-05-19 10:04:14.664 -0400,1589897054.000197,41.35199032798884,-71.84495912124119,16.52415,0,-1,3.546554058627455,4.609391645545208,-9999,63868.639682875,-0.02703857421875,0.489105224609375,-0.9008026123046875,1,0.83
2020-05-19 10:04:14.714 -0400,1589897054.000197,41.35199032798884,-71.84495912124119,16.52415,0,-1,3.546554058627455,4.609391645545208,-9999,63868.68956962501,-0.0236053466796875,0.4615631103515625,-0.90350341796875,1,0.83
2020-05-19 10:04:14.764 -0400,1589897054.000197,41.35199032798884,-71.84495912124119,16.52415,0,-1,3.546554058627455,4.609391645545208,-9999,63868.73945562501,0.004974365234375,0.416412353515625,-0.9019927978515625,1,0.83
2020-05-19 10:04:14.814 -0400,1589897054.000197,41.35199032798884,-71.84495912124119,16.52415,0,-1,3.546554058627455,4.609391645545208,-9999,63868.789341625,-0.00189208984375,0.4140777587890625,-0.8896942138671875,1,0.83
2020-05-19 10:04:14.863 -0400,1589897054.000197,41.35199032798884,-71.84495912124119,16.52415,0,-1,3.546554058627455,4.609391645545208,-9999,63868.839226625,-0.0359039306640625,0.4840240478515625,-0.8577880859375,1,0.83
2020-05-19 10:04:14.913 -0400,1589897054.000197,41.35199032798884,-71.84495912124119,16.52415,0,-1,3.546554058627455,4.609391645545208,-9999,63868.889110625,-0.04278564453125,0.513946533203125,-0.88690185546875,1,0.83
2020-05-19 10:04:14.963 -0400,1589897054.000197,41.35199032798884,-71.84495912124119,16.52415,0,-1,3.546554058627455,4.609391645545208,-9999,63868.938995625,-0.043548583984375,0.509796142578125,-0.9033203125,1,0.83
2020-05-19 10:04:15.013 -0400,1589897054.000197,41.35199032798884,-71.84495912124119,16.52415,0,-1,3.546554058627455,4.609391645545208,-9999,63868.988880625,-0.023956298828125,0.49200439453125,-0.8800506591796875,1,0.83
2020-05-19 10:04:15.063 -0400,1589897054.000197,41.35199032798884,-71.84495912124119,16.52415,0,-1,3.546554058627455,4.609391645545208,-9999,63869.038764625,-0.01092529296875,0.456451416015625,-0.883392333984375,1,0.83
2020-05-19 10:04:15.113 -0400,1589897054.000197,41.35199032798884,-71.84495912124119,16.52415,0,-1,3.546554058627455,4.609391645545208,-9999,63869.088650625,-0.0182952880859375,0.4832763671875,-0.8838958740234375,1,0.83
2020-05-19 10:04:15.163 -0400,1589897054.000197,41.35199032798884,-71.84495912124119,16.52415,0,-1,3.546554058627455,4.609391645545208,-9999,63869.138535625,-0.023468017578125,0.4701385498046875,-0.890838623046875,1,0.83
2020-05-19 10:04:15.213 -0400,1589897054.000197,41.35199032798884,-71.84495912124119,16.52415,0,-1,3.546554058627455,4.609391645545208,-9999,63869.188419625,-0.024627685546875,0.47418212890625,-0.8680572509765625,1,0.83
2020-05-19 10:04:15.268 -0400,1589897055.000199,41.35199621179406,-71.84495861918937,12.92781,1.351479,-1,3.54259295220225,4.612436688757449,-9999,63869.238303625,-0.0256195068359375,0.4762115478515625,-0.8765716552734375,1,0.83
2020-05-19 10:04:15.312 -0400,1589897055.000199,41.35199621179406,-71.84495861918937,12.92781,1.351479,-1,3.54259295220225,4.612436688757449,-9999,63869.288187625,-0.014251708984375,0.472564697265625,-0.8777008056640625,1,0.83
2020-05-19 10:04:15.362 -0400,1589897055.000199,41.35199621179406,-71.84495861918937,12.92781,1.351479,-1,3.54259295220225,4.612436688757449,-9999,63869.338071625,-0.0208282470703125,0.4860076904296875,-0.883941650390625,1,0.83
2020-05-19 10:04:15.412 -0400,1589897055.000199,41.35199621179406,-71.84495861918937,12.92781,1.351479,-1,3.54259295220225,4.612436688757449,-9999,63869.387956625,-0.022796630859375,0.48150634765625,-0.87847900390625,1,0.83
2020-05-19 10:04:15.462 -0400,1589897055.000199,41.35199621179406,-71.84495861918937,12.92781,1.351479,-1,3.54259295220225,4.612436688757449,-9999,63869.437843625,-0.0125579833984375,0.475494384765625,-0.87799072265625,1,0.83
2020-05-19 10:04:15.512 -0400,1589897055.000199,41.35199621179406,-71.84495861918937,12.92781,1.351479,-1,3.54259295220225,4.612436688757449,-9999,63869.48773062501,-0.018707275390625,0.48089599609375,-0.878448486328125,1,0.83
2020-05-19 10:04:15.562 -0400,1589897055.000199,41.35199621179406,-71.84495861918937,12.92781,1.351479,-1,3.54259295220225,4.612436688757449,-9999,63869.53761762501,-0.0087738037109375,0.443756103515625,-0.8927764892578125,1,0.83
2020-05-19 10:04:15.612 -0400,1589897055.000199,41.35199621179406,-71.84495861918937,12.92781,1.351479,-1,3.54259295220225,4.612436688757449,-9999,63869.58750362501,-0.0279083251953125,0.5230712890625,-0.861663818359375,1,0.83
2020-05-19 10:04:15.662 -0400,1589897055.000199,41.35199621179406,-71.84495861918937,12.92781,1.351479,-1,3.54259295220225,4.612436688757449,-9999,63869.637389625,-0.02642822265625,0.489837646484375,-0.872589111328125,1,0.83
2020-05-19 10:04:15.712 -0400,1589897055.000199,41.35199621179406,-71.84495861918937,12.92781,1.351479,-1,3.54259295220225,4.612436688757449,-9999,63869.68727279167,-0.020599365234375,0.48956298828125,-0.8856964111328125,1,0.83
2020-05-19 10:04:15.762 -0400,1589897055.000199,41.35199621179406,-71.84495861918937,12.92781,1.351479,-1,3.54259295220225,4.612436688757449,-9999,63869.73715579167,-0.01324462890625,0.479736328125,-0.871673583984375,1,0.83
2020-05-19 10:04:15.811 -0400,1589897055.000199,41.35199621179406,-71.84495861918937,12.92781,1.351479,-1,3.54259295220225,4.612436688757449,-9999,63869.78704179167,-0.0177154541015625,0.48883056640625,-0.858734130859375,1,0.83
2020-05-19 10:04:15.861 -0400,1589897055.000199,41.35199621179406,-71.84495861918937,12.92781,1.351479,-1,3.54259295220225,4.612436688757449,-9999,63869.83692879167,-0.02178955078125,0.49395751953125,-0.8812713623046875,1,0.83
2020-05-19 10:04:15.911 -0400,1589897055.000199,41.35199621179406,-71.84495861918937,12.92781,1.351479,-1,3.54259295220225,4.612436688757449,-9999,63869.88681479167,-0.01995849609375,0.4859161376953125,-0.8692626953125,1,0.83
2020-05-19 10:04:15.961 -0400,1589897055.000199,41.35199621179406,-71.84495861918937,12.92781,1.351479,-1,3.54259295220225,4.612436688757449,-9999,63869.93670679167,-0.0150299072265625,0.467041015625,-0.87469482421875,1,0.83
2020-05-19 10:04:16.011 -0400,1589897055.000199,41.35199621179406,-71.84495861918937,12.92781,1.351479,-1,3.54259295220225,4.612436688757449,-9999,63869.98659579167,-0.018218994140625,0.4850311279296875,-0.878143310546875,1,0.83
2020-05-19 10:04:16.061 -0400,1589897055.000199,41.35199621179406,-71.84495861918937,12.92781,1.351479,-1,3.54259295220225,4.612436688757449,-9999,63870.03648379167,-0.01019287109375,0.490325927734375,-0.8745880126953125,1,0.83
2020-05-19 10:04:16.110 -0400,1589897055.000199,41.35199621179406,-71.84495861918937,12.92781,1.351479,-1,3.54259295220225,4.612436688757449,-9999,63870.08637179167,-0.0153350830078125,0.48504638671875,-0.865234375,1,0.83
2020-05-19 10:04:16.161 -0400,1589897055.000199,41.35199621179406,-71.84495861918937,12.92781,1.351479,-1,3.54259295220225,4.612436688757449,-9999,63870.13625879167,-0.0149688720703125,0.498046875,-0.8861846923828125,1,0.83
2020-05-19 10:04:16.210 -0400,1589897055.000199,41.35199621179406,-71.84495861918937,12.92781,1.351479,-1,3.54259295220225,4.612436688757449,-9999,63870.18614679167,-0.0136566162109375,0.48529052734375,-0.8648529052734375,1,0.83
2020-05-19 10:04:16.260 -0400,1589897056.000202,41.35199601840532,-71.84495891804031,12.90449,0.8477716,-1,3.511708623432679,4.635993914674327,-9999,63870.23603379167,-0.002838134765625,0.4918365478515625,-0.870086669921875,1,0.83
2020-05-19 10:04:16.310 -0400,1589897056.000202,41.35199601840532,-71.84495891804031,12.90449,0.8477716,-1,3.511708623432679,4.635993914674327,-9999,63870.28592179167,-0.0027618408203125,0.48779296875,-0.8789520263671875,1,0.83
2020-05-19 10:04:16.360 -0400,1589897056.000202,41.35199601840532,-71.84495891804031,12.90449,0.8477716,-1,3.511708623432679,4.635993914674327,-9999,63870.33581079167,-0.0100250244140625,0.48468017578125,-0.876007080078125,1,0.83
2020-05-19 10:04:16.410 -0400,1589897056.000202,41.35199601840532,-71.84495891804031,12.90449,0.8477716,-1,3.511708623432679,4.635993914674327,-9999,63870.38569779167,-0.015289306640625,0.4935455322265625,-0.86993408203125,1,0.83
2020-05-19 10:04:16.460 -0400,1589897056.000202,41.35199601840532,-71.84495891804031,12.90449,0.8477716,-1,3.511708623432679,4.635993914674327,-9999,63870.43558279167,-0.0135040283203125,0.4895172119140625,-0.8694915771484375,1,0.83
2020-05-19 10:04:16.510 -0400,1589897056.000202,41.35199601840532,-71.84495891804031,12.90449,0.8477716,-1,3.511708623432679,4.635993914674327,-9999,63870.48546879167,-0.0149078369140625,0.4810943603515625,-0.8728179931640625,1,0.83
2020-05-19 10:04:16.560 -0400,1589897056.000202,41.35199601840532,-71.84495891804031,12.90449,0.8477716,-1,3.511708623432679,4.635993914674327,-9999,63870.53535279167,-0.0103302001953125,0.488922119140625,-0.8691253662109375,1,0.83
2020-05-19 10:04:16.609 -0400,1589897056.000202,41.35199601840532,-71.84495891804031,12.90449,0.8477716,-1,3.511708623432679,4.635993914674327,-9999,63870.58523579167,-0.011016845703125,0.479888916015625,-0.8767852783203125,1,0.83
2020-05-19 10:04:16.659 -0400,1589897056.000202,41.35199601840532,-71.84495891804031,12.90449,0.8477716,-1,3.511708623432679,4.635993914674327,-9999,63870.63511979167,-0.0172119140625,0.489288330078125,-0.8779449462890625,1,0.83
2020-05-19 10:04:16.709 -0400,1589897056.000202,41.35199601840532,-71.84495891804031,12.90449,0.8477716,-1,3.511708623432679,4.635993914674327,-9999,63870.68500687501,-0.0162506103515625,0.4899749755859375,-0.8629608154296875,1,0.83
2020-05-19 10:04:16.759 -0400,1589897056.000202,41.35199601840532,-71.84495891804031,12.90449,0.8477716,-1,3.511708623432679,4.635993914674327,-9999,63870.73489187501,-0.0119781494140625,0.489349365234375,-0.872406005859375,1,0.83
2020-05-19 10:04:16.809 -0400,1589897056.000202,41.35199601840532,-71.84495891804031,12.90449,0.8477716,-1,3.511708623432679,4.635993914674327,-9999,63870.78477387501,-0.0203704833984375,0.494171142578125,-0.86865234375,1,0.83
2020-05-19 10:04:16.859 -0400,1589897056.000202,41.35199601840532,-71.84495891804031,12.90449,0.8477716,-1,3.511708623432679,4.635993914674327,-9999,63870.834653875,-0.0245513916015625,0.49493408203125,-0.8652496337890625,1,0.83
2020-05-19 10:04:16.909 -0400,1589897056.000202,41.35199601840532,-71.84495891804031,12.90449,0.8477716,-1,3.511708623432679,4.635993914674327,-9999,63870.884536875,-0.0240631103515625,0.5085906982421875,-0.8679046630859375,1,0.83
2020-05-19 10:04:16.959 -0400,1589897056.000202,41.35199601840532,-71.84495891804031,12.90449,0.8477716,-1,3.511708623432679,4.635993914674327,-9999,63870.934421875,-0.01947021484375,0.49285888671875,-0.8780059814453125,1,0.83
2020-05-19 10:04:17.009 -0400,1589897056.000202,41.35199601840532,-71.84495891804031,12.90449,0.8477716,-1,3.511708623432679,4.635993914674327,-9999,63870.98430687501,-0.021087646484375,0.5032501220703125,-0.876800537109375,1,0.83
2020-05-19 10:04:17.058 -0400,1589897056.000202,41.35199601840532,-71.84495891804031,12.90449,0.8477716,-1,3.511708623432679,4.635993914674327,-9999,63871.03419387501,-0.005584716796875,0.504150390625,-0.876129150390625,1,0.83
2020-05-19 10:04:17.109 -0400,1589897056.000202,41.35199601840532,-71.84495891804031,12.90449,0.8477716,-1,3.511708623432679,4.635993914674327,-9999,63871.08408087501,0.0197906494140625,0.4658966064453125,-0.9186859130859375,1,0.83
2020-05-19 10:04:17.158 -0400,1589897056.000202,41.35199601840532,-71.84495891804031,12.90449,0.8477716,-1,3.511708623432679,4.635993914674327,-9999,63871.13396387501,-0.010009765625,0.471435546875,-0.9259185791015625,1,0.83
2020-05-19 10:04:17.212 -0400,1589897057.000204,41.35199730886144,-71.844959657456,12.69009,0.6157684,-1,3.509449896664788,4.637704006896984,-9999,63871.18384787501,-0.0326385498046875,0.4822845458984375,-0.941925048828125,1,0.83
2020-05-19 10:04:17.258 -0400,1589897057.000204,41.35199730886144,-71.844959657456,12.69009,0.6157684,-1,3.509449896664788,4.637704006896984,-9999,63871.233733875,-0.072235107421875,0.4237518310546875,-0.8979339599609375,1,0.83
2020-05-19 10:04:17.308 -0400,1589897057.000204,41.35199730886144,-71.844959657456,12.69009,0.6157684,-1,3.509449896664788,4.637704006896984,-9999,63871.283621875,-0.0394134521484375,0.230010986328125,-0.911773681640625,1,0.83
2020-05-19 10:04:17.358 -0400,1589897057.000204,41.35199730886144,-71.844959657456,12.69009,0.6157684,-1,3.509449896664788,4.637704006896984,-9999,63871.333509875,-0.053009033203125,0.4207305908203125,-0.923248291015625,1,0.83
2020-05-19 10:04:17.408 -0400,1589897057.000204,41.35199730886144,-71.844959657456,12.69009,0.6157684,-1,3.509449896664788,4.637704006896984,-9999,63871.38339987501,-0.03717041015625,0.2657012939453125,-0.949249267578125,1,0.83
2020-05-19 10:04:17.458 -0400,1589897057.000204,41.35199730886144,-71.844959657456,12.69009,0.6157684,-1,3.509449896664788,4.637704006896984,-9999,63871.43328687501,-0.045623779296875,0.316986083984375,-0.912750244140625,1,0.83
2020-05-19 10:04:17.507 -0400,1589897057.000204,41.35199730886144,-71.844959657456,12.69009,0.6157684,-1,3.509449896664788,4.637704006896984,-9999,63871.483174875,-0.0296478271484375,0.271209716796875,-0.97979736328125,1,0.83
2020-05-19 10:04:17.557 -0400,1589897057.000204,41.35199730886144,-71.844959657456,12.69009,0.6157684,-1,3.509449896664788,4.637704006896984,-9999,63871.533061875,-0.053466796875,0.3466644287109375,-0.93316650390625,1,0.83
2020-05-19 10:04:17.607 -0400,1589897057.000204,41.35199730886144,-71.844959657456,12.69009,0.6157684,-1,3.509449896664788,4.637704006896984,-9999,63871.582947875,-0.0342254638671875,0.23895263671875,-0.9867095947265625,1,0.83
2020-05-19 10:04:17.657 -0400,1589897057.000204,41.35199730886144,-71.844959657456,12.69009,0.6157684,-1,3.509449896664788,4.637704006896984,-9999,63871.632835875,-0.051361083984375,0.3538665771484375,-0.93798828125,1,0.83
2020-05-19 10:04:17.707 -0400,1589897057.000204,41.35199730886144,-71.844959657456,12.69009,0.6157684,-1,3.509449896664788,4.637704006896984,-9999,63871.68272304167,-0.0398101806640625,0.2580413818359375,-0.964935302734375,1,0.83
2020-05-19 10:04:17.757 -0400,1589897057.000204,41.35199730886144,-71.844959657456,12.69009,0.6157684,-1,3.509449896664788,4.637704006896984,-9999,63871.73260904167,-0.0558319091796875,0.285797119140625,-0.9603729248046875,1,0.83
2020-05-19 10:04:17.807 -0400,1589897057.000204,41.35199730886144,-71.844959657456,12.69009,0.6157684,-1,3.509449896664788,4.637704006896984,-9999,63871.78249904167,-0.062286376953125,0.298004150390625,-0.966522216796875,1,0.83
2020-05-19 10:04:17.857 -0400,1589897057.000204,41.35199730886144,-71.844959657456,12.69009,0.6157684,-1,3.509449896664788,4.637704006896984,-9999,63871.83238704167,-0.044464111328125,0.281585693359375,-0.9004974365234375,1,0.83
2020-05-19 10:04:17.906 -0400,1589897057.000204,41.35199730886144,-71.844959657456,12.69009,0.6157684,-1,3.509449896664788,4.637704006896984,-9999,63871.88227404167,-0.06939697265625,0.304931640625,-0.9698028564453125,1,0.83
2020-05-19 10:04:17.956 -0400,1589897057.000204,41.35199730886144,-71.844959657456,12.69009,0.6157684,-1,3.509449896664788,4.637704006896984,-9999,63871.93216404167,-0.039703369140625,0.2183990478515625,-0.967926025390625,1,0.83
2020-05-19 10:04:18.006 -0400,1589897057.000204,41.35199730886144,-71.844959657456,12.69009,0.6157684,-1,3.509449896664788,4.637704006896984,-9999,63871.98205304167,-0.0640869140625,0.3348388671875,-0.932159423828125,1,0.83
2020-05-19 10:04:18.056 -0400,1589897057.000204,41.35199730886144,-71.844959657456,12.69009,0.6157684,-1,3.509449896664788,4.637704006896984,-9999,63872.03194104167,-0.0368499755859375,0.258026123046875,-0.9166107177734375,1,0.83
2020-05-19 10:04:18.106 -0400,1589897057.000204,41.35199730886144,-71.844959657456,12.69009,0.6157684,-1,3.509449896664788,4.637704006896984,-9999,63872.08183004167,-0.0637969970703125,0.30609130859375,-0.9783782958984375,1,0.83
2020-05-19 10:04:18.156 -0400,1589897057.000204,41.35199730886144,-71.844959657456,12.69009,0.6157684,-1,3.509449896664788,4.637704006896984,-9999,63872.13171804167,-0.053436279296875,0.2535552978515625,-0.950958251953125,1,0.83
2020-05-19 10:04:18.206 -0400,1589897057.000204,41.35199730886144,-71.844959657456,12.69009,0.6157684,-1,3.509449896664788,4.637704006896984,-9999,63872.18160504167,-0.053497314453125,0.361328125,-0.91064453125,1,0.83
2020-05-19 10:04:18.256 -0400,1589897058.000208,41.35199404696971,-71.84496368703192,14.38764,0,-1,3.509470859244006,4.637688143990061,-9999,63872.23149404167,-0.0604705810546875,0.3246612548828125,-0.9337158203125,1,0.83
2020-05-19 10:04:18.306 -0400,1589897058.000208,41.35199404696971,-71.84496368703192,14.38764,0,-1,3.509470859244006,4.637688143990061,-9999,63872.28138504167,-0.0660552978515625,0.3375091552734375,-0.9379730224609375,1,0.83
2020-05-19 10:04:18.356 -0400,1589897058.000208,41.35199404696971,-71.84496368703192,14.38764,0,-1,3.509470859244006,4.637688143990061,-9999,63872.33127504167,-0.053680419921875,0.3360137939453125,-0.898590087890625,1,0.83
2020-05-19 10:04:18.405 -0400,1589897058.000208,41.35199404696971,-71.84496368703192,14.38764,0,-1,3.509470859244006,4.637688143990061,-9999,63872.38116704167,-0.0356903076171875,0.3806915283203125,-0.9558258056640625,1,0.83
2020-05-19 10:04:18.455 -0400,1589897058.000208,41.35199404696971,-71.84496368703192,14.38764,0,-1,3.509470859244006,4.637688143990061,-9999,63872.43105704167,-0.059478759765625,0.3130035400390625,-0.9382476806640625,1,0.83
2020-05-19 10:04:18.505 -0400,1589897058.000208,41.35199404696971,-71.84496368703192,14.38764,0,-1,3.509470859244006,4.637688143990061,-9999,63872.48094604167,-0.05755615234375,0.3976898193359375,-0.9131927490234375,1,0.83
2020-05-19 10:04:18.555 -0400,1589897058.000208,41.35199404696971,-71.84496368703192,14.38764,0,-1,3.509470859244006,4.637688143990061,-9999,63872.53083604167,0.0266876220703125,0.2646942138671875,-0.9826507568359375,1,0.83
2020-05-19 10:04:18.605 -0400,1589897058.000208,41.35199404696971,-71.84496368703192,14.38764,0,-1,3.509470859244006,4.637688143990061,-9999,63872.58072604167,-0.059356689453125,0.3256683349609375,-0.9626007080078125,1,0.83
2020-05-19 10:04:18.655 -0400,1589897058.000208,41.35199404696971,-71.84496368703192,14.38764,0,-1,3.509470859244006,4.637688143990061,-9999,63872.63061804167,-0.01739501953125,0.2053375244140625,-1.03167724609375,1,0.83
2020-05-19 10:04:18.705 -0400,1589897058.000208,41.35199404696971,-71.84496368703192,14.38764,0,-1,3.509470859244006,4.637688143990061,-9999,63872.68050875,-0.041748046875,0.5128021240234375,-0.968109130859375,1,0.83
2020-05-19 10:04:18.755 -0400,1589897058.000208,41.35199404696971,-71.84496368703192,14.38764,0,-1,3.509470859244006,4.637688143990061,-9999,63872.73039875001,-0.1088714599609375,0.41204833984375,-0.8583984375,1,0.83
2020-05-19 10:04:18.804 -0400,1589897058.000208,41.35199404696971,-71.84496368703192,14.38764,0,-1,3.509470859244006,4.637688143990061,-9999,63872.78028575001,-0.0511932373046875,0.1899566650390625,-0.829315185546875,1,0.83
2020-05-19 10:04:18.854 -0400,1589897058.000208,41.35199404696971,-71.84496368703192,14.38764,0,-1,3.509470859244006,4.637688143990061,-9999,63872.83017475,-0.0064697265625,0.36602783203125,-0.9743499755859375,1,0.83
2020-05-19 10:04:18.904 -0400,1589897058.000208,41.35199404696971,-71.84496368703192,14.38764,0,-1,3.509470859244006,4.637688143990061,-9999,63872.88006375,-0.0325927734375,0.2589263916015625,-0.9225616455078125,1,0.83
2020-05-19 10:04:18.954 -0400,1589897058.000208,41.35199404696971,-71.84496368703192,14.38764,0,-1,3.509470859244006,4.637688143990061,-9999,63872.92995375,-0.03363037109375,0.32867431640625,-0.9829254150390625,1,0.83
2020-05-19 10:04:19.004 -0400,1589897058.000208,41.35199404696971,-71.84496368703192,14.38764,0,-1,3.509470859244006,4.637688143990061,-9999,63872.97984175001,-0.0467376708984375,0.3314056396484375,-0.9334564208984375,1,0.83
2020-05-19 10:04:19.055 -0400,1589897058.000208,41.35199404696971,-71.84496368703192,14.38764,0,-1,3.509470859244006,4.637688143990061,-9999,63873.02972875001,-0.05859375,0.3262786865234375,-0.9216461181640625,1,0.83
2020-05-19 10:04:19.104 -0400,1589897058.000208,41.35199404696971,-71.84496368703192,14.38764,0,-1,3.509470859244006,4.637688143990061,-9999,63873.07961675,-0.0251312255859375,0.3913421630859375,-0.9573822021484375,1,0.83
2020-05-19 10:04:19.154 -0400,1589897058.000208,41.35199404696971,-71.84496368703192,14.38764,0,-1,3.509470859244006,4.637688143990061,-9999,63873.12950375,-0.05963134765625,0.431732177734375,-0.95068359375,1,0.83
2020-05-19 10:04:19.204 -0400,1589897058.000208,41.35199404696971,-71.84496368703192,14.38764,0,-1,3.509470859244006,4.637688143990061,-9999,63873.17939275,-0.0549468994140625,0.3766937255859375,-0.9968414306640625,1,0.83
2020-05-19 10:04:19.254 -0400,1589897058.000208,41.35199404696971,-71.84496368703192,14.38764,0,-1,3.509470859244006,4.637688143990061,-9999,63873.22928275001,-0.005279541015625,0.258636474609375,-0.973907470703125,1,0.83
2020-05-19 10:04:19.314 -0400,1589897058.000208,41.35199404696971,-71.84496368703192,14.38764,0,-1,3.509470859244006,4.637688143990061,-9999,63873.27917275,-0.045867919921875,0.266143798828125,-0.927490234375,1,0.83
2020-05-19 10:04:19.353 -0400,1589897059.000211,41.35199035166635,-71.84496765840028,16.86328,0.8866888,-1,3.511197707260571,4.636380883115293,-9999,63873.32906075,-0.0813140869140625,0.3647918701171875,-0.845123291015625,1,0.83
2020-05-19 10:04:19.403 -0400,1589897059.000211,41.35199035166635,-71.84496765840028,16.86328,0.8866888,-1,3.511197707260571,4.636380883115293,-9999,63873.37894775,-0.1042633056640625,0.30682373046875,-0.797088623046875,1,0.83
2020-05-19 10:04:19.453 -0400,1589897059.000211,41.35199035166635,-71.84496765840028,16.86328,0.8866888,-1,3.511197707260571,4.636380883115293,-9999,63873.42883475,-0.08905029296875,0.547332763671875,-0.7938995361328125,1,0.83
2020-05-19 10:04:19.503 -0400,1589897059.000211,41.35199035166635,-71.84496765840028,16.86328,0.8866888,-1,3.511197707260571,4.636380883115293,-9999,63873.47872275001,-0.1309051513671875,0.6397857666015625,-0.689239501953125,1,0.83
2020-05-19 10:04:19.553 -0400,1589897059.000211,41.35199035166635,-71.84496765840028,16.86328,0.8866888,-1,3.511197707260571,4.636380883115293,-9999,63873.52861075001,-0.0900115966796875,0.6819610595703125,-0.900665283203125,1,0.83
2020-05-19 10:04:19.603 -0400,1589897059.000211,41.35199035166635,-71.84496765840028,16.86328,0.8866888,-1,3.511197707260571,4.636380883115293,-9999,63873.57850475,-0.094512939453125,0.572479248046875,-0.854949951171875,1,0.83
2020-05-19 10:04:19.653 -0400,1589897059.000211,41.35199035166635,-71.84496765840028,16.86328,0.8866888,-1,3.511197707260571,4.636380883115293,-9999,63873.62839675001,-0.0490875244140625,0.60931396484375,-0.8241119384765625,1,0.83
2020-05-19 10:04:19.702 -0400,1589897059.000211,41.35199035166635,-71.84496765840028,16.86328,0.8866888,-1,3.511197707260571,4.636380883115293,-9999,63873.67828575001,-0.053985595703125,0.57110595703125,-0.7745513916015625,1,0.83
2020-05-19 10:04:19.752 -0400,1589897059.000211,41.35199035166635,-71.84496765840028,16.86328,0.8866888,-1,3.511197707260571,4.636380883115293,-9999,63873.72817375,-0.0779571533203125,0.54656982421875,-0.765625,1,0.83
2020-05-19 10:04:19.802 -0400,1589897059.000211,41.35199035166635,-71.84496765840028,16.86328,0.8866888,-1,3.511197707260571,4.636380883115293,-9999,63873.77806075,-0.0824737548828125,0.5649566650390625,-0.8097991943359375,1,0.83
2020-05-19 10:04:19.852 -0400,1589897059.000211,41.35199035166635,-71.84496765840028,16.86328,0.8866888,-1,3.511197707260571,4.636380883115293,-9999,63873.82794875,-0.0815887451171875,0.5831146240234375,-0.789031982421875,1,0.83
2020-05-19 10:04:19.902 -0400,1589897059.000211,41.35199035166635,-71.84496765840028,16.86328,0.8866888,-1,3.511197707260571,4.636380883115293,-9999,63873.87783575001,-0.087493896484375,0.680267333984375,-0.7646942138671875,1,0.83
2020-05-19 10:04:19.952 -0400,1589897059.000211,41.35199035166635,-71.84496765840028,16.86328,0.8866888,-1,3.511197707260571,4.636380883115293,-9999,63873.92772375001,-0.0776824951171875,0.70953369140625,-0.6758880615234375,1,0.83
2020-05-19 10:04:20.002 -0400,1589897059.000211,41.35199035166635,-71.84496765840028,16.86328,0.8866888,-1,3.511197707260571,4.636380883115293,-9999,63873.97761075001,-0.027435302734375,0.6840057373046875,-0.831390380859375,1,0.83
2020-05-19 10:04:20.052 -0400,1589897059.000211,41.35199035166635,-71.84496765840028,16.86328,0.8866888,-1,3.511197707260571,4.636380883115293,-9999,63874.02749675,-0.073455810546875,0.71966552734375,-0.74005126953125,1,0.83
2020-05-19 10:04:20.102 -0400,1589897059.000211,41.35199035166635,-71.84496765840028,16.86328,0.8866888,-1,3.511197707260571,4.636380883115293,-9999,63874.07738575,-0.0369415283203125,0.6847076416015625,-0.767578125,1,0.83
2020-05-19 10:04:20.152 -0400,1589897059.000211,41.35199035166635,-71.84496765840028,16.86328,0.8866888,-1,3.511197707260571,4.636380883115293,-9999,63874.12727875001,-0.0620880126953125,0.6937255859375,-0.670867919921875,1,0.83
2020-05-19 10:04:20.201 -0400,1589897059.000211,41.35199035166635,-71.84496765840028,16.86328,0.8866888,-1,3.511197707260571,4.636380883115293,-9999,63874.17716875,-0.059356689453125,0.799468994140625,-0.73681640625,1,0.83
2020-05-19 10:04:20.251 -0400,1589897060.000215,41.35199171615916,-71.84496684422746,15.44075,0,-1,3.515123681101292,4.633405069638282,-9999,63874.22705875,-0.0682220458984375,0.7066802978515625,-0.68670654296875,1,0.83
2020-05-19 10:04:20.302 -0400,1589897060.000215,41.35199171615916,-71.84496684422746,15.44075,0,-1,3.515123681101292,4.633405069638282,-9999,63874.27694875,-0.141998291015625,0.8088226318359375,-0.59814453125,1,0.83
2020-05-19 10:04:20.351 -0400,1589897060.000215,41.35199171615916,-71.84496684422746,15.44075,0,-1,3.515123681101292,4.633405069638282,-9999,63874.32684175,-0.0738677978515625,0.61309814453125,-0.7012481689453125,1,0.83
2020-05-19 10:04:20.401 -0400,1589897060.000215,41.35199171615916,-71.84496684422746,15.44075,0,-1,3.515123681101292,4.633405069638282,-9999,63874.37673375,-0.0241241455078125,0.6801910400390625,-0.8170928955078125,1,0.83
2020-05-19 10:04:20.451 -0400,1589897060.000215,41.35199171615916,-71.84496684422746,15.44075,0,-1,3.515123681101292,4.633405069638282,-9999,63874.42662475001,-0.076629638671875,0.794677734375,-0.789306640625,1,0.83
2020-05-19 10:04:20.501 -0400,1589897060.000215,41.35199171615916,-71.84496684422746,15.44075,0,-1,3.515123681101292,4.633405069638282,-9999,63874.47651575,-0.100128173828125,0.666259765625,-0.67803955078125,1,0.83
2020-05-19 10:04:20.551 -0400,1589897060.000215,41.35199171615916,-71.84496684422746,15.44075,0,-1,3.515123681101292,4.633405069638282,-9999,63874.52640675,-0.1488494873046875,0.6489715576171875,-0.6347198486328125,1,0.83
2020-05-19 10:04:20.601 -0400,1589897060.000215,41.35199171615916,-71.84496684422746,15.44075,0,-1,3.515123681101292,4.633405069638282,-9999,63874.57629875001,-0.173736572265625,0.623016357421875,-0.6256561279296875,1,0.83
2020-05-19 10:04:20.650 -0400,1589897060.000215,41.35199171615916,-71.84496684422746,15.44075,0,-1,3.515123681101292,4.633405069638282,-9999,63874.62619075,-0.1541748046875,0.5274200439453125,-0.58367919921875,1,0.83
2020-05-19 10:04:20.700 -0400,1589897060.000215,41.35199171615916,-71.84496684422746,15.44075,0,-1,3.515123681101292,4.633405069638282,-9999,63874.67607775,-0.1006011962890625,0.6056671142578125,-0.8050384521484375,1,0.83
2020-05-19 10:04:20.750 -0400,1589897060.000215,41.35199171615916,-71.84496684422746,15.44075,0,-1,3.515123681101292,4.633405069638282,-9999,63874.72596475,-0.1606903076171875,0.513671875,-0.896087646484375,1,0.83
2020-05-19 10:04:20.800 -0400,1589897060.000215,41.35199171615916,-71.84496684422746,15.44075,0,-1,3.515123681101292,4.633405069638282,-9999,63874.77585375,-0.13714599609375,0.719451904296875,-0.9008636474609375,1,0.83
2020-05-19 10:04:20.850 -0400,1589897060.000215,41.35199171615916,-71.84496684422746,15.44075,0,-1,3.515123681101292,4.633405069638282,-9999,63874.82574375001,-0.074981689453125,0.51483154296875,-0.864166259765625,1,0.83
2020-05-19 10:04:20.900 -0400,1589897060.000215,41.35199171615916,-71.84496684422746,15.44075,0,-1,3.515123681101292,4.633405069638282,-9999,63874.87563275,-0.0611114501953125,0.4249267578125,-0.8542327880859375,1,0.83
2020-05-19 10:04:20.950 -0400,1589897060.000215,41.35199171615916,-71.84496684422746,15.44075,0,-1,3.515123681101292,4.633405069638282,-9999,63874.92552075,-0.0518646240234375,0.4942474365234375,-0.9112548828125,1,0.83
2020-05-19 10:04:21.000 -0400,1589897060.000215,41.35199171615916,-71.84496684422746,15.44075,0,-1,3.515123681101292,4.633405069638282,-9999,63874.97541075,-0.0460968017578125,0.4829559326171875,-0.8590850830078125,1,0.83
2020-05-19 10:04:21.052 -0400,1589897060.000215,41.35199171615916,-71.84496684422746,15.44075,0,-1,3.515123681101292,4.633405069638282,-9999,63875.02529975001,-0.0493621826171875,0.5114898681640625,-0.8494720458984375,1,0.83
2020-05-19 10:04:21.099 -0400,1589897060.000215,41.35199171615916,-71.84496684422746,15.44075,0,-1,3.515123681101292,4.633405069638282,-9999,63875.07518675,-0.0839691162109375,0.5206451416015625,-0.837646484375,1,0.83
2020-05-19 10:04:21.149 -0400,1589897060.000215,41.35199171615916,-71.84496684422746,15.44075,0,-1,3.515123681101292,4.633405069638282,-9999,63875.12507575,-0.075408935546875,0.5105743408203125,-0.84912109375,1,0.83
2020-05-19 10:04:21.199 -0400,1589897060.000215,41.35199171615916,-71.84496684422746,15.44075,0,-1,3.515123681101292,4.633405069638282,-9999,63875.17496475,-0.095458984375,0.5745086669921875,-0.8416595458984375,1,0.83
2020-05-19 10:04:21.249 -0400,1589897060.000215,41.35199171615916,-71.84496684422746,15.44075,0,-1,3.515123681101292,4.633405069638282,-9999,63875.22485075,-0.0763092041015625,0.5455322265625,-0.8386077880859375,1,0.83
2020-05-19 10:04:21.299 -0400,1589897060.000215,41.35199171615916,-71.84496684422746,15.44075,0,-1,3.515123681101292,4.633405069638282,-9999,63875.27473575,-0.0693511962890625,0.5501251220703125,-0.8433990478515625,1,0.83
2020-05-19 10:04:21.349 -0400,1589897061.000216,41.35199108492928,-71.84496936879145,15.74774,0,-1,3.514321634422532,4.634013431424059,-9999,63875.32462275001,-0.068878173828125,0.5430450439453125,-0.8296661376953125,1,0.83
2020-05-19 10:04:21.399 -0400,1589897061.000216,41.35199108492928,-71.84496936879145,15.74774,0,-1,3.514321634422532,4.634013431424059,-9999,63875.37451075001,-0.0741119384765625,0.605804443359375,-0.792694091796875,1,0.83
2020-05-19 10:04:21.449 -0400,1589897061.000216,41.35199108492928,-71.84496936879145,15.74774,0,-1,3.514321634422532,4.634013431424059,-9999,63875.42440075,-0.0824432373046875,0.5387725830078125,-0.8387908935546875,1,0.83
2020-05-19 10:04:21.498 -0400,1589897061.000216,41.35199108492928,-71.84496936879145,15.74774,0,-1,3.514321634422532,4.634013431424059,-9999,63875.47428875,-0.08953857421875,0.56243896484375,-0.8235626220703125,1,0.83
2020-05-19 10:04:21.548 -0400,1589897061.000216,41.35199108492928,-71.84496936879145,15.74774,0,-1,3.514321634422532,4.634013431424059,-9999,63875.52417675,-0.053497314453125,0.5859832763671875,-0.84912109375,1,0.83
2020-05-19 10:04:21.598 -0400,1589897061.000216,41.35199108492928,-71.84496936879145,15.74774,0,-1,3.514321634422532,4.634013431424059,-9999,63875.57406275001,-0.0701751708984375,0.55718994140625,-0.81817626953125,1,0.83
2020-05-19 10:04:21.648 -0400,1589897061.000216,41.35199108492928,-71.84496936879145,15.74774,0,-1,3.514321634422532,4.634013431424059,-9999,63875.62394875001,-0.0735015869140625,0.5849151611328125,-0.8126373291015625,1,0.83
2020-05-19 10:04:21.698 -0400,1589897061.000216,41.35199108492928,-71.84496936879145,15.74774,0,-1,3.514321634422532,4.634013431424059,-9999,63875.67383625,-0.0856475830078125,0.591827392578125,-0.7888031005859375,1,0.83
2020-05-19 10:04:21.748 -0400,1589897061.000216,41.35199108492928,-71.84496936879145,15.74774,0,-1,3.514321634422532,4.634013431424059,-9999,63875.72372125,-0.081207275390625,0.56732177734375,-0.7834320068359375,1,0.83
2020-05-19 10:04:21.798 -0400,1589897061.000216,41.35199108492928,-71.84496936879145,15.74774,0,-1,3.514321634422532,4.634013431424059,-9999,63875.77360625,-0.09063720703125,0.6368408203125,-0.804107666015625,1,0.83
2020-05-19 10:04:21.848 -0400,1589897061.000216,41.35199108492928,-71.84496936879145,15.74774,0,-1,3.514321634422532,4.634013431424059,-9999,63875.82349425001,-0.0561065673828125,0.6096343994140625,-0.8168487548828125,1,0.83
2020-05-19 10:04:21.898 -0400,1589897061.000216,41.35199108492928,-71.84496936879145,15.74774,0,-1,3.514321634422532,4.634013431424059,-9999,63875.87338125001,-0.056854248046875,0.5750579833984375,-0.8118438720703125,1,0.83
2020-05-19 10:04:21.948 -0400,1589897061.000216,41.35199108492928,-71.84496936879145,15.74774,0,-1,3.514321634422532,4.634013431424059,-9999,63875.92326725001,-0.0828399658203125,0.5797271728515625,-0.7963409423828125,1,0.83
2020-05-19 10:04:21.997 -0400,1589897061.000216,41.35199108492928,-71.84496936879145,15.74774,0,-1,3.514321634422532,4.634013431424059,-9999,63875.97315525,-0.07855224609375,0.5988922119140625,-0.80279541015625,1,0.83
2020-05-19 10:04:22.047 -0400,1589897061.000216,41.35199108492928,-71.84496936879145,15.74774,0,-1,3.514321634422532,4.634013431424059,-9999,63876.02304325,-0.071685791015625,0.6120758056640625,-0.788848876953125,1,0.83
2020-05-19 10:04:22.097 -0400,1589897061.000216,41.35199108492928,-71.84496936879145,15.74774,0,-1,3.514321634422532,4.634013431424059,-9999,63876.07293425001,-0.0705413818359375,0.593170166015625,-0.804351806640625,1,0.83
2020-05-19 10:04:22.147 -0400,1589897061.000216,41.35199108492928,-71.84496936879145,15.74774,0,-1,3.514321634422532,4.634013431424059,-9999,63876.12281925001,-0.0634307861328125,0.5706329345703125,-0.824676513671875,1,0.83
2020-05-19 10:04:22.197 -0400,1589897061.000216,41.35199108492928,-71.84496936879145,15.74774,0,-1,3.514321634422532,4.634013431424059,-9999,63876.17270325001,-0.0643310546875,0.5843963623046875,-0.8111114501953125,1,0.83
2020-05-19 10:04:22.247 -0400,1589897061.000216,41.35199108492928,-71.84496936879145,15.74774,0,-1,3.514321634422532,4.634013431424059,-9999,63876.22258625001,-0.0680694580078125,0.562713623046875,-0.8361053466796875,1,0.83
2020-05-19 10:04:22.297 -0400,1589897061.000216,41.35199108492928,-71.84496936879145,15.74774,0,-1,3.514321634422532,4.634013431424059,-9999,63876.27246825,-0.0876617431640625,0.5762176513671875,-0.7839508056640625,1,0.83
2020-05-19 10:04:22.347 -0400,1589897062.00022,41.35199188647749,-71.8449704809648,16.33393,0,-1,3.521698319649912,4.628409875774166,-9999,63876.32235025,-0.0772857666015625,0.51324462890625,-0.8360443115234375,1,0.83
2020-05-19 10:04:22.396 -0400,1589897062.00022,41.35199188647749,-71.8449704809648,16.33393,0,-1,3.521698319649912,4.628409875774166,-9999,63876.37223525,-0.0650177001953125,0.5556793212890625,-0.8350982666015625,1,0.83
2020-05-19 10:04:22.446 -0400,1589897062.00022,41.35199188647749,-71.8449704809648,16.33393,0,-1,3.521698319649912,4.628409875774166,-9999,63876.42211825,-0.0575714111328125,0.5439300537109375,-0.8089141845703125,1,0.83
2020-05-19 10:04:22.496 -0400,1589897062.00022,41.35199188647749,-71.8449704809648,16.33393,0,-1,3.521698319649912,4.628409875774166,-9999,63876.47200225,-0.077789306640625,0.524169921875,-0.8410797119140625,1,0.83
2020-05-19 10:04:22.546 -0400,1589897062.00022,41.35199188647749,-71.8449704809648,16.33393,0,-1,3.521698319649912,4.628409875774166,-9999,63876.52188625,-0.0612335205078125,0.51641845703125,-0.841796875,1,0.83
2020-05-19 10:04:22.596 -0400,1589897062.00022,41.35199188647749,-71.8449704809648,16.33393,0,-1,3.521698319649912,4.628409875774166,-9999,63876.57177225,-0.0626068115234375,0.585174560546875,-0.823699951171875,1,0.83
2020-05-19 10:04:22.646 -0400,1589897062.00022,41.35199188647749,-71.8449704809648,16.33393,0,-1,3.521698319649912,4.628409875774166,-9999,63876.62165825001,-0.077239990234375,0.5875701904296875,-0.807281494140625,1,0.83
2020-05-19 10:04:22.696 -0400,1589897062.00022,41.35199188647749,-71.8449704809648,16.33393,0,-1,3.521698319649912,4.628409875774166,-9999,63876.67154037501,-0.0703125,0.5545654296875,-0.8291473388671875,1,0.83
2020-05-19 10:04:22.746 -0400,1589897062.00022,41.35199188647749,-71.8449704809648,16.33393,0,-1,3.521698319649912,4.628409875774166,-9999,63876.72142337501,-0.062835693359375,0.5679931640625,-0.824615478515625,1,0.83
2020-05-19 10:04:22.795 -0400,1589897062.00022,41.35199188647749,-71.8449704809648,16.33393,0,-1,3.521698319649912,4.628409875774166,-9999,63876.77130737501,-0.0576629638671875,0.564849853515625,-0.814178466796875,1,0.83
2020-05-19 10:04:22.845 -0400,1589897062.00022,41.35199188647749,-71.8449704809648,16.33393,0,-1,3.521698319649912,4.628409875774166,-9999,63876.821187375,-0.0594329833984375,0.5673675537109375,-0.8308868408203125,1,0.83
2020-05-19 10:04:22.895 -0400,1589897062.00022,41.35199188647749,-71.8449704809648,16.33393,0,-1,3.521698319649912,4.628409875774166,-9999,63876.871068375,-0.06884765625,0.5787506103515625,-0.815399169921875,1,0.83
2020-05-19 10:04:22.945 -0400,1589897062.00022,41.35199188647749,-71.8449704809648,16.33393,0,-1,3.521698319649912,4.628409875774166,-9999,63876.920949375,-0.0626220703125,0.56744384765625,-0.820556640625,1,0.83
2020-05-19 10:04:22.995 -0400,1589897062.00022,41.35199188647749,-71.8449704809648,16.33393,0,-1,3.521698319649912,4.628409875774166,-9999,63876.970830375,-0.0583953857421875,0.570648193359375,-0.8194427490234375,1,0.83
2020-05-19 10:04:23.051 -0400,1589897062.00022,41.35199188647749,-71.8449704809648,16.33393,0,-1,3.521698319649912,4.628409875774166,-9999,63877.020714375,-0.0641326904296875,0.58551025390625,-0.8096923828125,1,0.83
2020-05-19 10:04:23.095 -0400,1589897062.00022,41.35199188647749,-71.8449704809648,16.33393,0,-1,3.521698319649912,4.628409875774166,-9999,63877.070600375,-0.0604095458984375,0.6317291259765625,-0.8065643310546875,1,0.83
2020-05-19 10:04:23.145 -0400,1589897062.00022,41.35199188647749,-71.8449704809648,16.33393,0,-1,3.521698319649912,4.628409875774166,-9999,63877.120484375,-0.0789337158203125,0.538665771484375,-0.833709716796875,1,0.83
2020-05-19 10:04:23.195 -0400,1589897062.00022,41.35199188647749,-71.8449704809648,16.33393,0,-1,3.521698319649912,4.628409875774166,-9999,63877.170367375,-0.06268310546875,0.5914154052734375,-0.82867431640625,1,0.83
2020-05-19 10:04:23.245 -0400,1589897063.000222,41.35199211747393,-71.84497106470263,16.57587,0,-1,3.526382418163504,4.624842059320097,-9999,63877.220248375,-0.0505828857421875,0.5898284912109375,-0.80206298828125,1,0.83
2020-05-19 10:04:23.294 -0400,1589897063.000222,41.35199211747393,-71.84497106470263,16.57587,0,-1,3.526382418163504,4.624842059320097,-9999,63877.270132375,-0.0571136474609375,0.62030029296875,-0.796630859375,1,0.83
2020-05-19 10:04:23.344 -0400,1589897063.000222,41.35199211747393,-71.84497106470263,16.57587,0,-1,3.526382418163504,4.624842059320097,-9999,63877.32001437501,-0.0697174072265625,0.637054443359375,-0.7791748046875,1,0.83
2020-05-19 10:04:23.394 -0400,1589897063.000222,41.35199211747393,-71.84497106470263,16.57587,0,-1,3.526382418163504,4.624842059320097,-9999,63877.369900375,-0.056732177734375,0.59088134765625,-0.7939300537109375,1,0.83
2020-05-19 10:04:23.444 -0400,1589897063.000222,41.35199211747393,-71.84497106470263,16.57587,0,-1,3.526382418163504,4.624842059320097,-9999,63877.419789375,-0.0589599609375,0.6296234130859375,-0.7996368408203125,1,0.83
2020-05-19 10:04:23.494 -0400,1589897063.000222,41.35199211747393,-71.84497106470263,16.57587,0,-1,3.526382418163504,4.624842059320097,-9999,63877.469678375,-0.0496826171875,0.625244140625,-0.847869873046875,1,0.83
2020-05-19 10:04:23.544 -0400,1589897063.000222,41.35199211747393,-71.84497106470263,16.57587,0,-1,3.526382418163504,4.624842059320097,-9999,63877.51956537501,-0.061798095703125,0.6045379638671875,-0.83062744140625,1,0.83
2020-05-19 10:04:23.594 -0400,1589897063.000222,41.35199211747393,-71.84497106470263,16.57587,0,-1,3.526382418163504,4.624842059320097,-9999,63877.56945137501,-0.051605224609375,0.5569000244140625,-0.818206787109375,1,0.83
2020-05-19 10:04:23.643 -0400,1589897063.000222,41.35199211747393,-71.84497106470263,16.57587,0,-1,3.526382418163504,4.624842059320097,-9999,63877.61933537501,-0.0525054931640625,0.5596923828125,-0.832672119140625,1,0.83
2020-05-19 10:04:23.693 -0400,1589897063.000222,41.35199211747393,-71.84497106470263,16.57587,0,-1,3.526382418163504,4.624842059320097,-9999,63877.66922254167,-0.09991455078125,0.5092315673828125,-0.849853515625,1,0.83
2020-05-19 10:04:23.743 -0400,1589897063.000222,41.35199211747393,-71.84497106470263,16.57587,0,-1,3.526382418163504,4.624842059320097,-9999,63877.71910654167,-0.111419677734375,0.5090179443359375,-0.7835845947265625,1,0.83
2020-05-19 10:04:23.793 -0400,1589897063.000222,41.35199211747393,-71.84497106470263,16.57587,0,-1,3.526382418163504,4.624842059320097,-9999,63877.76898754167,-0.109283447265625,0.6009063720703125,-0.8089447021484375,1,0.83
2020-05-19 10:04:23.843 -0400,1589897063.000222,41.35199211747393,-71.84497106470263,16.57587,0,-1,3.526382418163504,4.624842059320097,-9999,63877.81887554167,-0.1280059814453125,0.4382781982421875,-0.8118743896484375,1,0.83
2020-05-19 10:04:23.893 -0400,1589897063.000222,41.35199211747393,-71.84497106470263,16.57587,0,-1,3.526382418163504,4.624842059320097,-9999,63877.86876154167,-0.1067962646484375,0.5836029052734375,-0.815032958984375,1,0.83
2020-05-19 10:04:23.943 -0400,1589897063.000222,41.35199211747393,-71.84497106470263,16.57587,0,-1,3.526382418163504,4.624842059320097,-9999,63877.91864754167,-0.1472320556640625,0.6126556396484375,-0.7451629638671875,1,0.83
2020-05-19 10:04:23.993 -0400,1589897063.000222,41.35199211747393,-71.84497106470263,16.57587,0,-1,3.526382418163504,4.624842059320097,-9999,63877.96853054167,-0.1322479248046875,0.544281005859375,-0.7569427490234375,1,0.83
2020-05-19 10:04:24.050 -0400,1589897063.000222,41.35199211747393,-71.84497106470263,16.57587,0,-1,3.526382418163504,4.624842059320097,-9999,63878.01841554167,-0.1275787353515625,0.5658721923828125,-0.80157470703125,1,0.83
2020-05-19 10:04:24.093 -0400,1589897063.000222,41.35199211747393,-71.84497106470263,16.57587,0,-1,3.526382418163504,4.624842059320097,-9999,63878.06830054167,-0.074798583984375,0.5475616455078125,-0.89208984375,1,0.83
2020-05-19 10:04:24.142 -0400,1589897063.000222,41.35199211747393,-71.84497106470263,16.57587,0,-1,3.526382418163504,4.624842059320097,-9999,63878.11818554167,-0.0742034912109375,0.5622100830078125,-0.8800201416015625,1,0.83
2020-05-19 10:04:24.192 -0400,1589897063.000222,41.35199211747393,-71.84497106470263,16.57587,0,-1,3.526382418163504,4.624842059320097,-9999,63878.16807054167,-0.03826904296875,0.53533935546875,-0.8921051025390625,1,0.83
2020-05-19 10:04:24.242 -0400,1589897063.000222,41.35199211747393,-71.84497106470263,16.57587,0,-1,3.526382418163504,4.624842059320097,-9999,63878.21795854167,-0.0716400146484375,0.525848388671875,-0.84002685546875,1,0.83
2020-05-19 10:04:24.292 -0400,1589897064.000226,41.35199487207878,-71.84496935488647,14.8354,0.6195472,-1,3.527380220319093,4.624081077802429,-9999,63878.26784454167,-0.083831787109375,0.4858551025390625,-0.838592529296875,1,0.83
2020-05-19 10:04:24.342 -0400,1589897064.000226,41.35199487207878,-71.84496935488647,14.8354,0.6195472,-1,3.527380220319093,4.624081077802429,-9999,63878.31772854167,-0.0778961181640625,0.5303802490234375,-0.8524627685546875,1,0.83
2020-05-19 10:04:24.392 -0400,1589897064.000226,41.35199487207878,-71.84496935488647,14.8354,0.6195472,-1,3.527380220319093,4.624081077802429,-9999,63878.36761554167,-0.0727081298828125,0.556854248046875,-0.8397674560546875,1,0.83
2020-05-19 10:04:24.442 -0400,1589897064.000226,41.35199487207878,-71.84496935488647,14.8354,0.6195472,-1,3.527380220319093,4.624081077802429,-9999,63878.41749754167,-0.0721588134765625,0.5394134521484375,-0.8366241455078125,1,0.83
2020-05-19 10:04:24.492 -0400,1589897064.000226,41.35199487207878,-71.84496935488647,14.8354,0.6195472,-1,3.527380220319093,4.624081077802429,-9999,63878.46737954167,-0.0737762451171875,0.5470428466796875,-0.8522491455078125,1,0.83
2020-05-19 10:04:24.541 -0400,1589897064.000226,41.35199487207878,-71.84496935488647,14.8354,0.6195472,-1,3.527380220319093,4.624081077802429,-9999,63878.51726454167,-0.0837554931640625,0.545074462890625,-0.8394317626953125,1,0.83
2020-05-19 10:04:24.592 -0400,1589897064.000226,41.35199487207878,-71.84496935488647,14.8354,0.6195472,-1,3.527380220319093,4.624081077802429,-9999,63878.56714954167,-0.0839385986328125,0.5471954345703125,-0.8318328857421875,1,0.83
2020-05-19 10:04:24.641 -0400,1589897064.000226,41.35199487207878,-71.84496935488647,14.8354,0.6195472,-1,3.527380220319093,4.624081077802429,-9999,63878.61703154167,-0.07159423828125,0.5575103759765625,-0.8356170654296875,1,0.83
2020-05-19 10:04:24.691 -0400,1589897064.000226,41.35199487207878,-71.84496935488647,14.8354,0.6195472,-1,3.527380220319093,4.624081077802429,-9999,63878.666916,-0.079071044921875,0.54473876953125,-0.8351898193359375,1,0.83
2020-05-19 10:04:24.741 -0400,1589897064.000226,41.35199487207878,-71.84496935488647,14.8354,0.6195472,-1,3.527380220319093,4.624081077802429,-9999,63878.716801,-0.08135986328125,0.558013916015625,-0.8311614990234375,1,0.83
2020-05-19 10:04:24.791 -0400,1589897064.000226,41.35199487207878,-71.84496935488647,14.8354,0.6195472,-1,3.527380220319093,4.624081077802429,-9999,63878.766687,-0.0825042724609375,0.5389404296875,-0.8278961181640625,1,0.83
2020-05-19 10:04:24.841 -0400,1589897064.000226,41.35199487207878,-71.84496935488647,14.8354,0.6195472,-1,3.527380220319093,4.624081077802429,-9999,63878.81657,-0.0806121826171875,0.5294189453125,-0.825927734375,1,0.83
2020-05-19 10:04:24.891 -0400,1589897064.000226,41.35199487207878,-71.84496935488647,14.8354,0.6195472,-1,3.527380220319093,4.624081077802429,-9999,63878.866453,-0.0844573974609375,0.55810546875,-0.835174560546875,1,0.83
2020-05-19 10:04:24.941 -0400,1589897064.000226,41.35199487207878,-71.84496935488647,14.8354,0.6195472,-1,3.527380220319093,4.624081077802429,-9999,63878.916336,-0.0732879638671875,0.5500030517578125,-0.8303375244140625,1,0.83
2020-05-19 10:04:24.990 -0400,1589897064.000226,41.35199487207878,-71.84496935488647,14.8354,0.6195472,-1,3.527380220319093,4.624081077802429,-9999,63878.966221,-0.08837890625,0.5370635986328125,-0.8365020751953125,1,0.83
2020-05-19 10:04:25.048 -0400,1589897064.000226,41.35199487207878,-71.84496935488647,14.8354,0.6195472,-1,3.527380220319093,4.624081077802429,-9999,63879.016107,-0.095245361328125,0.5797576904296875,-0.8197784423828125,1,0.83
2020-05-19 10:04:25.090 -0400,1589897064.000226,41.35199487207878,-71.84496935488647,14.8354,0.6195472,-1,3.527380220319093,4.624081077802429,-9999,63879.065993,-0.0779571533203125,0.5885467529296875,-0.8106842041015625,1,0.83
2020-05-19 10:04:25.140 -0400,1589897064.000226,41.35199487207878,-71.84496935488647,14.8354,0.6195472,-1,3.527380220319093,4.624081077802429,-9999,63879.115878,-0.0772247314453125,0.574798583984375,-0.8209075927734375,1,0.83
2020-05-19 10:04:25.190 -0400,1589897064.000226,41.35199487207878,-71.84496935488647,14.8354,0.6195472,-1,3.527380220319093,4.624081077802429,-9999,63879.165763,-0.0737457275390625,0.56158447265625,-0.8289947509765625,1,0.83
2020-05-19 10:04:25.240 -0400,1589897065.000228,41.35199674127789,-71.84496794085601,12.86245,1.320328,-1,3.52932401268836,4.62259765134823,-9999,63879.215647,-0.0839996337890625,0.57861328125,-0.8193817138671875,1,0.83
2020-05-19 10:04:25.290 -0400,1589897065.000228,41.35199674127789,-71.84496794085601,12.86245,1.320328,-1,3.52932401268836,4.62259765134823,-9999,63879.26553,-0.086944580078125,0.5519256591796875,-0.8218231201171875,1,0.83
2020-05-19 10:04:25.340 -0400,1589897065.000228,41.35199674127789,-71.84496794085601,12.86245,1.320328,-1,3.52932401268836,4.62259765134823,-9999,63879.31541800001,-0.07647705078125,0.55450439453125,-0.8355712890625,1,0.83
2020-05-19 10:04:25.389 -0400,1589897065.000228,41.35199674127789,-71.84496794085601,12.86245,1.320328,-1,3.52932401268836,4.62259765134823,-9999,63879.36530400001,-0.075653076171875,0.5591888427734375,-0.8163909912109375,1,0.83
2020-05-19 10:04:25.439 -0400,1589897065.000228,41.35199674127789,-71.84496794085601,12.86245,1.320328,-1,3.52932401268836,4.62259765134823,-9999,63879.41518800001,-0.063720703125,0.5438385009765625,-0.820648193359375,1,0.83
2020-05-19 10:04:25.489 -0400,1589897065.000228,41.35199674127789,-71.84496794085601,12.86245,1.320328,-1,3.52932401268836,4.62259765134823,-9999,63879.46507400001,-0.0500946044921875,0.5102386474609375,-0.857513427734375,1,0.83
2020-05-19 10:04:25.539 -0400,1589897065.000228,41.35199674127789,-71.84496794085601,12.86245,1.320328,-1,3.52932401268836,4.62259765134823,-9999,63879.514961,-0.0689544677734375,0.5899505615234375,-0.84014892578125,1,0.83
2020-05-19 10:04:25.589 -0400,1589897065.000228,41.35199674127789,-71.84496794085601,12.86245,1.320328,-1,3.52932401268836,4.62259765134823,-9999,63879.564846,-0.0750579833984375,0.5972442626953125,-0.8282623291015625,1,0.83
2020-05-19 10:04:25.639 -0400,1589897065.000228,41.35199674127789,-71.84496794085601,12.86245,1.320328,-1,3.52932401268836,4.62259765134823,-9999,63879.614731,-0.0643157958984375,0.581878662109375,-0.8330078125,1,0.83
2020-05-19 10:04:25.689 -0400,1589897065.000228,41.35199674127789,-71.84496794085601,12.86245,1.320328,-1,3.52932401268836,4.62259765134823,-9999,63879.66461504167,-0.076263427734375,0.5539398193359375,-0.84716796875,1,0.83
2020-05-19 10:04:25.739 -0400,1589897065.000228,41.35199674127789,-71.84496794085601,12.86245,1.320328,-1,3.52932401268836,4.62259765134823,-9999,63879.71450004167,-0.067169189453125,0.5186614990234375,-0.842926025390625,1,0.83
2020-05-19 10:04:25.789 -0400,1589897065.000228,41.35199674127789,-71.84496794085601,12.86245,1.320328,-1,3.52932401268836,4.62259765134823,-9999,63879.76438604167,-0.0625457763671875,0.52154541015625,-0.8364105224609375,1,0.83
2020-05-19 10:04:25.838 -0400,1589897065.000228,41.35199674127789,-71.84496794085601,12.86245,1.320328,-1,3.52932401268836,4.62259765134823,-9999,63879.81427504167,-0.0400543212890625,0.5504608154296875,-0.8359375,1,0.83
2020-05-19 10:04:25.888 -0400,1589897065.000228,41.35199674127789,-71.84496794085601,12.86245,1.320328,-1,3.52932401268836,4.62259765134823,-9999,63879.86416204167,-0.06524658203125,0.5714569091796875,-0.85943603515625,1,0.83
2020-05-19 10:04:25.938 -0400,1589897065.000228,41.35199674127789,-71.84496794085601,12.86245,1.320328,-1,3.52932401268836,4.62259765134823,-9999,63879.91404704167,-0.0951080322265625,0.552642822265625,-0.8267364501953125,1,0.83
2020-05-19 10:04:25.988 -0400,1589897065.000228,41.35199674127789,-71.84496794085601,12.86245,1.320328,-1,3.52932401268836,4.62259765134823,-9999,63879.96393204167,-0.084564208984375,0.5485687255859375,-0.8130035400390625,1,0.83
2020-05-19 10:04:26.042 -0400,1589897065.000228,41.35199674127789,-71.84496794085601,12.86245,1.320328,-1,3.52932401268836,4.62259765134823,-9999,63880.01381804167,-0.0997772216796875,0.58148193359375,-0.914306640625,1,0.83
2020-05-19 10:04:26.088 -0400,1589897065.000228,41.35199674127789,-71.84496794085601,12.86245,1.320328,-1,3.52932401268836,4.62259765134823,-9999,63880.06370604167,-0.1152496337890625,0.60455322265625,-0.9700164794921875,1,0.83
2020-05-19 10:04:26.138 -0400,1589897065.000228,41.35199674127789,-71.84496794085601,12.86245,1.320328,-1,3.52932401268836,4.62259765134823,-9999,63880.11359604167,-0.0993499755859375,0.6134490966796875,-0.9324493408203125,1,0.83
2020-05-19 10:04:26.188 -0400,1589897065.000228,41.35199674127789,-71.84496794085601,12.86245,1.320328,-1,3.52932401268836,4.62259765134823,-9999,63880.16348504167,-0.148345947265625,0.439453125,-0.856353759765625,1,0.83
2020-05-19 10:04:26.238 -0400,1589897066.000231,41.35199739754211,-71.84496938814326,12.47708,1.110867,-1,3.563253851952038,4.59649420964911,-9999,63880.21337004167,-0.1173858642578125,0.4898529052734375,-0.8832855224609375,1,0.83
2020-05-19 10:04:26.288 -0400,1589897066.000231,41.35199739754211,-71.84496938814326,12.47708,1.110867,-1,3.563253851952038,4.59649420964911,-9999,63880.26325704167,-0.1178741455078125,0.352508544921875,-0.694549560546875,1,0.83
2020-05-19 10:04:26.337 -0400,1589897066.000231,41.35199739754211,-71.84496938814326,12.47708,1.110867,-1,3.563253851952038,4.59649420964911,-9999,63880.31314404167,-0.1048736572265625,0.65020751953125,-0.8515625,1,0.83
2020-05-19 10:04:26.387 -0400,1589897066.000231,41.35199739754211,-71.84496938814326,12.47708,1.110867,-1,3.563253851952038,4.59649420964911,-9999,63880.36303004167,-0.1223602294921875,0.544952392578125,-0.880035400390625,1,0.83
2020-05-19 10:04:26.437 -0400,1589897066.000231,41.35199739754211,-71.84496938814326,12.47708,1.110867,-1,3.563253851952038,4.59649420964911,-9999,63880.41291804167,-0.1351470947265625,0.4654693603515625,-0.8690032958984375,1,0.83
2020-05-19 10:04:26.487 -0400,1589897066.000231,41.35199739754211,-71.84496938814326,12.47708,1.110867,-1,3.563253851952038,4.59649420964911,-9999,63880.46280304167,-0.144866943359375,0.5586700439453125,-0.8072357177734375,1,0.83
2020-05-19 10:04:26.537 -0400,1589897066.000231,41.35199739754211,-71.84496938814326,12.47708,1.110867,-1,3.563253851952038,4.59649420964911,-9999,63880.51268904167,-0.15185546875,0.5236663818359375,-0.7973480224609375,1,0.83
2020-05-19 10:04:26.587 -0400,1589897066.000231,41.35199739754211,-71.84496938814326,12.47708,1.110867,-1,3.563253851952038,4.59649420964911,-9999,63880.56257504167,-0.135101318359375,0.491607666015625,-0.837066650390625,1,0.83
2020-05-19 10:04:26.637 -0400,1589897066.000231,41.35199739754211,-71.84496938814326,12.47708,1.110867,-1,3.563253851952038,4.59649420964911,-9999,63880.61246104167,-0.11883544921875,0.518218994140625,-0.8527984619140625,1,0.83
2020-05-19 10:04:26.687 -0400,1589897066.000231,41.35199739754211,-71.84496938814326,12.47708,1.110867,-1,3.563253851952038,4.59649420964911,-9999,63880.66235004167,-0.13067626953125,0.535369873046875,-0.8610687255859375,1,0.83
2020-05-19 10:04:26.736 -0400,1589897066.000231,41.35199739754211,-71.84496938814326,12.47708,1.110867,-1,3.563253851952038,4.59649420964911,-9999,63880.71224250001,-0.136871337890625,0.519805908203125,-0.8935089111328125,1,0.83
2020-05-19 10:04:26.786 -0400,1589897066.000231,41.35199739754211,-71.84496938814326,12.47708,1.110867,-1,3.563253851952038,4.59649420964911,-9999,63880.76213050001,-0.12762451171875,0.5393524169921875,-0.85052490234375,1,0.83
2020-05-19 10:04:26.836 -0400,1589897066.000231,41.35199739754211,-71.84496938814326,12.47708,1.110867,-1,3.563253851952038,4.59649420964911,-9999,63880.8120215,-0.0838470458984375,0.567840576171875,-0.85125732421875,1,0.83
2020-05-19 10:04:26.886 -0400,1589897066.000231,41.35199739754211,-71.84496938814326,12.47708,1.110867,-1,3.563253851952038,4.59649420964911,-9999,63880.8619105,-0.1270294189453125,0.540191650390625,-0.8535614013671875,1,0.83
2020-05-19 10:04:26.936 -0400,1589897066.000231,41.35199739754211,-71.84496938814326,12.47708,1.110867,-1,3.563253851952038,4.59649420964911,-9999,63880.91180050001,-0.154052734375,0.5258331298828125,-0.826019287109375,1,0.83
2020-05-19 10:04:26.986 -0400,1589897066.000231,41.35199739754211,-71.84496938814326,12.47708,1.110867,-1,3.563253851952038,4.59649420964911,-9999,63880.96168850001,-0.148956298828125,0.4335784912109375,-0.8327484130859375,1,0.83
2020-05-19 10:04:27.047 -0400,1589897066.000231,41.35199739754211,-71.84496938814326,12.47708,1.110867,-1,3.563253851952038,4.59649420964911,-9999,63881.0115775,-0.1306304931640625,0.4420318603515625,-0.8234405517578125,1,0.83
2020-05-19 10:04:27.085 -0400,1589897066.000231,41.35199739754211,-71.84496938814326,12.47708,1.110867,-1,3.563253851952038,4.59649420964911,-9999,63881.0614645,-0.110687255859375,0.4979400634765625,-0.905303955078125,1,0.83
2020-05-19 10:04:27.136 -0400,1589897066.000231,41.35199739754211,-71.84496938814326,12.47708,1.110867,-1,3.563253851952038,4.59649420964911,-9999,63881.1113515,-0.1405181884765625,0.4543609619140625,-0.9073944091796875,1,0.83
2020-05-19 10:04:27.185 -0400,1589897066.000231,41.35199739754211,-71.84496938814326,12.47708,1.110867,-1,3.563253851952038,4.59649420964911,-9999,63881.1612375,-0.1313323974609375,0.47344970703125,-0.9523162841796875,1,0.83
2020-05-19 10:04:27.236 -0400,1589897067.000234,41.35199912497729,-71.84496937426994,12.50953,0.7346002,-1,3.616427311905121,4.554776671857308,-9999,63881.21112550001,-0.151611328125,0.380584716796875,-0.8721160888671875,1,0.83
2020-05-19 10:04:27.285 -0400,1589897067.000234,41.35199912497729,-71.84496937426994,12.50953,0.7346002,-1,3.616427311905121,4.554776671857308,-9999,63881.2610165,-0.1796112060546875,0.394866943359375,-0.7816009521484375,1,0.83
2020-05-19 10:04:27.335 -0400,1589897067.000234,41.35199912497729,-71.84496937426994,12.50953,0.7346002,-1,3.616427311905121,4.554776671857308,-9999,63881.3109055,-0.116668701171875,0.3530731201171875,-0.847625732421875,1,0.83
2020-05-19 10:04:27.385 -0400,1589897067.000234,41.35199912497729,-71.84496937426994,12.50953,0.7346002,-1,3.616427311905121,4.554776671857308,-9999,63881.3607945,-0.080291748046875,0.3439788818359375,-1.003372192382812,1,0.83
2020-05-19 10:04:27.435 -0400,1589897067.000234,41.35199912497729,-71.84496937426994,12.50953,0.7346002,-1,3.616427311905121,4.554776671857308,-9999,63881.41068150001,-0.07757568359375,0.189544677734375,-1.02996826171875,1,0.83
2020-05-19 10:04:27.485 -0400,1589897067.000234,41.35199912497729,-71.84496937426994,12.50953,0.7346002,-1,3.616427311905121,4.554776671857308,-9999,63881.46056550001,-0.0799407958984375,0.2952117919921875,-1.002212524414062,1,0.83
2020-05-19 10:04:27.535 -0400,1589897067.000234,41.35199912497729,-71.84496937426994,12.50953,0.7346002,-1,3.616427311905121,4.554776671857308,-9999,63881.5104475,-0.11639404296875,0.3473358154296875,-0.9329681396484375,1,0.83
2020-05-19 10:04:27.585 -0400,1589897067.000234,41.35199912497729,-71.84496937426994,12.50953,0.7346002,-1,3.616427311905121,4.554776671857308,-9999,63881.5603305,-0.1388702392578125,0.265777587890625,-0.9008636474609375,1,0.83
2020-05-19 10:04:27.635 -0400,1589897067.000234,41.35199912497729,-71.84496937426994,12.50953,0.7346002,-1,3.616427311905121,4.554776671857308,-9999,63881.6102145,-0.102142333984375,0.2837066650390625,-0.984466552734375,1,0.83
2020-05-19 10:04:27.684 -0400,1589897067.000234,41.35199912497729,-71.84496937426994,12.50953,0.7346002,-1,3.616427311905121,4.554776671857308,-9999,63881.6600975,-0.0850067138671875,0.2731475830078125,-0.9491424560546875,1,0.83
2020-05-19 10:04:27.734 -0400,1589897067.000234,41.35199912497729,-71.84496937426994,12.50953,0.7346002,-1,3.616427311905121,4.554776671857308,-9999,63881.70998462501,-0.086334228515625,0.288360595703125,-0.9599456787109375,1,0.83
2020-05-19 10:04:27.784 -0400,1589897067.000234,41.35199912497729,-71.84496937426994,12.50953,0.7346002,-1,3.616427311905121,4.554776671857308,-9999,63881.75987062501,-0.0897979736328125,0.2908172607421875,-0.9392852783203125,1,0.83
2020-05-19 10:04:27.834 -0400,1589897067.000234,41.35199912497729,-71.84496937426994,12.50953,0.7346002,-1,3.616427311905121,4.554776671857308,-9999,63881.809758625,-0.0997772216796875,0.325714111328125,-0.94683837890625,1,0.83
2020-05-19 10:04:27.884 -0400,1589897067.000234,41.35199912497729,-71.84496937426994,12.50953,0.7346002,-1,3.616427311905121,4.554776671857308,-9999,63881.859644625,-0.091644287109375,0.3506622314453125,-0.948486328125,1,0.83
2020-05-19 10:04:27.934 -0400,1589897067.000234,41.35199912497729,-71.84496937426994,12.50953,0.7346002,-1,3.616427311905121,4.554776671857308,-9999,63881.909530625,-0.0977630615234375,0.347381591796875,-0.9413909912109375,1,0.83
2020-05-19 10:04:27.984 -0400,1589897067.000234,41.35199912497729,-71.84496937426994,12.50953,0.7346002,-1,3.616427311905121,4.554776671857308,-9999,63881.959417625,-0.0944671630859375,0.3160247802734375,-0.9375762939453125,1,0.83
2020-05-19 10:04:28.034 -0400,1589897067.000234,41.35199912497729,-71.84496937426994,12.50953,0.7346002,-1,3.616427311905121,4.554776671857308,-9999,63882.009302625,-0.0801544189453125,0.3355255126953125,-0.938995361328125,1,0.83
2020-05-19 10:04:28.083 -0400,1589897067.000234,41.35199912497729,-71.84496937426994,12.50953,0.7346002,-1,3.616427311905121,4.554776671857308,-9999,63882.059184625,-0.0943756103515625,0.3305511474609375,-0.9560089111328125,1,0.83
2020-05-19 10:04:28.133 -0400,1589897067.000234,41.35199912497729,-71.84496937426994,12.50953,0.7346002,-1,3.616427311905121,4.554776671857308,-9999,63882.109070625,-0.095703125,0.3282012939453125,-0.9344940185546875,1,0.83
2020-05-19 10:04:28.183 -0400,1589897067.000234,41.35199912497729,-71.84496937426994,12.50953,0.7346002,-1,3.616427311905121,4.554776671857308,-9999,63882.158955625,-0.094696044921875,0.332550048828125,-0.9308624267578125,1,0.83
2020-05-19 10:04:28.233 -0400,1589897067.000234,41.35199912497729,-71.84496937426994,12.50953,0.7346002,-1,3.616427311905121,4.554776671857308,-9999,63882.208839625,-0.0908966064453125,0.33892822265625,-0.946258544921875,1,0.83
2020-05-19 10:04:28.284 -0400,1589897068.000238,41.35200201314117,-71.84496923891179,11.09167,1.031721,-1,3.628091491165203,4.545491080678026,-9999,63882.258726625,-0.086212158203125,0.3142547607421875,-0.942108154296875,1,0.83
2020-05-19 10:04:28.333 -0400,1589897068.000238,41.35200201314117,-71.84496923891179,11.09167,1.031721,-1,3.628091491165203,4.545491080678026,-9999,63882.30861162501,-0.07818603515625,0.334442138671875,-0.9503326416015625,1,0.83
2020-05-19 10:04:28.383 -0400,1589897068.000238,41.35200201314117,-71.84496923891179,11.09167,1.031721,-1,3.628091491165203,4.545491080678026,-9999,63882.35849662501,-0.0924835205078125,0.33544921875,-0.939300537109375,1,0.83
2020-05-19 10:04:28.433 -0400,1589897068.000238,41.35200201314117,-71.84496923891179,11.09167,1.031721,-1,3.628091491165203,4.545491080678026,-9999,63882.40838262501,-0.0907440185546875,0.3473052978515625,-0.9421234130859375,1,0.83
2020-05-19 10:04:28.482 -0400,1589897068.000238,41.35200201314117,-71.84496923891179,11.09167,1.031721,-1,3.628091491165203,4.545491080678026,-9999,63882.45826762501,-0.083221435546875,0.33892822265625,-0.932281494140625,1,0.83
2020-05-19 10:04:28.532 -0400,1589897068.000238,41.35200201314117,-71.84496923891179,11.09167,1.031721,-1,3.628091491165203,4.545491080678026,-9999,63882.508154625,-0.0762176513671875,0.3321685791015625,-0.947479248046875,1,0.83
2020-05-19 10:04:28.582 -0400,1589897068.000238,41.35200201314117,-71.84496923891179,11.09167,1.031721,-1,3.628091491165203,4.545491080678026,-9999,63882.558043625,-0.0840606689453125,0.32855224609375,-0.948944091796875,1,0.83
2020-05-19 10:04:28.632 -0400,1589897068.000238,41.35200201314117,-71.84496923891179,11.09167,1.031721,-1,3.628091491165203,4.545491080678026,-9999,63882.607929625,-0.09765625,0.3195953369140625,-0.933258056640625,1,0.83
2020-05-19 10:04:28.682 -0400,1589897068.000238,41.35200201314117,-71.84496923891179,11.09167,1.031721,-1,3.628091491165203,4.545491080678026,-9999,63882.657816625,-0.092620849609375,0.408599853515625,-0.9250030517578125,1,0.83
2020-05-19 10:04:28.732 -0400,1589897068.000238,41.35200201314117,-71.84496923891179,11.09167,1.031721,-1,3.628091491165203,4.545491080678026,-9999,63882.707707,-0.1136932373046875,0.3099212646484375,-0.935089111328125,1,0.83
2020-05-19 10:04:28.782 -0400,1589897068.000238,41.35200201314117,-71.84496923891179,11.09167,1.031721,-1,3.628091491165203,4.545491080678026,-9999,63882.757597,-0.0949859619140625,0.2852783203125,-0.9365234375,1,0.83
2020-05-19 10:04:28.832 -0400,1589897068.000238,41.35200201314117,-71.84496923891179,11.09167,1.031721,-1,3.628091491165203,4.545491080678026,-9999,63882.807481,-0.07672119140625,0.3752593994140625,-0.9154052734375,1,0.83
2020-05-19 10:04:28.882 -0400,1589897068.000238,41.35200201314117,-71.84496923891179,11.09167,1.031721,-1,3.628091491165203,4.545491080678026,-9999,63882.857367,-0.091339111328125,0.423126220703125,-0.91015625,1,0.83
2020-05-19 10:04:28.932 -0400,1589897068.000238,41.35200201314117,-71.84496923891179,11.09167,1.031721,-1,3.628091491165203,4.545491080678026,-9999,63882.90725500001,-0.08099365234375,0.406829833984375,-0.94635009765625,1,0.83
2020-05-19 10:04:28.981 -0400,1589897068.000238,41.35200201314117,-71.84496923891179,11.09167,1.031721,-1,3.628091491165203,4.545491080678026,-9999,63882.95714000001,-0.0917205810546875,0.4418182373046875,-0.88336181640625,1,0.83
2020-05-19 10:04:29.044 -0400,1589897068.000238,41.35200201314117,-71.84496923891179,11.09167,1.031721,-1,3.628091491165203,4.545491080678026,-9999,63883.00702800001,-0.0940399169921875,0.4648284912109375,-0.8222808837890625,1,0.83
2020-05-19 10:04:29.081 -0400,1589897068.000238,41.35200201314117,-71.84496923891179,11.09167,1.031721,-1,3.628091491165203,4.545491080678026,-9999,63883.056915,-0.05743408203125,0.424560546875,-0.9320831298828125,1,0.83
2020-05-19 10:04:29.132 -0400,1589897068.000238,41.35200201314117,-71.84496923891179,11.09167,1.031721,-1,3.628091491165203,4.545491080678026,-9999,63883.106804,-0.0577392578125,0.41436767578125,-0.9283905029296875,1,0.83
2020-05-19 10:04:29.181 -0400,1589897068.000238,41.35200201314117,-71.84496923891179,11.09167,1.031721,-1,3.628091491165203,4.545491080678026,-9999,63883.15669,-0.0525054931640625,0.46405029296875,-0.876800537109375,1,0.83
2020-05-19 10:04:29.231 -0400,1589897068.000238,41.35200201314117,-71.84496923891179,11.09167,1.031721,-1,3.628091491165203,4.545491080678026,-9999,63883.20657900001,-0.0712432861328125,0.5045928955078125,-0.85443115234375,1,0.83
2020-05-19 10:04:29.280 -0400,1589897068.000238,41.35200201314117,-71.84496923891179,11.09167,1.031721,-1,3.628091491165203,4.545491080678026,-9999,63883.256471,-0.0850830078125,0.5365447998046875,-0.8753204345703125,1,0.83
2020-05-19 10:04:29.332 -0400,1589897069.00024,41.35200153574518,-71.84497018374063,11.33718,0.7008963,-1,3.627153066704291,4.546239947856524,-9999,63883.306362,-0.0789947509765625,0.499542236328125,-0.8705291748046875,1,0.83
2020-05-19 10:04:29.381 -0400,1589897069.00024,41.35200153574518,-71.84497018374063,11.33718,0.7008963,-1,3.627153066704291,4.546239947856524,-9999,63883.35625500001,-0.059783935546875,0.499114990234375,-0.8702545166015625,1,0.83
2020-05-19 10:04:29.430 -0400,1589897069.00024,41.35200153574518,-71.84497018374063,11.33718,0.7008963,-1,3.627153066704291,4.546239947856524,-9999,63883.406144,-0.054901123046875,0.5019378662109375,-0.8552093505859375,1,0.83
2020-05-19 10:04:29.480 -0400,1589897069.00024,41.35200153574518,-71.84497018374063,11.33718,0.7008963,-1,3.627153066704291,4.546239947856524,-9999,63883.456031,-0.059173583984375,0.5216217041015625,-0.8728790283203125,1,0.83
2020-05-19 10:04:29.530 -0400,1589897069.00024,41.35200153574518,-71.84497018374063,11.33718,0.7008963,-1,3.627153066704291,4.546239947856524,-9999,63883.505919,-0.060394287109375,0.505950927734375,-0.86962890625,1,0.83
2020-05-19 10:04:29.580 -0400,1589897069.00024,41.35200153574518,-71.84497018374063,11.33718,0.7008963,-1,3.627153066704291,4.546239947856524,-9999,63883.555805,-0.0598907470703125,0.508331298828125,-0.8678436279296875,1,0.83
2020-05-19 10:04:29.630 -0400,1589897069.00024,41.35200153574518,-71.84497018374063,11.33718,0.7008963,-1,3.627153066704291,4.546239947856524,-9999,63883.60569500001,-0.05560302734375,0.5026092529296875,-0.8595733642578125,1,0.83
2020-05-19 10:04:29.680 -0400,1589897069.00024,41.35200153574518,-71.84497018374063,11.33718,0.7008963,-1,3.627153066704291,4.546239947856524,-9999,63883.65558300001,-0.053558349609375,0.5116729736328125,-0.8580322265625,1,0.83
2020-05-19 10:04:29.730 -0400,1589897069.00024,41.35200153574518,-71.84497018374063,11.33718,0.7008963,-1,3.627153066704291,4.546239947856524,-9999,63883.705471875,-0.058837890625,0.5113067626953125,-0.872222900390625,1,0.83
2020-05-19 10:04:29.779 -0400,1589897069.00024,41.35200153574518,-71.84497018374063,11.33718,0.7008963,-1,3.627153066704291,4.546239947856524,-9999,63883.755362875,-0.0631256103515625,0.516265869140625,-0.8545684814453125,1,0.83
2020-05-19 10:04:29.829 -0400,1589897069.00024,41.35200153574518,-71.84497018374063,11.33718,0.7008963,-1,3.627153066704291,4.546239947856524,-9999,63883.805250875,-0.060302734375,0.511871337890625,-0.8494110107421875,1,0.83
2020-05-19 10:04:29.879 -0400,1589897069.00024,41.35200153574518,-71.84497018374063,11.33718,0.7008963,-1,3.627153066704291,4.546239947856524,-9999,63883.85514187501,-0.0557708740234375,0.52130126953125,-0.859710693359375,1,0.83
2020-05-19 10:04:29.929 -0400,1589897069.00024,41.35200153574518,-71.84497018374063,11.33718,0.7008963,-1,3.627153066704291,4.546239947856524,-9999,63883.905032875,-0.05572509765625,0.513763427734375,-0.85693359375,1,0.83
2020-05-19 10:04:29.979 -0400,1589897069.00024,41.35200153574518,-71.84497018374063,11.33718,0.7008963,-1,3.627153066704291,4.546239947856524,-9999,63883.954921875,-0.0526885986328125,0.507415771484375,-0.8560791015625,1,0.83
2020-05-19 10:04:30.029 -0400,1589897069.00024,41.35200153574518,-71.84497018374063,11.33718,0.7008963,-1,3.627153066704291,4.546239947856524,-9999,63884.00481187501,-0.0602569580078125,0.5156097412109375,-0.861175537109375,1,0.83
2020-05-19 10:04:30.079 -0400,1589897069.00024,41.35200153574518,-71.84497018374063,11.33718,0.7008963,-1,3.627153066704291,4.546239947856524,-9999,63884.054702875,-0.05267333984375,0.5218505859375,-0.85797119140625,1,0.83
2020-05-19 10:04:30.129 -0400,1589897069.00024,41.35200153574518,-71.84497018374063,11.33718,0.7008963,-1,3.627153066704291,4.546239947856524,-9999,63884.104589875,-0.03887939453125,0.518310546875,-0.8710784912109375,1,0.83
