loggingTime(txt),locationTimestamp_since1970(s),locationLatitude(WGS84),locationLongitude(WGS84),locationAltitude(m),locationSpeed(m/s),locationCourse(°),locationVerticalAccuracy(m),locationHorizontalAccuracy(m),locationFloor(Z),accelerometerTimestamp_sinceReboot(s),accelerometerAccelerationX(G),accelerometerAccelerationY(G),accelerometerAccelerationZ(G),batteryState,batteryLevel
2020-05-19 15:38:24.846 -0400,1589917104.520935,41.35195749712661,-71.8450353834975,17.15293,0.09507293,121.677566261777,14.71264096955088,15.42077265631712,-9999,7999.728961791667,-0.43341064453125,-0.8440093994140625,-0.2899017333984375,1,0.89
2020-05-19 15:38:24.883 -0400,1589917104.520935,41.35195749712661,-71.8450353834975,17.15293,0.09507293,121.677566261777,14.71264096955088,15.42077265631712,-9999,7999.778853791667,-0.4346771240234375,-0.8737335205078125,-0.282989501953125,1,0.89
2020-05-19 15:38:24.933 -0400,1589917104.520935,41.35195749712661,-71.8450353834975,17.15293,0.09507293,121.677566261777,14.71264096955088,15.42077265631712,-9999,7999.828746791667,-0.436279296875,-0.85943603515625,-0.2944488525390625,1,0.89
2020-05-19 15:38:24.983 -0400,1589917104.520935,41.35195749712661,-71.8450353834975,17.15293,0.09507293,121.677566261777,14.71264096955088,15.42077265631712,-9999,7999.878637791667,-0.4368896484375,-0.821319580078125,-0.3075103759765625,1,0.89
2020-05-19 15:38:25.033 -0400,1589917104.520935,41.35195749712661,-71.8450353834975,17.15293,0.09507293,121.677566261777,14.71264096955088,15.42077265631712,-9999,7999.928530791667,-0.441192626953125,-0.8453826904296875,-0.293304443359375,1,0.89
2020-05-19 15:38:25.083 -0400,1589917104.520935,41.35195749712661,-71.8450353834975,17.15293,0.09507293,121.677566261777,14.71264096955088,15.42077265631712,-9999,7999.978424791667,-0.4152984619140625,-0.7919158935546875,-0.246734619140625,1,0.89
2020-05-19 15:38:25.133 -0400,1589917104.520935,41.35195749712661,-71.8450353834975,17.15293,0.09507293,121.677566261777,14.71264096955088,15.42077265631712,-9999,8000.028317791667,-0.4223785400390625,-0.805511474609375,-0.3172760009765625,1,0.89
2020-05-19 15:38:25.183 -0400,1589917104.520935,41.35195749712661,-71.8450353834975,17.15293,0.09507293,121.677566261777,14.71264096955088,15.42077265631712,-9999,8000.078209791667,-0.4477386474609375,-0.8011932373046875,-0.2657012939453125,1,0.89
2020-05-19 15:38:25.233 -0400,1589917104.520935,41.35195749712661,-71.8450353834975,17.15293,0.09507293,121.677566261777,14.71264096955088,15.42077265631712,-9999,8000.128101791667,-0.5042724609375,-0.8360443115234375,-0.2665252685546875,1,0.89
2020-05-19 15:38:25.283 -0400,1589917104.520935,41.35195749712661,-71.8450353834975,17.15293,0.09507293,121.677566261777,14.71264096955088,15.42077265631712,-9999,8000.177994791668,-0.467926025390625,-0.787200927734375,-0.2770233154296875,1,0.89
2020-05-19 15:38:25.332 -0400,1589917104.520935,41.35195749712661,-71.8450353834975,17.15293,0.09507293,121.677566261777,14.71264096955088,15.42077265631712,-9999,8000.227887791667,-0.499969482421875,-0.6940460205078125,-0.2834625244140625,1,0.89
2020-05-19 15:38:25.382 -0400,1589917104.520935,41.35195749712661,-71.8450353834975,17.15293,0.09507293,121.677566261777,14.71264096955088,15.42077265631712,-9999,8000.277779791667,-0.5135650634765625,-0.6978302001953125,-0.23834228515625,1,0.89
2020-05-19 15:38:25.432 -0400,1589917104.520935,41.35195749712661,-71.8450353834975,17.15293,0.09507293,121.677566261777,14.71264096955088,15.42077265631712,-9999,8000.327668791667,-0.7238616943359375,-0.3918609619140625,-0.331787109375,1,0.89
2020-05-19 15:38:25.483 -0400,1589917104.520935,41.35195749712661,-71.8450353834975,17.15293,0.09507293,121.677566261777,14.71264096955088,15.42077265631712,-9999,8000.377560791667,-0.9989013671875,-0.13275146484375,-0.69940185546875,1,0.89
2020-05-19 15:38:25.532 -0400,1589917104.520935,41.35195749712661,-71.8450353834975,17.15293,0.09507293,121.677566261777,14.71264096955088,15.42077265631712,-9999,8000.427451791667,-0.8203582763671875,0.304443359375,-0.81402587890625,1,0.89
2020-05-19 15:38:25.582 -0400,1589917104.520935,41.35195749712661,-71.8450353834975,17.15293,0.09507293,121.677566261777,14.71264096955088,15.42077265631712,-9999,8000.477343791667,-0.719879150390625,0.2960357666015625,-0.4001617431640625,1,0.89
2020-05-19 15:38:25.632 -0400,1589917104.520935,41.35195749712661,-71.8450353834975,17.15293,0.09507293,121.677566261777,14.71264096955088,15.42077265631712,-9999,8000.527233791667,-0.7418975830078125,0.5678863525390625,-0.499267578125,1,0.89
2020-05-19 15:38:25.682 -0400,1589917104.520935,41.35195749712661,-71.8450353834975,17.15293,0.09507293,121.677566261777,14.71264096955088,15.42077265631712,-9999,8000.577123791667,-0.59320068359375,0.516265869140625,-0.4865875244140625,1,0.89
2020-05-19 15:38:25.732 -0400,1589917104.520935,41.35195749712661,-71.8450353834975,17.15293,0.09507293,121.677566261777,14.71264096955088,15.42077265631712,-9999,8000.627013875001,-0.6089324951171875,0.6508941650390625,-0.3423614501953125,1,0.89
2020-05-19 15:38:25.782 -0400,1589917104.520935,41.35195749712661,-71.8450353834975,17.15293,0.09507293,121.677566261777,14.71264096955088,15.42077265631712,-9999,8000.676905875001,-0.6910247802734375,0.79913330078125,-0.47637939453125,1,0.89
2020-05-19 15:38:25.831 -0400,1589917105.470951,41.35196108959979,-71.84503292840272,17.12337,0.2927908,311.603075076803,14.56669941725616,14.38407325341457,-9999,8000.726795875001,-0.6815185546875,0.9125823974609375,-0.5773773193359375,1,0.89
2020-05-19 15:38:25.881 -0400,1589917105.470951,41.35196108959979,-71.84503292840272,17.12337,0.2927908,311.603075076803,14.56669941725616,14.38407325341457,-9999,8000.776681875001,-0.604888916015625,0.9269256591796875,-0.4964447021484375,1,0.89
2020-05-19 15:38:25.934 -0400,1589917105.470951,41.35196108959979,-71.84503292840272,17.12337,0.2927908,311.603075076803,14.56669941725616,14.38407325341457,-9999,8000.826571875001,-0.5884246826171875,0.7739715576171875,-0.593841552734375,1,0.89
2020-05-19 15:38:25.981 -0400,1589917105.470951,41.35196108959979,-71.84503292840272,17.12337,0.2927908,311.603075076803,14.56669941725616,14.38407325341457,-9999,8000.876461875,-0.6782684326171875,0.523956298828125,-0.5160064697265625,1,0.89
2020-05-19 15:38:26.031 -0400,1589917105.470951,41.35196108959979,-71.84503292840272,17.12337,0.2927908,311.603075076803,14.56669941725616,14.38407325341457,-9999,8000.926352875001,-0.6148529052734375,0.3170623779296875,-0.0701751708984375,1,0.89
2020-05-19 15:38:26.081 -0400,1589917105.470951,41.35196108959979,-71.84503292840272,17.12337,0.2927908,311.603075076803,14.56669941725616,14.38407325341457,-9999,8000.976242875001,-0.7255859375,0.52618408203125,-0.367431640625,1,0.89
2020-05-19 15:38:26.131 -0400,1589917105.470951,41.35196108959979,-71.84503292840272,17.12337,0.2927908,311.603075076803,14.56669941725616,14.38407325341457,-9999,8001.026131875001,-0.652435302734375,1.110504150390625,-0.7126922607421875,1,0.89
2020-05-19 15:38:26.180 -0400,1589917105.470951,41.35196108959979,-71.84503292840272,17.12337,0.2927908,311.603075076803,14.56669941725616,14.38407325341457,-9999,8001.076020875001,-0.7130584716796875,0.595916748046875,-0.381317138671875,1,0.89
2020-05-19 15:38:26.230 -0400,1589917105.470951,41.35196108959979,-71.84503292840272,17.12337,0.2927908,311.603075076803,14.56669941725616,14.38407325341457,-9999,8001.125914875,-0.7229461669921875,0.70477294921875,-0.3909759521484375,1,0.89
2020-05-19 15:38:26.280 -0400,1589917105.470951,41.35196108959979,-71.84503292840272,17.12337,0.2927908,311.603075076803,14.56669941725616,14.38407325341457,-9999,8001.175808875,-0.7931060791015625,0.350341796875,-0.3231048583984375,1,0.89
2020-05-19 15:38:26.330 -0400,1589917105.470951,41.35196108959979,-71.84503292840272,17.12337,0.2927908,311.603075076803,14.56669941725616,14.38407325341457,-9999,8001.225700875,-0.74237060546875,0.5471649169921875,-0.3113861083984375,1,0.89
2020-05-19 15:38:26.380 -0400,1589917105.470951,41.35196108959979,-71.84503292840272,17.12337,0.2927908,311.603075076803,14.56669941725616,14.38407325341457,-9999,8001.275591875001,-0.7794647216796875,0.3734588623046875,-0.3037261962890625,1,0.89
2020-05-19 15:38:26.430 -0400,1589917105.470951,41.35196108959979,-71.84503292840272,17.12337,0.2927908,311.603075076803,14.56669941725616,14.38407325341457,-9999,8001.325483875001,-0.739349365234375,0.4776153564453125,-0.506591796875,1,0.89
2020-05-19 15:38:26.483 -0400,1589917105.470951,41.35196108959979,-71.84503292840272,17.12337,0.2927908,311.603075076803,14.56669941725616,14.38407325341457,-9999,8001.375375875001,-0.76751708984375,0.38287353515625,-0.4984130859375,1,0.89
2020-05-19 15:38:26.530 -0400,1589917105.470951,41.35196108959979,-71.84503292840272,17.12337,0.2927908,311.603075076803,14.56669941725616,14.38407325341457,-9999,8001.425267875001,-0.814483642578125,0.290008544921875,-0.3925933837890625,1,0.89
2020-05-19 15:38:26.580 -0400,1589917105.470951,41.35196108959979,-71.84503292840272,17.12337,0.2927908,311.603075076803,14.56669941725616,14.38407325341457,-9999,8001.475159875001,-0.763427734375,0.327392578125,-0.4773101806640625,1,0.89
2020-05-19 15:38:26.630 -0400,1589917105.470951,41.35196108959979,-71.84503292840272,17.12337,0.2927908,311.603075076803,14.56669941725616,14.38407325341457,-9999,8001.525052875,-0.8111419677734375,0.3460845947265625,-0.404632568359375,1,0.89
2020-05-19 15:38:26.680 -0400,1589917106.42099,41.35197222968758,-71.84503812444427,17.07817,0.1513229,345.5538623125176,12.99274472078305,12.64171281737889,-9999,8001.574949875,-0.7412109375,0.2754364013671875,-0.50372314453125,1,0.89
2020-05-19 15:38:26.729 -0400,1589917106.42099,41.35197222968758,-71.84503812444427,17.07817,0.1513229,345.5538623125176,12.99274472078305,12.64171281737889,-9999,8001.624845125,-0.8162994384765625,0.3421630859375,-0.4337158203125,1,0.89
2020-05-19 15:38:26.779 -0400,1589917106.42099,41.35197222968758,-71.84503812444427,17.07817,0.1513229,345.5538623125176,12.99274472078305,12.64171281737889,-9999,8001.674739125,-0.763580322265625,0.4402923583984375,-0.5780029296875,1,0.89
2020-05-19 15:38:26.829 -0400,1589917106.42099,41.35197222968758,-71.84503812444427,17.07817,0.1513229,345.5538623125176,12.99274472078305,12.64171281737889,-9999,8001.724636125001,-0.812225341796875,0.2852325439453125,-0.527069091796875,1,0.89
2020-05-19 15:38:26.879 -0400,1589917106.42099,41.35197222968758,-71.84503812444427,17.07817,0.1513229,345.5538623125176,12.99274472078305,12.64171281737889,-9999,8001.774534125,-0.774322509765625,0.3251190185546875,-0.5234832763671875,1,0.89
2020-05-19 15:38:26.929 -0400,1589917106.42099,41.35197222968758,-71.84503812444427,17.07817,0.1513229,345.5538623125176,12.99274472078305,12.64171281737889,-9999,8001.824429125,-0.76824951171875,0.25433349609375,-0.5415496826171875,1,0.89
2020-05-19 15:38:26.979 -0400,1589917106.42099,41.35197222968758,-71.84503812444427,17.07817,0.1513229,345.5538623125176,12.99274472078305,12.64171281737889,-9999,8001.874320125001,-0.7708892822265625,0.3210601806640625,-0.57208251953125,1,0.89
2020-05-19 15:38:27.029 -0400,1589917106.42099,41.35197222968758,-71.84503812444427,17.07817,0.1513229,345.5538623125176,12.99274472078305,12.64171281737889,-9999,8001.924213125,-0.7507781982421875,0.302093505859375,-0.5242919921875,1,0.89
2020-05-19 15:38:27.079 -0400,1589917106.42099,41.35197222968758,-71.84503812444427,17.07817,0.1513229,345.5538623125176,12.99274472078305,12.64171281737889,-9999,8001.974102125,-0.7946319580078125,0.2443695068359375,-0.57110595703125,1,0.89
2020-05-19 15:38:27.129 -0400,1589917106.42099,41.35197222968758,-71.84503812444427,17.07817,0.1513229,345.5538623125176,12.99274472078305,12.64171281737889,-9999,8002.023993125001,-0.743621826171875,0.3095550537109375,-0.611358642578125,1,0.89
2020-05-19 15:38:27.178 -0400,1589917106.42099,41.35197222968758,-71.84503812444427,17.07817,0.1513229,345.5538623125176,12.99274472078305,12.64171281737889,-9999,8002.073884125,-0.7711029052734375,0.23846435546875,-0.5653839111328125,1,0.89
2020-05-19 15:38:27.228 -0400,1589917106.42099,41.35197222968758,-71.84503812444427,17.07817,0.1513229,345.5538623125176,12.99274472078305,12.64171281737889,-9999,8002.123774125001,-0.769073486328125,0.3222198486328125,-0.564361572265625,1,0.89
2020-05-19 15:38:27.278 -0400,1589917106.42099,41.35197222968758,-71.84503812444427,17.07817,0.1513229,345.5538623125176,12.99274472078305,12.64171281737889,-9999,8002.173663125001,-0.7378692626953125,0.269378662109375,-0.5831298828125,1,0.89
2020-05-19 15:38:27.328 -0400,1589917106.42099,41.35197222968758,-71.84503812444427,17.07817,0.1513229,345.5538623125176,12.99274472078305,12.64171281737889,-9999,8002.223551125,-0.754302978515625,0.243927001953125,-0.6930389404296875,1,0.89
2020-05-19 15:38:27.378 -0400,1589917106.42099,41.35197222968758,-71.84503812444427,17.07817,0.1513229,345.5538623125176,12.99274472078305,12.64171281737889,-9999,8002.273440125001,-0.726165771484375,0.251007080078125,-0.6956939697265625,1,0.89
2020-05-19 15:38:27.428 -0400,1589917106.42099,41.35197222968758,-71.84503812444427,17.07817,0.1513229,345.5538623125176,12.99274472078305,12.64171281737889,-9999,8002.323332125001,-0.754669189453125,0.29364013671875,-0.6128082275390625,1,0.89
2020-05-19 15:38:27.478 -0400,1589917106.42099,41.35197222968758,-71.84503812444427,17.07817,0.1513229,345.5538623125176,12.99274472078305,12.64171281737889,-9999,8002.373226125001,-0.786285400390625,0.2949066162109375,-0.610748291015625,1,0.89
2020-05-19 15:38:27.528 -0400,1589917106.42099,41.35197222968758,-71.84503812444427,17.07817,0.1513229,345.5538623125176,12.99274472078305,12.64171281737889,-9999,8002.423118125001,-0.7422027587890625,0.125152587890625,-0.573455810546875,1,0.89
2020-05-19 15:38:27.577 -0400,1589917106.42099,41.35197222968758,-71.84503812444427,17.07817,0.1513229,345.5538623125176,12.99274472078305,12.64171281737889,-9999,8002.473008125001,-0.7450103759765625,0.1681060791015625,-0.644317626953125,1,0.89
2020-05-19 15:38:27.627 -0400,1589917106.42099,41.35197222968758,-71.84503812444427,17.07817,0.1513229,345.5538623125176,12.99274472078305,12.64171281737889,-9999,8002.522901125,-0.73004150390625,0.048126220703125,-0.628662109375,1,0.89
2020-05-19 15:38:27.677 -0400,1589917106.42099,41.35197222968758,-71.84503812444427,17.07817,0.1513229,345.5538623125176,12.99274472078305,12.64171281737889,-9999,8002.572793125,-0.7501983642578125,0.0902099609375,-0.62994384765625,1,0.89
2020-05-19 15:38:27.728 -0400,1589917107.371003,41.35199662333353,-71.84501208761502,16.89367,0.08605848,352.8512613633142,12.42235248005946,10.75418704288902,-9999,8002.622683125001,-0.74676513671875,0.114776611328125,-0.654693603515625,1,0.89
2020-05-19 15:38:27.777 -0400,1589917107.371003,41.35199662333353,-71.84501208761502,16.89367,0.08605848,352.8512613633142,12.42235248005946,10.75418704288902,-9999,8002.672576000001,-0.7443695068359375,0.1168212890625,-0.6693267822265625,1,0.89
2020-05-19 15:38:27.827 -0400,1589917107.371003,41.35199662333353,-71.84501208761502,16.89367,0.08605848,352.8512613633142,12.42235248005946,10.75418704288902,-9999,8002.722467000001,-0.751953125,0.1132049560546875,-0.6802215576171875,1,0.89
2020-05-19 15:38:27.877 -0400,1589917107.371003,41.35199662333353,-71.84501208761502,16.89367,0.08605848,352.8512613633142,12.42235248005946,10.75418704288902,-9999,8002.772356,-0.7478485107421875,0.0942535400390625,-0.6398773193359375,1,0.89
2020-05-19 15:38:27.927 -0400,1589917107.371003,41.35199662333353,-71.84501208761502,16.89367,0.08605848,352.8512613633142,12.42235248005946,10.75418704288902,-9999,8002.822247,-0.777130126953125,0.1354827880859375,-0.6105499267578125,1,0.89
2020-05-19 15:38:27.978 -0400,1589917107.371003,41.35199662333353,-71.84501208761502,16.89367,0.08605848,352.8512613633142,12.42235248005946,10.75418704288902,-9999,8002.872138000001,-0.754913330078125,0.159210205078125,-0.63916015625,1,0.89
2020-05-19 15:38:28.027 -0400,1589917107.371003,41.35199662333353,-71.84501208761502,16.89367,0.08605848,352.8512613633142,12.42235248005946,10.75418704288902,-9999,8002.922028000001,-0.7407989501953125,0.1145477294921875,-0.652191162109375,1,0.89
2020-05-19 15:38:28.077 -0400,1589917107.371003,41.35199662333353,-71.84501208761502,16.89367,0.08605848,352.8512613633142,12.42235248005946,10.75418704288902,-9999,8002.971921,-0.7528228759765625,0.120849609375,-0.6310882568359375,1,0.89
2020-05-19 15:38:28.126 -0400,1589917107.371003,41.35199662333353,-71.84501208761502,16.89367,0.08605848,352.8512613633142,12.42235248005946,10.75418704288902,-9999,8003.021814000001,-0.7512664794921875,0.071533203125,-0.6457061767578125,1,0.89
2020-05-19 15:38:28.176 -0400,1589917107.371003,41.35199662333353,-71.84501208761502,16.89367,0.08605848,352.8512613633142,12.42235248005946,10.75418704288902,-9999,8003.071706000001,-0.741302490234375,0.1121063232421875,-0.6416778564453125,1,0.89
2020-05-19 15:38:28.226 -0400,1589917107.371003,41.35199662333353,-71.84501208761502,16.89367,0.08605848,352.8512613633142,12.42235248005946,10.75418704288902,-9999,8003.121599,-0.7454681396484375,0.181854248046875,-0.7058258056640625,1,0.89
2020-05-19 15:38:28.276 -0400,1589917107.371003,41.35199662333353,-71.84501208761502,16.89367,0.08605848,352.8512613633142,12.42235248005946,10.75418704288902,-9999,8003.171491,-0.7416229248046875,-0.0025482177734375,-0.6814422607421875,1,0.89
2020-05-19 15:38:28.326 -0400,1589917107.371003,41.35199662333353,-71.84501208761502,16.89367,0.08605848,352.8512613633142,12.42235248005946,10.75418704288902,-9999,8003.221385000001,-0.7573699951171875,0.1421661376953125,-0.650604248046875,1,0.89
2020-05-19 15:38:28.376 -0400,1589917107.371003,41.35199662333353,-71.84501208761502,16.89367,0.08605848,352.8512613633142,12.42235248005946,10.75418704288902,-9999,8003.271277000001,-0.736297607421875,0.0857696533203125,-0.671539306640625,1,0.89
2020-05-19 15:38:28.426 -0400,1589917107.371003,41.35199662333353,-71.84501208761502,16.89367,0.08605848,352.8512613633142,12.42235248005946,10.75418704288902,-9999,8003.321171000001,-0.7378082275390625,0.045013427734375,-0.7208251953125,1,0.89
2020-05-19 15:38:28.476 -0400,1589917107.371003,41.35199662333353,-71.84501208761502,16.89367,0.08605848,352.8512613633142,12.42235248005946,10.75418704288902,-9999,8003.371066000001,-0.7274322509765625,-0.0010223388671875,-0.6606597900390625,1,0.89
2020-05-19 15:38:28.525 -0400,1589917107.371003,41.35199662333353,-71.84501208761502,16.89367,0.08605848,352.8512613633142,12.42235248005946,10.75418704288902,-9999,8003.420963,-0.7286529541015625,0.02227783203125,-0.6429290771484375,1,0.89
2020-05-19 15:38:28.575 -0400,1589917107.371003,41.35199662333353,-71.84501208761502,16.89367,0.08605848,352.8512613633142,12.42235248005946,10.75418704288902,-9999,8003.470857,-0.76080322265625,0.03009033203125,-0.6655426025390625,1,0.89
2020-05-19 15:38:28.625 -0400,1589917108.321044,41.35199735374828,-71.84501220919043,16.89367,0.08605848,352.8512612829913,12.42235248005946,10.75418704288902,-9999,8003.520749,-0.7408599853515625,0.0718994140625,-0.682342529296875,1,0.89
2020-05-19 15:38:28.675 -0400,1589917108.321044,41.35199735374828,-71.84501220919043,16.89367,0.08605848,352.8512612829913,12.42235248005946,10.75418704288902,-9999,8003.570646,-0.72906494140625,-0.00506591796875,-0.6718292236328125,1,0.89
2020-05-19 15:38:28.725 -0400,1589917108.321044,41.35199735374828,-71.84501220919043,16.89367,0.08605848,352.8512612829913,12.42235248005946,10.75418704288902,-9999,8003.620542000001,-0.740936279296875,0.053619384765625,-0.689483642578125,1,0.89
2020-05-19 15:38:28.775 -0400,1589917108.321044,41.35199735374828,-71.84501220919043,16.89367,0.08605848,352.8512612829913,12.42235248005946,10.75418704288902,-9999,8003.670434000001,-0.7010345458984375,0.069549560546875,-0.7014617919921875,1,0.89
2020-05-19 15:38:28.825 -0400,1589917108.321044,41.35199735374828,-71.84501220919043,16.89367,0.08605848,352.8512612829913,12.42235248005946,10.75418704288902,-9999,8003.720327000001,-0.7218017578125,-0.0227813720703125,-0.684844970703125,1,0.89
2020-05-19 15:38:28.875 -0400,1589917108.321044,41.35199735374828,-71.84501220919043,16.89367,0.08605848,352.8512612829913,12.42235248005946,10.75418704288902,-9999,8003.770221000001,-0.722564697265625,0.094879150390625,-0.6656951904296875,1,0.89
2020-05-19 15:38:28.925 -0400,1589917108.321044,41.35199735374828,-71.84501220919043,16.89367,0.08605848,352.8512612829913,12.42235248005946,10.75418704288902,-9999,8003.820116000001,-0.74249267578125,0.0978240966796875,-0.69012451171875,1,0.89
2020-05-19 15:38:28.974 -0400,1589917108.321044,41.35199735374828,-71.84501220919043,16.89367,0.08605848,352.8512612829913,12.42235248005946,10.75418704288902,-9999,8003.870007,-0.735198974609375,-0.0082550048828125,-0.6788177490234375,1,0.89
2020-05-19 15:38:29.024 -0400,1589917108.321044,41.35199735374828,-71.84501220919043,16.89367,0.08605848,352.8512612829913,12.42235248005946,10.75418704288902,-9999,8003.919901,-0.729156494140625,0.0299530029296875,-0.6893310546875,1,0.89
2020-05-19 15:38:29.074 -0400,1589917108.321044,41.35199735374828,-71.84501220919043,16.89367,0.08605848,352.8512612829913,12.42235248005946,10.75418704288902,-9999,8003.969795000001,-0.7377777099609375,0.01171875,-0.6948089599609375,1,0.89
2020-05-19 15:38:29.124 -0400,1589917108.321044,41.35199735374828,-71.84501220919043,16.89367,0.08605848,352.8512612829913,12.42235248005946,10.75418704288902,-9999,8004.019688,-0.7447509765625,0.0879364013671875,-0.7104949951171875,1,0.89
2020-05-19 15:38:29.174 -0400,1589917108.321044,41.35199735374828,-71.84501220919043,16.89367,0.08605848,352.8512612829913,12.42235248005946,10.75418704288902,-9999,8004.069582,-0.718170166015625,-0.0088958740234375,-0.82928466796875,1,0.89
2020-05-19 15:38:29.224 -0400,1589917108.321044,41.35199735374828,-71.84501220919043,16.89367,0.08605848,352.8512612829913,12.42235248005946,10.75418704288902,-9999,8004.119476000001,-0.738189697265625,0.1030731201171875,-0.6996307373046875,1,0.89
2020-05-19 15:38:29.274 -0400,1589917108.321044,41.35199735374828,-71.84501220919043,16.89367,0.08605848,352.8512612829913,12.42235248005946,10.75418704288902,-9999,8004.169371000001,-0.749542236328125,0.141754150390625,-0.5688018798828125,1,0.89
2020-05-19 15:38:29.324 -0400,1589917108.321044,41.35199735374828,-71.84501220919043,16.89367,0.08605848,352.8512612829913,12.42235248005946,10.75418704288902,-9999,8004.219269,-0.8035430908203125,0.104095458984375,-0.5947113037109375,1,0.89
2020-05-19 15:38:29.374 -0400,1589917108.321044,41.35199735374828,-71.84501220919043,16.89367,0.08605848,352.8512612829913,12.42235248005946,10.75418704288902,-9999,8004.269165000001,-0.7756195068359375,0.0639190673828125,-0.577178955078125,1,0.89
2020-05-19 15:38:29.424 -0400,1589917108.321044,41.35199735374828,-71.84501220919043,16.89367,0.08605848,352.8512612829913,12.42235248005946,10.75418704288902,-9999,8004.319061,-0.791656494140625,0.1407928466796875,-0.583282470703125,1,0.89
2020-05-19 15:38:29.474 -0400,1589917108.321044,41.35199735374828,-71.84501220919043,16.89367,0.08605848,352.8512612829913,12.42235248005946,10.75418704288902,-9999,8004.368954,-0.7254180908203125,0.281005859375,-0.381988525390625,1,0.89
2020-05-19 15:38:29.523 -0400,1589917109.271039,41.35198201179523,-71.84501790240533,16.77176,0.1826008,210.4441908879918,11.47306158692235,9.480121870090064,-9999,8004.418847000001,-0.8331756591796875,0.2265472412109375,-0.42645263671875,1,0.89
2020-05-19 15:38:29.573 -0400,1589917109.271039,41.35198201179523,-71.84501790240533,16.77176,0.1826008,210.4441908879918,11.47306158692235,9.480121870090064,-9999,8004.468739000001,-0.8180389404296875,0.265411376953125,-0.5381622314453125,1,0.89
2020-05-19 15:38:29.623 -0400,1589917109.271039,41.35198201179523,-71.84501790240533,16.77176,0.1826008,210.4441908879918,11.47306158692235,9.480121870090064,-9999,8004.51863,-0.6941375732421875,0.137908935546875,-0.662139892578125,1,0.89
2020-05-19 15:38:29.673 -0400,1589917109.271039,41.35198201179523,-71.84501790240533,16.77176,0.1826008,210.4441908879918,11.47306158692235,9.480121870090064,-9999,8004.568525000001,-0.765167236328125,0.09222412109375,-0.64263916015625,1,0.89
2020-05-19 15:38:29.723 -0400,1589917109.271039,41.35198201179523,-71.84501790240533,16.77176,0.1826008,210.4441908879918,11.47306158692235,9.480121870090064,-9999,8004.618420000001,-0.824554443359375,0.061492919921875,-0.6055145263671875,1,0.89
2020-05-19 15:38:29.773 -0400,1589917109.271039,41.35198201179523,-71.84501790240533,16.77176,0.1826008,210.4441908879918,11.47306158692235,9.480121870090064,-9999,8004.668313541667,-0.7265472412109375,0.184173583984375,-0.592437744140625,1,0.89
2020-05-19 15:38:29.823 -0400,1589917109.271039,41.35198201179523,-71.84501790240533,16.77176,0.1826008,210.4441908879918,11.47306158692235,9.480121870090064,-9999,8004.718206541667,-0.7049102783203125,0.1100921630859375,-0.71063232421875,1,0.89
2020-05-19 15:38:29.873 -0400,1589917109.271039,41.35198201179523,-71.84501790240533,16.77176,0.1826008,210.4441908879918,11.47306158692235,9.480121870090064,-9999,8004.768100541667,-0.806915283203125,0.061279296875,-0.5300140380859375,1,0.89
2020-05-19 15:38:29.922 -0400,1589917109.271039,41.35198201179523,-71.84501790240533,16.77176,0.1826008,210.4441908879918,11.47306158692235,9.480121870090064,-9999,8004.817995541667,-0.7219390869140625,0.22235107421875,-0.7356719970703125,1,0.89
2020-05-19 15:38:29.973 -0400,1589917109.271039,41.35198201179523,-71.84501790240533,16.77176,0.1826008,210.4441908879918,11.47306158692235,9.480121870090064,-9999,8004.867892541667,-0.70697021484375,0.0588226318359375,-0.7037506103515625,1,0.89
2020-05-19 15:38:30.022 -0400,1589917109.271039,41.35198201179523,-71.84501790240533,16.77176,0.1826008,210.4441908879918,11.47306158692235,9.480121870090064,-9999,8004.917784541667,-0.6868438720703125,0.1043701171875,-0.73883056640625,1,0.89
2020-05-19 15:38:30.072 -0400,1589917109.271039,41.35198201179523,-71.84501790240533,16.77176,0.1826008,210.4441908879918,11.47306158692235,9.480121870090064,-9999,8004.967676541667,-0.72711181640625,0.0963897705078125,-0.710418701171875,1,0.89
2020-05-19 15:38:30.122 -0400,1589917109.271039,41.35198201179523,-71.84501790240533,16.77176,0.1826008,210.4441908879918,11.47306158692235,9.480121870090064,-9999,8005.017571541667,-0.713348388671875,0.100006103515625,-0.721954345703125,1,0.89
2020-05-19 15:38:30.172 -0400,1589917109.271039,41.35198201179523,-71.84501790240533,16.77176,0.1826008,210.4441908879918,11.47306158692235,9.480121870090064,-9999,8005.067466541667,-0.714141845703125,0.0255889892578125,-0.74212646484375,1,0.89
2020-05-19 15:38:30.222 -0400,1589917109.271039,41.35198201179523,-71.84501790240533,16.77176,0.1826008,210.4441908879918,11.47306158692235,9.480121870090064,-9999,8005.117362541667,-0.657135009765625,0.02191162109375,-0.7851104736328125,1,0.89
2020-05-19 15:38:30.272 -0400,1589917109.271039,41.35198201179523,-71.84501790240533,16.77176,0.1826008,210.4441908879918,11.47306158692235,9.480121870090064,-9999,8005.167257541667,-0.72283935546875,0.0072784423828125,-0.600860595703125,1,0.89
2020-05-19 15:38:30.322 -0400,1589917109.271039,41.35198201179523,-71.84501790240533,16.77176,0.1826008,210.4441908879918,11.47306158692235,9.480121870090064,-9999,8005.217151541668,-0.7303466796875,0.115203857421875,-0.6646270751953125,1,0.89
2020-05-19 15:38:30.372 -0400,1589917109.271039,41.35198201179523,-71.84501790240533,16.77176,0.1826008,210.4441908879918,11.47306158692235,9.480121870090064,-9999,8005.267046541667,-0.75213623046875,0.1903076171875,-0.65875244140625,1,0.89
2020-05-19 15:38:30.421 -0400,1589917109.271039,41.35198201179523,-71.84501790240533,16.77176,0.1826008,210.4441908879918,11.47306158692235,9.480121870090064,-9999,8005.316939541667,-0.74896240234375,0.1528778076171875,-0.6101226806640625,1,0.89
2020-05-19 15:38:30.471 -0400,1589917109.271039,41.35198201179523,-71.84501790240533,16.77176,0.1826008,210.4441908879918,11.47306158692235,9.480121870090064,-9999,8005.366832541667,-0.7429351806640625,0.19097900390625,-0.6714630126953125,1,0.89
2020-05-19 15:38:30.521 -0400,1589917110.221076,41.35198078220025,-71.84502882092963,16.70147,0.211005,162.360575806917,10.95735707944569,8.093345180973804,-9999,8005.416723541667,-0.7260589599609375,0.267578125,-0.6884765625,1,0.89
2020-05-19 15:38:30.657 -0400,1589917110.221076,41.35198078220025,-71.84502882092963,16.70147,0.211005,162.360575806917,10.95735707944569,8.093345180973804,-9999,8005.466618541667,-0.73565673828125,0.214813232421875,-0.6237335205078125,1,0.89
2020-05-19 15:38:30.659 -0400,1589917110.221076,41.35198078220025,-71.84502882092963,16.70147,0.211005,162.360575806917,10.95735707944569,8.093345180973804,-9999,8005.516513541667,-0.7484283447265625,0.11529541015625,-0.4882049560546875,1,0.89
2020-05-19 15:38:30.671 -0400,1589917110.221076,41.35198078220025,-71.84502882092963,16.70147,0.211005,162.360575806917,10.95735707944569,8.093345180973804,-9999,8005.566409541667,-0.733642578125,0.2111968994140625,-0.6427154541015625,1,0.89
2020-05-19 15:38:30.721 -0400,1589917110.221076,41.35198078220025,-71.84502882092963,16.70147,0.211005,162.360575806917,10.95735707944569,8.093345180973804,-9999,8005.616304541667,-0.7283172607421875,0.240478515625,-0.691558837890625,1,0.89
2020-05-19 15:38:30.771 -0400,1589917110.221076,41.35198078220025,-71.84502882092963,16.70147,0.211005,162.360575806917,10.95735707944569,8.093345180973804,-9999,8005.666197750001,-0.670928955078125,0.2693939208984375,-0.735382080078125,1,0.89
2020-05-19 15:38:30.821 -0400,1589917110.221076,41.35198078220025,-71.84502882092963,16.70147,0.211005,162.360575806917,10.95735707944569,8.093345180973804,-9999,8005.716094750001,-0.6830291748046875,0.3748931884765625,-0.73956298828125,1,0.89
2020-05-19 15:38:30.871 -0400,1589917110.221076,41.35198078220025,-71.84502882092963,16.70147,0.211005,162.360575806917,10.95735707944569,8.093345180973804,-9999,8005.76599175,-0.6990509033203125,0.357696533203125,-0.6016387939453125,1,0.89
2020-05-19 15:38:30.920 -0400,1589917110.221076,41.35198078220025,-71.84502882092963,16.70147,0.211005,162.360575806917,10.95735707944569,8.093345180973804,-9999,8005.81588375,-0.735321044921875,0.27288818359375,-0.6858367919921875,1,0.89
2020-05-19 15:38:30.970 -0400,1589917110.221076,41.35198078220025,-71.84502882092963,16.70147,0.211005,162.360575806917,10.95735707944569,8.093345180973804,-9999,8005.865776750001,-0.732391357421875,0.272430419921875,-0.58294677734375,1,0.89
2020-05-19 15:38:31.020 -0400,1589917110.221076,41.35198078220025,-71.84502882092963,16.70147,0.211005,162.360575806917,10.95735707944569,8.093345180973804,-9999,8005.91566675,-0.671966552734375,0.2416839599609375,-0.7339019775390625,1,0.89
2020-05-19 15:38:31.070 -0400,1589917110.221076,41.35198078220025,-71.84502882092963,16.70147,0.211005,162.360575806917,10.95735707944569,8.093345180973804,-9999,8005.965555750001,-0.673309326171875,0.1950531005859375,-0.727996826171875,1,0.89
2020-05-19 15:38:31.120 -0400,1589917110.221076,41.35198078220025,-71.84502882092963,16.70147,0.211005,162.360575806917,10.95735707944569,8.093345180973804,-9999,8006.01544575,-0.6483612060546875,0.1099395751953125,-0.808563232421875,1,0.89
2020-05-19 15:38:31.170 -0400,1589917110.221076,41.35198078220025,-71.84502882092963,16.70147,0.211005,162.360575806917,10.95735707944569,8.093345180973804,-9999,8006.06533775,-0.61865234375,0.0983428955078125,-0.7337799072265625,1,0.89
2020-05-19 15:38:31.220 -0400,1589917110.221076,41.35198078220025,-71.84502882092963,16.70147,0.211005,162.360575806917,10.95735707944569,8.093345180973804,-9999,8006.11523275,-0.601715087890625,0.1327667236328125,-0.67578125,1,0.89
2020-05-19 15:38:31.270 -0400,1589917110.221076,41.35198078220025,-71.84502882092963,16.70147,0.211005,162.360575806917,10.95735707944569,8.093345180973804,-9999,8006.16512475,-0.591522216796875,0.0930328369140625,-0.5644073486328125,1,0.89
2020-05-19 15:38:31.320 -0400,1589917110.221076,41.35198078220025,-71.84502882092963,16.70147,0.211005,162.360575806917,10.95735707944569,8.093345180973804,-9999,8006.215017750001,-0.562408447265625,0.1820068359375,-0.6605377197265625,1,0.89
2020-05-19 15:50:15.217 -0400,1589917814.000159,41.35204628381619,-71.84499787202411,12.73879,0,-1,3.435248215495624,4.692931571067596,-9999,8710.106244125,-0.73358154296875,0.6540985107421875,0.18865966796875,1,0.88
2020-05-19 15:50:15.260 -0400,1589917814.000159,41.35204628381619,-71.84499787202411,12.73879,0,-1,3.435248215495624,4.692931571067596,-9999,8710.156129125,-0.7421722412109375,0.6480865478515625,0.1910400390625,1,0.88
2020-05-19 15:50:15.310 -0400,1589917814.000159,41.35204628381619,-71.84499787202411,12.73879,0,-1,3.435248215495624,4.692931571067596,-9999,8710.206017125001,-0.7400970458984375,0.6433868408203125,0.1910400390625,1,0.88
2020-05-19 15:50:15.359 -0400,1589917815.000166,41.35204691470784,-71.84499106724745,12.63027,0,-1,3.44207711071158,4.687925148368334,-9999,8710.255908125,-0.7428131103515625,0.65863037109375,0.1951141357421875,1,0.88
2020-05-19 15:50:15.409 -0400,1589917815.000166,41.35204691470784,-71.84499106724745,12.63027,0,-1,3.44207711071158,4.687925148368334,-9999,8710.305798125,-0.736053466796875,0.6591796875,0.196258544921875,1,0.88
2020-05-19 15:50:15.459 -0400,1589917815.000166,41.35204691470784,-71.84499106724745,12.63027,0,-1,3.44207711071158,4.687925148368334,-9999,8710.355687125,-0.734527587890625,0.6390533447265625,0.1865386962890625,1,0.88
2020-05-19 15:50:15.513 -0400,1589917815.000166,41.35204691470784,-71.84499106724745,12.63027,0,-1,3.44207711071158,4.687925148368334,-9999,8710.405577666666,-0.7447967529296875,0.6449432373046875,0.1964569091796875,1,0.88
2020-05-19 15:50:15.559 -0400,1589917815.000166,41.35204691470784,-71.84499106724745,12.63027,0,-1,3.44207711071158,4.687925148368334,-9999,8710.455467666667,-0.7316741943359375,0.657562255859375,0.202545166015625,1,0.88
2020-05-19 15:50:15.609 -0400,1589917815.000166,41.35204691470784,-71.84499106724745,12.63027,0,-1,3.44207711071158,4.687925148368334,-9999,8710.505356666667,-0.734771728515625,0.64129638671875,0.1890869140625,1,0.88
2020-05-19 15:50:15.659 -0400,1589917815.000166,41.35204691470784,-71.84499106724745,12.63027,0,-1,3.44207711071158,4.687925148368334,-9999,8710.555243666668,-0.735382080078125,0.6487274169921875,0.2000732421875,1,0.88
2020-05-19 15:50:15.709 -0400,1589917815.000166,41.35204691470784,-71.84499106724745,12.63027,0,-1,3.44207711071158,4.687925148368334,-9999,8710.605129666666,-0.74176025390625,0.66876220703125,0.192779541015625,1,0.88
2020-05-19 15:50:15.759 -0400,1589917815.000166,41.35204691470784,-71.84499106724745,12.63027,0,-1,3.44207711071158,4.687925148368334,-9999,8710.655017666668,-0.7505645751953125,0.6556549072265625,0.189208984375,1,0.88
