loggingTime(txt),accelerometerTimestamp_sinceReboot(s),accelerometerAccelerationX(G),accelerometerAccelerationY(G),accelerometerAccelerationZ(G),batteryState,batteryLevel
2020-05-12 19:51:31.877 -0400,87639.65811416667,0.1520233154296875,-0.1741485595703125,-0.9524688720703125,1,0.93
2020-05-12 19:51:31.993 -0400,87639.77785654167,0.139801025390625,-0.1587371826171875,-0.912384033203125,1,0.93
2020-05-12 19:51:32.114 -0400,87639.89760054168,0.13946533203125,-0.053955078125,-0.9426116943359375,1,0.93
2020-05-12 19:51:32.233 -0400,87640.01734754167,0.25225830078125,-0.0307159423828125,-1.1732177734375,1,0.93
2020-05-12 19:51:32.353 -0400,87640.13708054167,0.2093658447265625,-0.038330078125,-0.987060546875,1,0.93
2020-05-12 19:51:32.472 -0400,87640.25681154167,0.293792724609375,0.0916748046875,-0.9420166015625,1,0.93
2020-05-12 19:51:32.592 -0400,87640.37654754167,0.2835845947265625,0.1885223388671875,-0.9333953857421875,1,0.93
2020-05-12 19:51:32.713 -0400,87640.49628954167,0.2525482177734375,0.2020111083984375,-0.7644195556640625,1,0.93
2020-05-12 19:51:32.832 -0400,87640.61602654167,0.5496978759765625,0.6005401611328125,-0.7275238037109375,1,0.93
2020-05-12 19:51:32.952 -0400,87640.73575754167,0.9467926025390625,0.550201416015625,-0.4233245849609375,1,0.93
2020-05-12 19:51:33.071 -0400,87640.85549262501,1.08392333984375,0.6422882080078125,-0.318878173828125,1,0.93
2020-05-12 19:51:33.203 -0400,87640.975226625,0.90081787109375,0.496734619140625,-0.200927734375,1,0.93
2020-05-12 19:51:33.311 -0400,87641.09496062501,0.8570556640625,0.4707183837890625,-0.1685638427734375,1,0.93
2020-05-12 19:51:33.381 -0400,87641.16480362501,0.879638671875,0.4732513427734375,-0.1764984130859375,1,0.93
2020-05-12 19:51:33.454 -0400,87641.23465162501,0.900146484375,0.4388275146484375,-0.1919708251953125,1,0.93
2020-05-12 19:51:33.520 -0400,87641.304496625,0.88653564453125,0.408294677734375,-0.225677490234375,1,0.93
2020-05-12 19:51:33.590 -0400,87641.37434362501,0.8916473388671875,0.3793792724609375,-0.2382965087890625,1,0.93
2020-05-12 19:51:33.660 -0400,87641.444186625,0.8653717041015625,0.3665008544921875,-0.2370758056640625,1,0.93
2020-05-12 19:51:33.730 -0400,87641.51403062501,0.8603668212890625,0.3850860595703125,-0.238922119140625,1,0.93
2020-05-12 19:51:33.800 -0400,87641.583871625,0.882659912109375,0.39923095703125,-0.2329559326171875,1,0.93
2020-05-12 19:51:33.869 -0400,87641.65371662501,0.893798828125,0.413055419921875,-0.221343994140625,1,0.93
2020-05-12 19:51:33.939 -0400,87641.72356362501,0.902618408203125,0.4302215576171875,-0.2100067138671875,1,0.93
2020-05-12 19:51:34.009 -0400,87641.79340537501,0.8884124755859375,0.44488525390625,-0.20086669921875,1,0.93
2020-05-12 19:51:34.079 -0400,87641.863252375,0.88525390625,0.448577880859375,-0.209320068359375,1,0.93
2020-05-12 19:51:34.149 -0400,87641.93309837501,0.8816680908203125,0.428558349609375,-0.2052001953125,1,0.93
2020-05-12 19:51:34.219 -0400,87642.00294437501,0.8791351318359375,0.426116943359375,-0.211334228515625,1,0.93
2020-05-12 19:51:34.289 -0400,87642.072787375,0.89215087890625,0.4124298095703125,-0.2223968505859375,1,0.93
2020-05-12 19:51:34.358 -0400,87642.142628375,0.9146270751953125,0.3928070068359375,-0.2337646484375,1,0.93
2020-05-12 19:51:34.428 -0400,87642.21247137501,0.892791748046875,0.3880157470703125,-0.237701416015625,1,0.93
2020-05-12 19:51:34.498 -0400,87642.28231537501,0.867645263671875,0.382110595703125,-0.2434844970703125,1,0.93
2020-05-12 19:51:34.568 -0400,87642.352162375,0.875396728515625,0.3793182373046875,-0.25732421875,1,0.93
2020-05-12 19:51:34.638 -0400,87642.422007375,0.8764801025390625,0.374786376953125,-0.242584228515625,1,0.93
2020-05-12 19:51:34.708 -0400,87642.49185237501,0.9016265869140625,0.396514892578125,-0.2269744873046875,1,0.93
2020-05-12 19:51:34.778 -0400,87642.56169837501,0.8920135498046875,0.3968963623046875,-0.2198944091796875,1,0.93
2020-05-12 19:51:34.847 -0400,87642.63154637501,0.893341064453125,0.3866119384765625,-0.23004150390625,1,0.93
2020-05-12 19:51:34.917 -0400,87642.70138937501,0.9293212890625,0.3663787841796875,-0.2488555908203125,1,0.93
2020-05-12 19:51:34.987 -0400,87642.77123479167,0.9243011474609375,0.3440704345703125,-0.2652130126953125,1,0.93
2020-05-12 19:51:35.057 -0400,87642.84107879167,0.9064483642578125,0.292266845703125,-0.237152099609375,1,0.93
2020-05-12 19:51:35.127 -0400,87642.91092579167,1.048294067382812,0.1024017333984375,-0.2271270751953125,1,0.93
2020-05-12 19:51:35.196 -0400,87642.98077479168,0.94793701171875,-0.0619049072265625,-0.205535888671875,1,0.93
2020-05-12 19:51:35.266 -0400,87643.05062179167,0.911041259765625,0.0374908447265625,-0.1611328125,1,0.93
2020-05-12 19:51:35.336 -0400,87643.12046679168,0.8180389404296875,0.1578369140625,-0.1487579345703125,1,0.93
2020-05-12 19:51:35.406 -0400,87643.19031779167,0.6951904296875,0.1168365478515625,-0.06719970703125,1,0.93
2020-05-12 19:51:35.476 -0400,87643.26016679168,1.552627563476562,0.2158050537109375,-0.2950592041015625,1,0.93
2020-05-12 19:51:35.546 -0400,87643.33001379167,1.768234252929688,0.9158172607421875,-0.3950042724609375,1,0.93
2020-05-12 19:51:35.616 -0400,87643.39985579168,0.311492919921875,1.25726318359375,-0.502593994140625,1,0.93
2020-05-12 19:51:35.685 -0400,87643.46969979168,0.483245849609375,1.5703125,-0.653350830078125,1,0.93
2020-05-12 19:51:35.755 -0400,87643.53954579167,1.334808349609375,2.03948974609375,-0.3207550048828125,1,0.93
2020-05-12 19:51:35.825 -0400,87643.60938979167,2.806655883789062,2.684722900390625,-0.2491302490234375,1,0.93
2020-05-12 19:51:35.895 -0400,87643.67923479168,1.856063842773438,0.9358673095703125,0.2776031494140625,1,0.93
2020-05-12 19:51:35.965 -0400,87643.74908079168,1.088302612304688,-0.1614990234375,0.516082763671875,1,0.93
2020-05-12 19:51:36.035 -0400,87643.81893025001,0.5144500732421875,-0.2765655517578125,0.3495330810546875,1,0.93
2020-05-12 19:51:36.104 -0400,87643.88877225001,0.715606689453125,-0.1338043212890625,0.3003692626953125,1,0.93
2020-05-12 19:51:36.175 -0400,87643.95861925,0.7375946044921875,-0.00640869140625,0.0171356201171875,1,0.93
2020-05-12 19:51:36.244 -0400,87644.02846525001,3.008529663085938,2.642120361328125,-0.888580322265625,1,0.93
2020-05-12 19:51:36.314 -0400,87644.09831225,0.9603271484375,1.865585327148438,-0.628814697265625,1,0.93
2020-05-12 19:51:36.385 -0400,87644.16815825,-0.0365447998046875,1.161468505859375,-0.63739013671875,1,0.93
2020-05-12 19:51:36.454 -0400,87644.23799925001,-0.278228759765625,-0.2218170166015625,0.0188140869140625,1,0.93
2020-05-12 19:51:36.524 -0400,87644.30784225001,-0.05615234375,-0.0719146728515625,-0.082733154296875,1,0.93
2020-05-12 19:51:36.593 -0400,87644.37768125,0.678863525390625,1.417266845703125,-0.32867431640625,1,0.93
2020-05-12 19:51:36.663 -0400,87644.44752425,1.828506469726562,2.88714599609375,-0.6855926513671875,1,0.93
2020-05-12 19:51:36.733 -0400,87644.51736725001,1.129226684570312,1.092498779296875,-0.093780517578125,1,0.93
2020-05-12 19:51:36.803 -0400,87644.58720925001,0.5798492431640625,-0.3297882080078125,0.3660888671875,1,0.93
2020-05-12 19:51:36.873 -0400,87644.65705325,0.570037841796875,-0.673309326171875,0.5543670654296875,1,0.93
2020-05-12 19:51:36.943 -0400,87644.72690125,0.6038360595703125,-0.2632293701171875,0.27972412109375,1,0.93
2020-05-12 19:51:37.012 -0400,87644.79675154167,1.862136840820312,0.086181640625,0.1229095458984375,1,0.93
2020-05-12 19:51:37.082 -0400,87644.86660154167,3.6029052734375,1.927886962890625,-0.592681884765625,1,0.93
2020-05-12 19:51:37.152 -0400,87644.93645054167,0.2580108642578125,1.496337890625,-0.69976806640625,1,0.93
2020-05-12 19:51:37.222 -0400,87645.00629754167,-1.620452880859375,0.4004974365234375,-0.410125732421875,1,0.93
2020-05-12 19:51:37.292 -0400,87645.07614454167,0.013763427734375,0.56512451171875,-0.2856903076171875,1,0.93
2020-05-12 19:51:37.362 -0400,87645.14599454167,0.5007781982421875,1.677566528320312,-0.4360504150390625,1,0.93
2020-05-12 19:51:37.432 -0400,87645.21584154168,1.681838989257812,3.840805053710938,-0.4500274658203125,1,0.93
2020-05-12 19:51:37.501 -0400,87645.28569054167,1.793914794921875,1.3704833984375,0.017608642578125,1,0.93
2020-05-12 19:51:37.571 -0400,87645.35553854167,0.8041534423828125,-0.85089111328125,0.23638916015625,1,0.93
2020-05-12 19:51:37.641 -0400,87645.42538654167,1.021926879882812,-0.6605377197265625,0.5256195068359375,1,0.93
2020-05-12 19:51:37.711 -0400,87645.49523354167,1.210189819335938,-0.3159942626953125,0.265625,1,0.93
2020-05-12 19:51:37.781 -0400,87645.56507954167,2.373260498046875,1.057052612304688,-0.3965911865234375,1,0.93
2020-05-12 19:51:37.851 -0400,87645.63492954167,2.245590209960938,2.746795654296875,-0.971435546875,1,0.93
2020-05-12 19:51:37.920 -0400,87645.70477654168,-0.5690765380859375,1.441299438476562,-0.377716064453125,1,0.93
2020-05-12 19:51:37.990 -0400,87645.77462279167,-0.4622650146484375,0.774993896484375,-0.160797119140625,1,0.93
2020-05-12 19:51:38.060 -0400,87645.84447079168,0.325286865234375,0.6894073486328125,0.074432373046875,1,0.93
2020-05-12 19:51:38.130 -0400,87645.91431879168,0.4585113525390625,1.09979248046875,-0.083251953125,1,0.93
2020-05-12 19:51:38.200 -0400,87645.98416379167,0.7206878662109375,2.684768676757812,-0.164306640625,1,0.93
2020-05-12 19:51:38.270 -0400,87646.05400779167,0.6475677490234375,1.340835571289062,-0.2479248046875,1,0.93
2020-05-12 19:51:38.340 -0400,87646.12385379167,0.058837890625,0.722747802734375,0.07403564453125,1,0.93
2020-05-12 19:51:38.409 -0400,87646.19369979168,-0.0398712158203125,0.073028564453125,0.0695037841796875,1,0.93
2020-05-12 19:51:38.479 -0400,87646.26354479167,0.0124969482421875,-0.05340576171875,0.03448486328125,1,0.93
2020-05-12 19:51:38.549 -0400,87646.33339479167,0.104156494140625,0.504791259765625,-0.3676605224609375,1,0.93
2020-05-12 19:51:38.619 -0400,87646.40324079167,0.39471435546875,1.432052612304688,-1.191253662109375,1,0.93
2020-05-12 19:51:38.689 -0400,87646.47308879167,0.4290008544921875,0.4304351806640625,-1.026412963867188,1,0.93
2020-05-12 19:51:38.759 -0400,87646.54293479167,0.518646240234375,0.35528564453125,-1.031784057617188,1,0.93
2020-05-12 19:51:38.829 -0400,87646.61278079168,0.404449462890625,0.149688720703125,-0.64276123046875,1,0.93
2020-05-12 19:51:38.898 -0400,87646.68262979167,0.26275634765625,-0.0214996337890625,-0.403839111328125,1,0.93
2020-05-12 19:51:38.968 -0400,87646.75247779167,0.2323150634765625,0.096710205078125,-0.5316619873046875,1,0.93
2020-05-12 19:51:39.038 -0400,87646.82232412501,0.17529296875,0.0558319091796875,-0.782073974609375,1,0.93
2020-05-12 19:51:39.108 -0400,87646.89217212501,0.2292938232421875,0.199432373046875,-1.21588134765625,1,0.93
2020-05-12 19:51:39.188 -0400,87646.97199212501,0.219573974609375,0.1885223388671875,-1.25927734375,1,0.93
2020-05-12 19:51:39.307 -0400,87647.091726125,0.0973052978515625,0.0229644775390625,-0.82293701171875,1,0.93
2020-05-12 19:51:39.427 -0400,87647.211454125,0.186431884765625,0.17596435546875,-0.981842041015625,1,0.93
2020-05-12 19:51:39.547 -0400,87647.33118612501,0.1985626220703125,0.1256256103515625,-0.907989501953125,1,0.93
2020-05-12 19:51:39.667 -0400,87647.45091112501,0.212127685546875,0.165191650390625,-0.9437255859375,1,0.93
2020-05-12 19:51:39.786 -0400,87647.570639125,0.179962158203125,0.2846832275390625,-1.157501220703125,1,0.93
2020-05-12 19:51:39.906 -0400,87647.690369125,0.0529022216796875,0.30120849609375,-0.8515777587890625,1,0.93
2020-05-12 19:51:40.026 -0400,87647.81010916668,0.1630706787109375,0.2409820556640625,-0.9599151611328125,1,0.93
2020-05-12 19:51:40.146 -0400,87647.92985416666,0.1036376953125,0.1761016845703125,-0.956787109375,1,0.93
2020-05-12 19:51:40.265 -0400,87648.04959416667,0.049041748046875,0.141204833984375,-0.989990234375,1,0.93
2020-05-12 19:51:40.385 -0400,87648.16932616667,-0.0637664794921875,0.220245361328125,-0.8319549560546875,1,0.93
2020-05-12 19:51:40.505 -0400,87648.28904916668,0.126495361328125,0.3466796875,-1.063186645507812,1,0.93
2020-05-12 19:51:40.629 -0400,87648.40878116667,-0.023681640625,0.2526092529296875,-0.9277801513671875,1,0.93
2020-05-12 19:51:40.744 -0400,87648.52851816667,0.076812744140625,0.29974365234375,-1.009170532226562,1,0.93
2020-05-12 19:51:40.864 -0400,87648.64825816668,0.0501556396484375,0.2915496826171875,-0.9266510009765625,1,0.93
2020-05-12 19:51:40.984 -0400,87648.76799916667,0.0438385009765625,0.2870025634765625,-0.9625701904296875,1,0.93
2020-05-12 19:51:41.116 -0400,87648.88773991667,0.0709686279296875,0.299407958984375,-0.960968017578125,1,0.93
2020-05-12 19:51:41.223 -0400,87649.00747991668,0.0703887939453125,0.29766845703125,-0.9532928466796875,1,0.93
2020-05-12 19:51:41.343 -0400,87649.12722091668,0.053924560546875,0.3139801025390625,-0.97845458984375,1,0.93
2020-05-12 19:51:41.463 -0400,87649.24696091667,0.04803466796875,0.2960662841796875,-0.9472198486328125,1,0.93
2020-05-12 19:51:41.582 -0400,87649.36670291667,0.06488037109375,0.3043975830078125,-0.955535888671875,1,0.93
2020-05-12 19:51:41.703 -0400,87649.48644291668,0.0021514892578125,0.2757720947265625,-0.9470367431640625,1,0.93
